sep=;
ACCELEROMETER X (m/s²);ACCELEROMETER Y (m/s²);ACCELEROMETER Z (m/s²);GRAVITY X (m/s²);GRAVITY Y (m/s²);GRAVITY Z (m/s²);LINEAR ACCELERATION X (m/s²);LINEAR ACCELERATION Y (m/s²);LINEAR ACCELERATION Z (m/s²);GYROSCOPE X (rad/s);GYROSCOPE Y (rad/s);GYROSCOPE Z (rad/s);LIGHT (lux);MAGNETIC FIELD X (μT);MAGNETIC FIELD Y (μT);MAGNETIC FIELD Z (μT);ORIENTATION Z (azimuth °);ORIENTATION X (pitch °);ORIENTATION Y (roll °);PROXIMITY (i);LOCATION Latitude : ;LOCATION Longitude : ;LOCATION Altitude ( m);LOCATION Altitude-google ( m);LOCATION Speed ( Kmh);LOCATION Accuracy ( m);LOCATION ORIENTATION (°);Satellites in range;Time since start in ms ;YYYY-MO-DD HH-MI-SS_SSS
-0.8668;3.9589;8.9955;-0.8918;2.7469;9.3718;-0.029;0.9038;-0.9903;-0.6803;-0.5637;-0.3775;29.3;73.13;59.21;95.01;289.2;-18.27;6.91;2.0;35.958714;-83.92416;;NaN;;129.03226;;0 / 0;4;2022-11-11 14:40:22:843
0.9619;-0.1274;7.8838;1.9154;2.2868;9.342;-1.3913;-1.9794;-0.8825;-0.087;-0.8631;0.775;40.0;67.61;66.39;97.22;309.49;-13.48;-11.59;2.0;35.958714;-83.92416;;NaN;;129.03226;;0 / 0;504;2022-11-11 14:40:23:343
11.8798;-5.0459;1.36;7.1555;-6.0094;2.976;6.2074;0.3465;-3.9187;1.3693;1.2591;1.0915;42.7;44.72;76.58;114.43;43.94;35.39;-76.23;0.0;35.958714;-83.92416;;NaN;;129.03226;;0 / 1;1004;2022-11-11 14:40:23:843
9.4807;-7.2664;-2.4281;7.6958;-6.0406;-0.675;-1.0928;1.5659;-1.8965;-2.3683;0.434;0.8815;0.0;33.47;97.74;127.78;55.22;38.02;-95.01;2.0;35.958714;-83.92416;;NaN;;129.03226;;0 / 1;1505;2022-11-11 14:40:24:344
8.7063;0.5797;-3.3811;9.5128;-2.0181;-1.2669;-3.0833;-1.2868;0.046;0.6308;-0.6254;-0.5292;0.0;24.06;80.06;134.68;59.74;10.12;-97.37;0.0;35.958714;-83.92416;;NaN;;129.03226;;0 / 1;2004;2022-11-11 14:40:24:843
8.7993;-9.8426;-2.1921;6.1172;-7.0445;-3.0208;1.2753;-0.678;0.926;-1.4074;-0.4581;2.3327;0.0;15.0;63.36;139.11;77.95;38.79;-109.4;2.0;35.958714;-83.92416;;NaN;;129.03226;;0 / 1;2504;2022-11-11 14:40:25:343
7.2386;-7.2742;-4.2682;6.075;-7.2826;-2.4957;1.2836;0.4637;-2.2499;-0.4017;0.109;-0.3107;0.0;20.12;90.04;145.39;77.3;49.85;-111.26;2.0;35.958714;-83.92416;;NaN;;129.03226;;0 / 1;3005;2022-11-11 14:40:25:844
6.8501;-5.9225;-1.4064;6.9207;-6.7557;-1.6231;-1.3471;1.7984;-0.9221;0.1967;0.2344;-0.1947;0.0;24.06;92.81;149.74;68.42;43.54;-103.2;2.0;35.958714;-83.92416;;NaN;;129.03226;;0 / 1;3504;2022-11-11 14:40:26:343
4.8096;-5.7903;-2.6486;4.965;-8.0008;-2.7396;-0.3899;1.8985;0.7745;-0.1595;-0.1164;0.8166;0.0;24.68;95.57;145.99;77.25;50.55;-114.16;2.0;35.958714;-83.92416;;NaN;;129.03226;;0 / 2;4004;2022-11-11 14:40:26:843
4.4743;-6.6613;-1.276;5.8321;-7.26;-3.0741;-1.4756;-0.2089;2.8653;-0.0735;-0.0892;-0.5437;0.0;28.48;103.63;149.34;79.35;48.68;-122.39;2.0;35.958714;-83.92416;;NaN;;129.03226;;0 / 2;4504;2022-11-11 14:40:27:343
10.1276;-8.6554;-2.144;6.8099;-6.6729;-2.2953;0.8335;-1.3479;-2.0293;-0.3909;-0.4364;0.0346;0.0;22.31;96.81;149.27;68.83;43.16;-105.59;2.0;35.958714;-83.92416;;NaN;;129.03226;;0 / 2;5004;2022-11-11 14:40:27:843
5.6112;-7.4859;-4.5706;5.4332;-7.68;-2.7692;-0.8883;1.0627;-0.837;0.3326;-0.1932;0.1405;0.0;25.74;97.67;161.38;82.0;51.55;-117.01;2.0;35.958714;-83.92416;;NaN;;129.03226;;0 / 2;5505;2022-11-11 14:40:28:344
5.6988;-5.249;-1.7342;6.9193;-6.6207;-2.1118;-1.3817;1.6018;-0.1075;0.2979;0.0526;-0.3845;0.0;36.98;100.16;172.16;73.09;44.44;-110.79;2.0;35.958714;-83.92416;;NaN;;129.03226;;0 / 2;6004;2022-11-11 14:40:28:843
5.5487;-5.6405;-2.2786;6.3613;-7.0514;-2.4459;-0.6138;1.2043;0.3056;-0.0654;0.1515;0.3128;0.0;45.69;101.25;169.63;70.67;44.91;-109.73;2.0;35.958714;-83.92416;;NaN;;129.03226;;0 / 2;6504;2022-11-11 14:40:29:343
5.8002;-6.5988;-1.7587;6.5966;-6.6607;-2.8792;-0.9234;-1.3767;2.2908;0.2559;0.1618;-0.3754;0.0;59.08;103.07;166.84;70.66;43.33;-115.66;2.0;35.958714;-83.92416;;NaN;;129.03226;;0 / 2;7005;2022-11-11 14:40:29:844
10.4429;-8.0575;-1.7979;7.2003;-6.4468;-1.6628;2.9752;-1.6987;-3.2482;-0.1874;-0.5059;-0.2108;0.0;60.23;103.01;160.46;61.39;41.1;-103.0;2.0;35.958714;-83.92416;;NaN;;129.03226;;0 / 2;7504;2022-11-11 14:40:30:343
6.679;-7.2063;-3.0018;6.1065;-7.4432;-1.8653;-0.0939;0.9494;-1.4477;0.4805;-0.1251;-0.0871;0.0;65.57;99.71;157.48;66.44;48.92;-109.06;0.0;35.958714;-83.92416;;NaN;;129.03226;;0 / 2;8004;2022-11-11 14:40:30:843
7.2748;-6.0843;-1.453;7.3578;-6.4003;-1.0342;-0.5557;0.5556;-0.0768;0.5132;0.5416;-0.1448;0.0;70.76;98.46;155.04;58.61;41.1;-100.62;0.0;35.958714;-83.92416;;NaN;;129.03226;;0 / 2;8505;2022-11-11 14:40:31:344
5.3306;-5.569;-2.1718;6.5119;-6.8797;-2.5367;-0.7551;1.4497;-0.0565;-0.1615;-0.1739;0.4449;0.0;65.87;96.83;153.99;65.0;43.25;-109.54;0.0;35.958714;-83.92416;;NaN;;129.03226;;0 / 2;9004;2022-11-11 14:40:31:843
5.2717;-6.2683;-1.0636;6.6077;-6.5671;-3.0631;-1.2728;-1.3828;2.1772;-0.7918;0.6288;-0.0467;0.0;55.46;88.2;158.49;71.94;42.04;-114.87;0.0;35.958714;-83.92416;;NaN;;129.03226;;0 / 2;9504;2022-11-11 14:40:32:343
8.3139;-5.6662;-4.2906;6.9483;-6.439;-2.5359;0.4308;1.1038;-0.8925;-0.5417;0.3381;0.0833;0.0;38.78;75.51;158.91;74.4;41.06;-110.11;0.0;35.958714;-83.92416;;NaN;;129.03226;;0 / 2;10004;2022-11-11 14:40:32:843
6.1801;-5.8493;-4.2694;6.3673;-6.9669;-2.6627;-0.1108;0.8026;-1.4778;-0.5194;0.8647;0.5121;0.0;25.56;70.07;154.09;81.15;45.4;-112.83;0.0;35.958714;-83.92416;;NaN;;129.03226;;0 / 2;10504;2022-11-11 14:40:33:343
5.8083;-5.3752;-3.4681;7.1569;-5.6439;-3.6189;-0.076;-0.6626;2.3132;0.0251;0.6238;-0.0705;0.0;13.26;65.1;133.88;79.91;35.11;-119.36;0.0;35.958714;-83.92416;;NaN;;129.03226;;0 / 2;11004;2022-11-11 14:40:33:843
7.3914;-9.3174;-3.0051;7.3076;-5.4772;-3.5735;1.8866;-2.5377;-0.0178;-0.2672;-0.0192;-0.3248;0.0;7.65;60.04;120.23;77.67;33.95;-116.06;2.0;35.958714;-83.92416;;NaN;;129.03226;;0 / 2;11504;2022-11-11 14:40:34:343
6.3999;-6.9649;-4.3771;6.9584;-6.1783;-3.0951;0.1134;1.6126;-1.3497;0.165;-0.3468;-0.3429;0.0;11.03;66.09;122.49;77.71;40.0;-113.88;0.0;35.958714;-83.92416;;NaN;;129.03226;;0 / 2;12004;2022-11-11 14:40:34:843
7.9304;-4.7291;-3.3215;7.5839;-5.8868;-2.0001;0.4685;0.9778;-1.5901;0.1216;1.0655;0.0075;0.0;28.54;68.81;141.43;71.22;37.39;-105.55;2.0;35.958714;-83.92416;;NaN;;129.03226;;0 / 2;12504;2022-11-11 14:40:35:343
5.6868;-5.9183;-2.7338;7.0049;-6.2652;-2.8016;-0.7616;0.0018;0.7585;0.142;0.2055;0.211;0.0;43.46;80.49;139.63;69.66;38.7;-112.31;2.0;35.958714;-83.92416;;NaN;;129.03226;;0 / 2;13005;2022-11-11 14:40:35:844
7.6648;-6.5183;-0.4621;6.5365;-6.4216;-3.4938;2.1288;-1.8516;1.3475;-0.7058;-0.0505;-0.1894;0.0;48.94;85.89;137.74;70.7;40.91;-118.12;2.0;35.958714;-83.92416;;NaN;;129.03226;;0 / 2;13504;2022-11-11 14:40:36:343
8.2938;-7.0911;-3.0993;7.5761;-6.0242;-1.5752;0.2841;0.8966;-1.1936;-0.0953;0.5362;-0.0696;0.0;47.04;84.54;136.54;62.48;38.33;-103.54;2.0;35.958714;-83.92416;;NaN;;129.03226;;0 / 2;14004;2022-11-11 14:40:36:843
6.1573;-6.7549;-3.1256;6.0822;-7.3738;-2.192;0.0704;0.6247;-0.877;-0.0487;-0.0854;0.5227;0.0;46.16;88.61;134.74;67.79;48.58;-109.17;2.0;35.958714;-83.92416;;NaN;;129.03226;;0 / 2;14504;2022-11-11 14:40:37:343
6.7337;-5.0871;-0.4131;6.7256;-7.0423;-1.1589;0.284;1.819;0.9878;0.437;0.3955;-0.5136;0.0;48.9;93.94;139.24;62.8;47.43;-103.23;2.0;35.958714;-83.92416;;NaN;;129.03226;;0 / 2;15005;2022-11-11 14:40:37:844
5.9142;-6.0467;-1.8377;6.5273;-7.0946;-1.7979;-0.6061;0.9043;0.4979;-0.0559;0.4311;0.5417;0.0;50.55;93.21;140.48;63.86;46.34;-105.4;2.0;35.958714;-83.92416;;NaN;;129.03226;;0 / 2;15504;2022-11-11 14:40:38:343
5.4227;-6.6021;-1.3301;6.3094;-7.0933;-2.4589;0.1957;-0.1688;2.0807;0.2621;0.2969;-0.3958;0.0;57.02;92.63;144.43;69.07;47.38;-113.5;2.0;35.958714;-83.92416;;NaN;;129.03226;;0 / 2;16004;2022-11-11 14:40:38:843
10.2706;-8.0207;0.0652;7.4266;-6.2595;-1.3548;3.4239;-1.7253;1.2201;-0.6244;-0.1074;0.147;0.0;57.06;87.75;141.0;59.6;39.66;-100.34;2.0;35.958714;-83.92416;;NaN;;129.03226;;0 / 2;16505;2022-11-11 14:40:39:344
6.0921;-6.8943;-4.7124;6.0635;-7.1696;-2.8287;-0.0103;-0.0785;-1.3086;-0.2573;-0.0361;-0.0169;0.0;57.24;83.49;136.18;69.71;47.78;-113.4;2.0;35.958714;-83.92416;;NaN;;129.03226;;0 / 2;17004;2022-11-11 14:40:39:843
6.8638;-5.8672;-2.2125;7.3426;-6.4624;-0.703;-1.1133;0.7812;-0.6956;0.8095;-0.0609;-0.4891;0.0;57.79;80.83;129.19;57.53;42.49;-97.98;2.0;35.958714;-83.92416;;NaN;;129.03226;;0 / 2;17504;2022-11-11 14:40:40:343
5.4589;-6.1693;-2.8502;6.5127;-6.8802;-2.5334;-0.4391;0.2019;0.1553;-0.5975;-0.3279;0.5052;0.0;57.54;78.81;125.1;63.15;43.69;-107.6;2.0;35.958714;-83.92416;;NaN;;129.03226;;0 / 2;18005;2022-11-11 14:40:40:844
6.4346;-6.7391;-0.6778;7.0479;-5.8692;-3.4713;0.4312;-1.0995;1.8555;-0.8734;-0.2489;-0.552;0.0;59.7;79.74;124.78;65.48;36.76;-116.22;2.0;35.958714;-83.92416;;NaN;;129.03226;;0 / 2;18504;2022-11-11 14:40:41:343
9.2725;-4.6134;-5.3327;7.6636;-5.7024;-2.2186;0.6472;1.101;-2.201;-0.59;0.741;0.2812;0.0;61.63;77.79;127.8;61.2;35.81;-106.26;2.0;35.958714;-83.92416;;NaN;;129.03226;;0 / 2;19004;2022-11-11 14:40:41:843
7.8281;-5.0294;-3.7998;6.531;-6.6117;-3.1306;1.065;1.3087;-0.3719;0.1294;0.259;0.4125;0.0;69.3;70.31;134.59;69.43;41.15;-114.7;2.0;35.958714;-83.92416;;NaN;;129.03226;;0 / 2;19504;2022-11-11 14:40:42:343
6.3981;-3.7265;-1.8194;7.4121;-5.7212;-2.9153;-2.3108;-0.032;1.6602;-0.6054;0.8781;0.0673;0.0;76.28;70.5;149.49;69.02;36.1;-113.16;2.0;35.958714;-83.92416;;NaN;;129.03226;;0 / 2;20005;2022-11-11 14:40:42:844
7.4486;-6.7053;-0.7487;7.5633;-5.6894;-2.5686;4.1049;-2.3338;1.0331;-0.5625;-0.5806;0.5481;0.0;74.27;72.17;161.94;68.7;35.46;-108.76;2.0;35.958714;-83.92416;;NaN;;129.03226;;0 / 2;20505;2022-11-11 14:40:43:344
6.3861;-5.9925;-5.9432;6.2375;-6.9569;-2.9774;-0.2938;1.1047;-1.3008;-0.0815;0.6717;-0.0813;0.0;64.54;66.88;166.63;80.7;46.07;-119.02;0.0;35.958714;-83.92416;;NaN;;129.03226;;0 / 2;21005;2022-11-11 14:40:43:844
6.1687;-3.7077;-3.3171;7.3536;-4.9918;-4.1446;-0.9396;1.1147;0.8568;-0.7547;0.1809;0.1145;0.0;48.62;60.51;161.31;78.34;31.19;-118.98;0.0;35.958714;-83.92416;;NaN;;129.03226;;0 / 2;21505;2022-11-11 14:40:44:344
6.4493;-6.437;-3.4765;7.2524;-5.3287;-3.8959;-0.5208;-2.2351;3.3594;-0.0246;0.5776;0.6237;0.0;36.83;60.94;149.19;78.22;30.71;-120.0;0.0;35.958714;-83.92416;;NaN;;129.03226;;0 / 2;22004;2022-11-11 14:40:44:843
8.5618;-9.3763;-4.3098;6.6877;-6.5305;-2.9662;1.2748;-0.3811;-2.6142;0.0106;0.2343;-0.278;0.0;24.86;72.94;139.65;77.0;41.75;-113.92;2.0;35.958714;-83.92416;;NaN;;129.03226;;0 / 2;22505;2022-11-11 14:40:45:344
8.1209;-6.6607;-2.4233;7.9137;-5.5426;-1.6802;-0.084;-0.2134;0.2415;-0.1828;0.9375;-0.0972;0.0;16.63;72.96;143.83;72.56;35.06;-107.06;2.0;35.958714;-83.92416;;NaN;;129.03226;;0 / 2;23005;2022-11-11 14:40:45:844
4.8036;-6.1044;-3.7379;5.9029;-6.7598;-3.9535;-1.0442;0.6632;0.4696;-0.2046;-0.7121;0.4959;0.0;14.29;76.74;143.98;82.99;42.06;-120.61;2.0;35.958714;-83.92416;;NaN;;129.03226;;0 / 2;23504;2022-11-11 14:40:46:343
5.8878;-4.9914;-3.0494;6.4922;-6.2688;-3.8373;-0.1161;0.6992;0.6999;0.0337;0.2798;-0.6809;0.0;18.36;86.03;152.01;81.94;41.69;-122.82;2.0;35.958714;-83.92416;;NaN;;129.03226;;0 / 2;24004;2022-11-11 14:40:46:843
7.0077;-7.107;-0.9984;7.6712;-5.4411;-2.778;2.2061;-2.5613;1.2497;-0.5038;-0.4465;0.17;0.0;19.97;78.45;148.31;72.02;33.7;-109.91;0.0;35.958714;-83.92416;;NaN;;129.03226;;0 / 2;24505;2022-11-11 14:40:47:344
7.5494;-6.6275;-6.0951;6.3637;-6.6714;-3.3416;0.7921;-0.4025;-2.0069;-1.0208;-0.1377;0.1223;0.0;25.78;82.58;149.31;76.76;43.85;-113.88;0.0;35.958714;-83.92416;;NaN;;129.03226;;0 / 2;25005;2022-11-11 14:40:47:844
8.7709;-5.4625;-3.9054;7.8472;-5.5072;-2.0644;0.4195;0.0684;-1.7717;0.5311;0.2104;-0.3415;0.0;32.93;82.88;149.4;67.94;35.16;-106.51;0.0;35.958714;-83.92416;;NaN;;129.03226;;0 / 2;25505;2022-11-11 14:40:48:344
6.5369;-4.9684;-3.979;6.7101;-6.4502;-3.0887;-0.9482;1.4222;0.0931;0.4194;-0.2782;0.5263;0.0;35.01;82.26;145.63;72.52;39.0;-114.0;0.0;35.958714;-83.92416;;NaN;;129.03226;;0 / 2;26004;2022-11-11 14:40:48:843
6.757;-4.6783;-2.4024;7.1391;-6.1418;-2.7353;-0.4451;0.5451;0.6503;0.1469;0.3057;-0.3331;0.0;38.93;86.76;142.05;68.13;38.78;-110.96;0.0;35.958714;-83.92416;;NaN;;129.03226;;0 / 2;26504;2022-11-11 14:40:49:343
6.7648;-6.4747;-1.9911;7.5751;-5.6882;-2.5362;3.0236;-1.8993;2.8495;0.4045;-0.7933;0.1229;0.0;36.96;82.18;135.0;64.77;34.66;-106.41;0.0;35.958714;-83.92416;;NaN;;129.03226;;0 / 2;27004;2022-11-11 14:40:49:843
8.1263;-7.0666;-5.6779;6.6092;-6.6551;-2.8633;1.4668;-0.1025;-2.9956;0.2256;0.2996;0.1615;0.0;33.81;84.34;138.6;71.6;43.12;-112.11;0.0;35.958714;-83.92416;;NaN;;129.03226;;0 / 2;27504;2022-11-11 14:40:50:343
8.4359;-5.3946;-2.4446;7.8886;-5.5593;-1.7422;-0.9652;0.6611;-0.0473;0.1873;0.4478;-0.146;0.0;33.15;83.49;134.29;64.09;34.89;-104.6;0.0;35.958714;-83.92416;;NaN;;129.03226;;0 / 3;28005;2022-11-11 14:40:50:844
5.2807;-5.336;-2.8172;6.9602;-6.294;-2.848;-1.3517;0.735;0.4173;-0.4167;-0.0166;0.6192;0.0;26.46;79.63;129.53;70.85;39.93;-112.25;0.0;35.958714;-83.92416;;NaN;;129.03226;;0 / 3;28504;2022-11-11 14:40:51:343
6.1442;-5.4835;-2.4879;7.2629;-5.6815;-3.3379;-1.0158;-2.8029;1.7941;-1.2931;0.5479;0.0854;0.0;14.93;80.96;124.16;69.93;36.51;-113.62;0.0;35.958714;-83.92416;;NaN;;129.03226;;0 / 3;29004;2022-11-11 14:40:51:843
7.6511;-4.5586;-5.575;7.818;-4.8131;-3.4473;-0.061;0.179;-1.681;-0.247;0.3194;0.1471;0.0;-2.61;66.21;114.39;72.04;30.13;-112.55;0.0;35.958714;-83.92416;;NaN;;129.03226;;0 / 3;29504;2022-11-11 14:40:52:343
6.784;-3.7681;-4.8694;7.2376;-5.5145;-3.6576;0.2196;1.077;-0.8235;-0.2561;0.4524;0.3215;0.0;-0.6;71.85;126.04;76.41;34.03;-117.16;0.0;35.958714;-83.92416;;NaN;;129.03226;;0 / 3;30004;2022-11-11 14:40:52:843
6.7968;-5.447;-2.8041;7.6658;-4.786;-3.808;-0.5391;-0.8209;2.6061;0.0665;0.7005;0.112;0.0;7.35;71.68;138.17;74.16;29.21;-116.42;0.0;35.958714;-83.92416;;NaN;;129.03226;;0 / 3;30504;2022-11-11 14:40:53:343
7.1444;-8.4616;-1.7157;7.6117;-4.9331;-3.728;1.1983;-1.6073;0.3865;-0.6291;0.3399;0.2418;0.0;13.28;62.03;144.71;78.97;30.7;-116.32;0.0;35.958714;-83.92416;;NaN;;129.03226;;0 / 3;31004;2022-11-11 14:40:53:843
7.4058;-6.7427;-5.0632;6.5366;-6.5167;-3.313;0.7951;-0.0637;-1.942;-0.0736;0.5983;0.1727;0.0;19.65;72.26;147.21;81.19;41.46;-116.91;0.0;35.958714;-83.92416;;NaN;;129.03226;;0 / 3;31504;2022-11-11 14:40:54:343
6.3464;-3.8536;-2.1341;7.6615;-5.7111;-2.2033;-1.3636;1.859;0.0392;0.1687;0.5965;-0.0298;0.0;29.85;87.13;148.2;68.28;35.6;-108.7;0.0;35.958714;-83.92416;;NaN;;129.03226;;0 / 3;32004;2022-11-11 14:40:54:843
5.872;-5.4242;-2.1861;6.6386;-6.5125;-3.1124;-0.3008;0.9897;1.375;-0.1421;-0.0257;0.3418;0.0;39.02;100.65;146.7;68.97;41.61;-115.12;0.0;35.958714;-83.92416;;NaN;;129.03226;;0 / 3;32505;2022-11-11 14:40:55:344
6.3425;-6.4358;-0.6637;6.3265;-6.7575;-3.2376;0.9292;-1.4071;0.2739;-0.4925;-0.4296;-0.3035;0.0;49.84;111.71;149.25;66.88;45.3;-114.75;0.0;35.958714;-83.92416;;NaN;;129.03226;;0 / 3;33004;2022-11-11 14:40:55:843
8.8738;-7.3065;-4.1474;7.2669;-5.7867;-3.1425;0.2214;-1.1036;-1.0039;-0.1971;-0.2747;0.0491;0.0;47.89;115.73;145.41;60.61;36.16;-113.39;0.0;35.958714;-83.92416;;NaN;;129.03226;;0 / 3;33504;2022-11-11 14:40:56:343
5.3853;-6.3176;-3.428;6.3502;-6.7971;-3.1057;-0.2773;1.0937;-0.6762;0.1378;-0.2246;0.3987;0.0;48.17;115.33;144.45;64.33;42.56;-115.31;0.0;35.958714;-83.92416;;NaN;;129.03226;;0 / 3;34004;2022-11-11 14:40:56:843
7.3134;-5.2998;-1.6723;7.6516;-5.6046;-2.4924;0.0092;0.0394;0.9899;0.2634;0.3498;-0.5539;0.0;51.09;118.86;143.1;56.6;34.86;-108.04;0.0;35.958714;-83.92416;;NaN;;129.03226;;0 / 3;34505;2022-11-11 14:40:57:344
11.2164;-5.8229;-1.305;8.3794;-4.8053;-1.693;0.677;-2.0096;-1.9797;-0.0938;-0.3338;0.1561;0.0;43.44;115.93;136.56;52.08;28.76;-99.79;0.0;35.958714;-83.92416;;NaN;;129.03226;;0 / 3;35005;2022-11-11 14:40:57:844
6.8521;-5.024;-2.7176;7.3917;-5.843;-2.7189;-0.8996;0.9353;-0.1751;0.4074;-0.2247;0.2051;0.0;43.74;119.76;132.9;56.23;36.57;-110.2;0.0;35.958714;-83.92416;;NaN;;129.03226;;0 / 3;35505;2022-11-11 14:40:58:344
6.7977;-4.2957;-2.1661;8.2534;-4.7367;-2.3698;-0.6844;1.2952;0.4734;0.4965;-0.0341;-0.4107;0.0;43.07;123.94;129.06;51.16;29.74;-106.92;0.0;35.958714;-83.92416;;NaN;;129.03226;;0 / 4;36005;2022-11-11 14:40:58:844
7.6624;-5.6839;-0.4029;8.2263;-5.1815;-1.285;-0.4067;-1.5239;0.2674;0.4371;0.7629;0.3945;0.0;38.87;113.81;123.94;51.24;31.26;-101.98;0.0;35.958714;-83.92416;;NaN;;129.03226;;0 / 4;36504;2022-11-11 14:40:59:343
7.9914;-5.0913;-3.1155;7.7594;-5.5041;-2.3805;0.4365;0.1911;-0.5241;-0.0709;-0.1455;-0.1356;0.0;45.09;109.76;123.36;53.87;34.67;-106.31;0.0;35.958714;-83.92416;;NaN;;129.03226;;0 / 4;37004;2022-11-11 14:40:59:843
6.99;-4.4046;-1.7812;8.483;-4.5533;-1.8649;-1.5207;0.1566;-0.0265;-0.4103;0.6196;-0.0031;0.0;41.18;102.0;121.76;52.9;27.67;-102.4;0.0;35.958714;-83.92416;;NaN;;129.03226;;0 / 4;37505;2022-11-11 14:41:00:344
6.4675;-6.8489;0.7211;8.3283;-5.1017;-0.8847;-1.4443;-1.5106;0.8167;-0.0816;0.884;0.3799;0.0;37.29;98.29;118.93;52.96;28.96;-100.08;0.0;35.958714;-83.92416;;NaN;;129.03226;;0 / 4;38004;2022-11-11 14:41:00:843
6.9817;-3.7505;-4.5308;8.0342;-4.6144;-3.214;-1.0791;0.5806;-1.1711;-0.7477;0.5187;0.11;0.0;31.8;101.16;130.88;59.35;29.13;-111.69;0.0;35.958714;-83.92416;;NaN;;129.03226;;0 / 4;38504;2022-11-11 14:41:01:343
7.8063;-2.5319;-3.0658;8.2393;-3.2548;-4.2061;-0.4747;-0.029;2.0728;-1.0171;0.5968;0.4759;0.0;31.69;93.38;145.5;62.71;19.5;-117.95;0.0;35.958714;-83.92416;;NaN;;129.03226;;0 / 4;39005;2022-11-11 14:41:01:844
10.465;-5.7918;-2.8026;8.6455;-3.4479;-3.0884;2.3754;-0.2001;-1.3778;-0.0312;0.171;0.2353;0.0;34.71;85.48;158.63;65.87;20.58;-109.66;0.0;35.958714;-83.92416;;NaN;;129.03226;;0 / 4;39504;2022-11-11 14:41:02:343
7.3071;-5.3258;-3.0535;7.8132;-5.4175;-2.403;-1.0089;0.3474;-0.4845;-0.0547;0.055;0.3911;0.0;35.78;87.96;161.59;67.1;30.99;-106.2;0.0;35.958714;-83.92416;;NaN;;129.03226;;0 / 4;40004;2022-11-11 14:41:02:843
7.7797;-3.5282;-0.6428;8.4594;-4.7645;-1.3818;-0.7199;0.9212;1.4927;0.4907;-0.0883;-0.1364;0.0;33.9;80.53;163.16;66.02;29.46;-99.35;0.0;35.958714;-83.92416;;NaN;;129.03226;;0 / 4;40504;2022-11-11 14:41:03:343
10.9837;-7.6666;-0.7445;8.5023;-4.7954;-0.9408;3.9725;-0.3385;-0.4375;-0.2822;0.0399;0.2988;0.0;31.03;74.44;160.78;66.19;28.36;-95.79;0.0;35.958714;-83.92416;;NaN;;129.03226;;0 / 4;41005;2022-11-11 14:41:03:844
6.5752;-5.3973;-2.077;7.8682;-5.451;-2.1327;-1.2751;0.1784;0.0654;-0.2682;0.1223;0.2273;0.0;30.26;70.8;162.56;72.71;33.77;-105.17;0.0;35.958714;-83.92416;;NaN;;129.03226;;0 / 4;41504;2022-11-11 14:41:04:343
8.473;-4.8012;0.2378;8.2964;-4.3343;-2.9246;-0.3403;-0.3338;2.8121;-1.2622;-0.1032;0.2821;0.0;24.92;56.1;160.61;76.17;26.92;-106.77;0.0;35.958714;-83.92416;;NaN;;129.03226;;0 / 4;42006;2022-11-11 14:41:04:845
11.8983;-4.4405;-3.1813;8.7817;-4.0534;-1.6191;2.611;-0.1105;-1.5894;-0.7165;0.2292;0.2306;0.0;19.28;32.61;154.73;79.96;23.92;-99.28;0.0;35.958714;-83.92416;;NaN;;129.03226;;0 / 4;42504;2022-11-11 14:41:05:343
5.6402;-5.0201;-4.1746;7.5869;-5.45;-2.9843;-0.0361;1.8203;0.1733;0.1628;-1.4305;0.399;0.0;16.59;39.41;154.43;83.79;32.07;-107.89;0.0;35.958714;-83.92416;;NaN;;129.03226;;0 / 5;43005;2022-11-11 14:41:05:844
7.748;-3.9401;-1.4895;8.1454;-4.636;-2.8861;0.2573;0.6105;1.5586;0.7568;-0.4163;-0.4815;0.0;27.77;48.53;172.84;80.67;28.21;-109.51;0.0;35.958714;-83.92416;;NaN;;129.03226;;0 / 5;43505;2022-11-11 14:41:06:344
12.0362;-5.8944;-2.8786;8.469;-4.0936;-2.7729;0.6834;0.3645;-1.8553;0.1234;-0.1599;0.0987;0.0;39.62;55.37;173.83;75.8;24.36;-106.87;0.0;35.958714;-83.92416;;NaN;;129.03226;;0 / 5;44004;2022-11-11 14:41:06:843
6.5498;-4.6355;-3.2435;7.518;-5.5852;-2.9079;-0.8815;1.0978;-0.1261;0.441;-0.5691;0.1766;0.0;40.14;63.56;165.9;76.48;33.97;-111.0;0.0;35.958714;-83.92416;;NaN;;129.03226;;0 / 5;44505;2022-11-11 14:41:07:344
7.2619;-2.9031;-1.8601;8.2683;-4.764;-2.2604;-0.6236;0.897;0.7387;-0.0477;0.0872;-0.2595;0.0;39.71;66.84;162.39;71.73;30.1;-105.86;0.0;35.958714;-83.92416;;NaN;;129.03226;;0 / 5;45005;2022-11-11 14:41:07:844
8.9815;-5.6151;-1.0645;8.6288;-4.4722;-1.309;3.3977;-0.615;-0.0256;0.6211;0.0533;0.1708;0.0;38.79;67.8;157.5;67.45;27.13;-98.63;0.0;35.958714;-83.92416;;NaN;;129.03226;;0 / 5;45504;2022-11-11 14:41:08:343
8.1796;-5.2878;-3.548;7.7981;-5.22;-2.848;-0.2355;-0.0269;0.3902;0.3057;0.136;-0.092;0.0;38.48;75.02;156.32;71.56;31.98;-110.78;0.0;35.958714;-83.92416;;NaN;;129.03226;;0 / 8;46005;2022-11-11 14:41:08:844
7.049;-3.6126;-2.1751;8.7987;-4.0076;-1.6408;-1.544;1.0126;-0.4394;-0.4065;0.0275;-0.1906;0.0;41.79;81.77;160.24;64.97;24.44;-102.59;0.0;35.958714;-83.92416;;NaN;;129.03226;;0 / 8;46504;2022-11-11 14:41:09:343
7.9998;-4.5075;2.6378;8.5728;-4.6061;1.2089;-1.5979;-1.1123;-0.8983;0.0436;2.5707;0.0845;0.0;42.99;86.16;156.11;58.93;27.81;-91.24;0.0;35.958714;-83.92416;;NaN;;129.03226;;0 / 9;47004;2022-11-11 14:41:09:843
7.2805;-5.272;-3.8958;7.9353;-5.0873;-2.7058;-0.4728;-0.8794;-0.7484;-0.3082;-0.1642;-0.0064;0.0;48.73;97.33;151.37;62.76;31.25;-108.83;0.0;35.958714;-83.92416;;NaN;;129.03226;;0 / 9;47505;2022-11-11 14:41:10:344
7.94;-3.2979;-1.4737;8.8008;-4.003;-1.6407;-1.3248;1.0957;-0.4799;0.0892;0.482;-0.1823;0.0;54.11;101.81;152.27;57.61;24.63;-102.09;0.0;35.958714;-83.92416;;NaN;;129.03226;;0 / 9;48004;2022-11-11 14:41:10:843
7.9005;-4.3777;4.6687;8.4707;-4.5709;1.8773;-0.4014;-0.1183;3.0195;-0.0222;1.9366;0.1379;0.0;51.15;100.61;142.71;44.89;26.82;-76.48;0.0;35.958714;-83.92416;;NaN;;129.03226;;0 / 9;48505;2022-11-11 14:41:11:344
8.2298;-5.2878;-2.9106;8.2328;-4.7905;-2.3329;0.1774;-0.4475;-0.6482;-0.8887;-0.472;-0.061;0.0;48.9;96.71;138.94;57.5;30.32;-102.16;0.0;35.958336;-83.92459;795.5;NaN;0.0;96.80118;;0 / 10;49005;2022-11-11 14:41:11:844
7.7925;-3.7385;-1.7886;8.8474;-3.8276;-1.8012;-1.0412;-0.8589;-0.2109;-0.8212;0.8152;0.0707;0.0;40.52;83.76;143.48;61.1;22.97;-101.51;0.0;35.958336;-83.92459;795.5;NaN;0.0;96.80118;;0 / 10;49504;2022-11-11 14:41:12:343
7.1605;-4.3648;0.7229;8.5717;-4.5509;-1.4094;-1.2266;-1.001;0.6104;-0.8189;0.6011;0.1916;0.0;31.97;73.67;139.73;64.76;27.3;-101.2;0.0;35.958336;-83.92459;795.5;NaN;0.0;96.80118;;5 / 9;50004;2022-11-11 14:41:12:843
7.1632;-2.3946;-5.2986;8.2855;-4.1473;-3.2126;-0.9608;0.684;-2.0935;-0.7596;0.2915;0.0484;0.0;18.64;62.7;137.34;72.04;25.02;-111.19;0.0;35.958336;-83.92459;795.5;NaN;0.0;96.80118;;5 / 9;50505;2022-11-11 14:41:13:344
7.7976;-2.4326;-3.6987;8.405;-3.4882;-3.6551;-0.5464;1.0487;-0.1955;-0.7161;0.501;0.2792;0.0;20.49;53.61;139.95;75.01;20.8;-114.47;0.0;35.958336;-83.92459;795.5;NaN;0.0;96.80118;;5 / 9;51005;2022-11-11 14:41:13:844
5.3794;-5.3046;-0.274;8.4158;-4.2064;-2.7659;-1.4517;-1.8672;1.6293;-0.1568;1.2275;0.852;0.0;29.66;63.38;137.96;71.78;23.86;-114.61;0.0;35.958336;-83.92459;795.5;NaN;0.0;96.80118;;5 / 9;51504;2022-11-11 14:41:14:343
10.0552;-5.9668;-4.9451;8.5044;-3.6324;-3.2637;-0.5185;-0.7211;-1.2534;-0.0505;0.0859;-0.3133;0.0;35.68;76.93;133.95;64.73;22.81;-111.31;0.0;35.958336;-83.92459;795.5;NaN;0.0;96.80118;;5 / 9;52005;2022-11-11 14:41:14:844
7.751;-3.2013;-3.0864;8.5139;-3.291;-3.5852;-0.4491;0.0348;0.1814;-0.4532;0.2562;0.2202;0.0;40.88;69.75;125.78;64.77;19.61;-112.84;0.0;35.958336;-83.92459;795.5;NaN;0.0;96.80118;;5 / 9;52504;2022-11-11 14:41:15:343
9.1636;-3.0763;1.689;8.5598;-4.5019;-1.6227;-1.0016;-1.435;2.6828;-1.3688;1.6838;0.4791;0.0;52.39;62.94;126.62;62.8;26.09;-100.37;0.0;35.958336;-83.92459;795.5;NaN;0.0;96.80118;;5 / 9;53004;2022-11-11 14:41:15:843
8.9934;-6.4418;-2.9647;7.9272;-4.727;-3.3143;0.9131;-2.8033;-1.0093;0.0499;0.4719;-0.335;0.0;65.87;71.03;136.2;67.57;31.1;-114.71;0.0;35.958336;-83.92459;795.5;NaN;0.0;96.80118;;5 / 9;53504;2022-11-11 14:41:16:343
8.7305;-3.3538;-1.689;9.2082;-3.3223;-0.5838;-0.5402;-0.0903;-1.1523;-0.1277;0.6803;-0.2244;0.0;75.73;81.28;147.47;57.74;20.65;-95.83;0.0;35.958336;-83.92459;795.5;NaN;0.0;96.80118;;5 / 9;54005;2022-11-11 14:41:16:844
8.3536;-5.4745;0.7385;8.1251;-4.9703;2.3341;-1.3246;-0.1389;0.9649;-0.2803;-0.74;0.3004;0.0;74.78;91.43;155.55;43.37;30.45;-73.97;0.0;35.958336;-83.92459;795.5;NaN;0.0;96.80118;;5 / 9;54505;2022-11-11 14:41:17:344
6.7304;-3.3999;3.9114;7.8497;-4.3022;4.0055;-2.0023;0.4644;0.7497;-0.1791;-1.2105;-0.4636;0.8;66.96;99.3;158.25;29.9;28.28;-54.59;0.0;35.958336;-83.92459;795.5;NaN;0.0;96.80118;;5 / 9;55004;2022-11-11 14:41:17:843
10.5473;-4.0672;2.3961;8.8223;-3.4807;2.4945;1.4104;-0.3563;0.1399;-0.5236;-0.4414;0.1886;0.0;66.45;105.99;157.22;42.69;19.62;-71.11;0.0;35.958336;-83.92459;795.5;NaN;0.0;96.80118;;5 / 9;55504;2022-11-11 14:41:18:343
7.2488;-3.952;3.1902;7.3785;-5.0291;4.0541;0.6625;0.3953;-2.2711;0.129;1.1547;0.5481;0.0;70.73;109.39;154.35;35.23;29.35;-65.79;0.0;35.958336;-83.92459;795.5;NaN;0.0;96.80118;;5 / 9;56004;2022-11-11 14:41:18:843
8.6635;-3.9176;4.1157;8.4223;-4.716;1.7302;1.0929;-0.8914;2.3449;-0.5054;-0.9076;-0.2456;0.0;76.22;109.26;148.01;41.67;28.74;-78.39;0.0;35.958336;-83.92459;795.5;NaN;0.0;96.80118;;5 / 9;56504;2022-11-11 14:41:19:343
10.7563;-4.6681;-0.4633;9.0593;-3.6637;0.8226;0.6003;0.5796;-0.586;-0.1984;-0.9184;0.2962;0.0;71.66;100.5;137.64;43.59;20.11;-79.12;0.0;35.958336;-83.92459;795.5;NaN;0.0;96.80118;;5 / 9;57004;2022-11-11 14:41:19:843
8.2253;-4.0113;-0.2554;8.585;-4.5359;1.376;-0.9057;0.4139;-1.1266;-0.0113;-1.214;0.136;0.0;61.14;92.66;141.84;46.89;28.02;-80.37;0.0;35.958336;-83.92459;795.5;NaN;0.0;96.80118;;5 / 9;57505;2022-11-11 14:41:20:344
7.3508;-1.9663;2.1631;8.7358;-4.0035;1.9567;-1.7522;-0.1908;1.3638;-0.2597;-0.7782;-0.4104;0.0;53.06;88.44;143.87;46.38;25.23;-74.11;0.0;35.958336;-83.92459;795.5;NaN;0.0;96.80118;;5 / 9;58004;2022-11-11 14:41:20:843
8.2131;-4.8147;2.2077;8.8557;-3.6559;2.0931;2.5884;0.3958;-0.3598;-0.0166;0.9684;0.3766;0.0;50.04;86.57;146.94;49.72;21.89;-76.7;0.0;35.958336;-83.92459;795.5;NaN;0.0;96.80118;;5 / 9;58504;2022-11-11 14:41:21:343
6.7391;-3.7531;-0.9188;8.5212;-4.8445;0.2998;-0.6701;0.594;-1.8704;0.156;0.8024;0.0279;0.0;51.88;91.05;147.0;55.33;29.22;-91.68;0.0;35.958336;-83.92459;795.5;NaN;0.0;96.80118;;5 / 9;59004;2022-11-11 14:41:21:843
6.5148;-3.3227;-2.3486;8.5107;-3.8292;-3.0126;-1.4837;0.2022;0.5937;-0.8059;-0.1147;0.1016;0.0;57.6;96.39;150.28;60.01;23.3;-107.14;0.0;35.958336;-83.92459;795.5;NaN;0.0;96.80118;;5 / 9;59504;2022-11-11 14:41:22:343
7.497;-7.0083;-2.2457;8.3024;-3.8754;-3.496;4.0268;-0.9059;-0.0346;-0.0256;0.0485;0.3607;0.0;60.64;99.86;150.34;60.71;22.07;-113.89;0.0;35.958336;-83.92459;795.5;NaN;0.0;96.80118;;0 / 9;60004;2022-11-11 14:41:22:843
7.3944;-2.5205;-4.7557;8.2977;-4.1059;-3.2343;-0.9848;0.5838;-1.4092;-0.5133;0.3338;-0.048;0.0;61.46;98.61;151.74;61.05;24.75;-111.29;0.0;35.958336;-83.92459;795.5;NaN;0.0;96.80118;;0 / 9;60505;2022-11-11 14:41:23:344
7.6762;-2.6779;-4.2637;8.2592;-3.7454;-3.732;-0.4998;-0.1339;2.0212;-1.3169;0.7271;0.4832;0.0;54.06;97.99;154.82;62.77;22.54;-115.14;0.0;35.958336;-83.92459;795.5;NaN;0.0;96.80118;;0 / 9;61005;2022-11-11 14:41:23:844
6.2922;-6.3227;-1.0008;8.5442;-4.2022;-2.3471;-1.2341;-1.6774;0.9168;0.0347;-0.0386;0.5629;0.0;42.96;87.99;161.34;66.92;22.73;-115.01;0.0;35.958336;-83.92459;795.5;NaN;0.0;96.80118;;0 / 9;61504;2022-11-11 14:41:24:343
8.857;-3.9697;-5.793;8.5385;-3.6409;-3.1635;-0.3915;-0.7308;-1.7641;0.1523;0.0203;-0.287;0.0;33.0;83.16;162.68;67.91;22.59;-110.41;0.0;35.958336;-83.92459;795.5;NaN;0.0;96.80118;;0 / 9;62004;2022-11-11 14:41:24:843
7.8317;-2.6312;-3.7546;8.5566;-3.3087;-3.4651;-0.5491;0.9959;-1.0161;-1.5822;1.1665;0.4583;0.0;-73.61;33.58;39.92;67.78;19.72;-112.05;0.0;35.958336;-83.92459;795.5;NaN;0.0;96.80118;;0 / 9;62505;2022-11-11 14:41:25:344
8.5735;-3.2677;2.9411;8.6613;-4.5097;-0.9029;-3.5237;-2.8827;1.5715;-1.219;1.8021;0.248;0.0;-78.94;26.27;35.59;129.41;26.17;-103.03;0.0;35.958336;-83.92459;795.5;NaN;0.0;96.80118;;0 / 9;63004;2022-11-11 14:41:25:843
10.3941;-9.0171;-4.9475;7.9183;-4.3522;-3.8117;2.6412;-5.3131;-1.5428;-0.0977;0.3612;-0.4299;0.0;-63.19;18.3;20.33;211.05;29.34;-116.17;0.0;35.958336;-83.92459;795.5;NaN;0.0;96.80118;;0 / 9;63504;2022-11-11 14:41:26:343
8.5627;-2.6686;-3.3437;8.9299;-3.3063;-2.3445;-0.9455;0.9165;-1.1541;-0.5278;0.5883;0.0094;0.0;-53.06;10.8;24.77;135.31;20.15;-105.93;0.0;35.958336;-83.92459;795.5;NaN;0.0;96.80118;;0 / 9;64005;2022-11-11 14:41:26:844
7.3561;-4.7127;0.402;8.7123;-4.452;-0.6685;-0.7942;0.1718;1.8892;0.0941;-0.8388;0.2999;0.0;-35.01;-3.62;10.22;159.74;27.0;-94.39;0.0;35.958336;-83.92459;795.5;NaN;0.0;96.80118;;0 / 9;64505;2022-11-11 14:41:27:344
8.8953;-3.239;-1.3938;8.3483;-4.0365;-3.191;3.3165;-2.3426;-0.2123;0.1895;-0.499;-0.5663;0.0;-32.96;7.35;8.48;204.71;26.04;-110.26;0.0;35.958336;-83.92459;795.5;NaN;0.0;96.80118;;0 / 9;65005;2022-11-11 14:41:27:844
9.9631;-3.3111;-3.5067;8.9819;-3.3653;-2.0423;0.9915;0.2264;-1.3543;0.1732;0.1904;-0.1367;0.0;-26.74;15.06;10.43;41.82;19.35;-101.89;0.0;35.958336;-83.92459;795.5;NaN;0.0;96.80118;;0 / 9;65504;2022-11-11 14:41:28:343
6.7729;-3.9855;-1.6851;8.3651;-4.5146;-2.4113;-1.4043;0.4035;0.5419;-0.2519;-0.1323;0.265;0.0;-21.58;21.21;-1.8;321.35;26.67;-104.8;0.0;35.958336;-83.92459;795.5;NaN;0.0;96.80118;;0 / 9;66004;2022-11-11 14:41:28:843
8.6405;-3.096;-1.1883;8.7909;-3.7105;-2.2632;0.6978;0.6714;1.3071;0.7844;-0.2366;-0.6137;0.0;-14.31;21.88;-8.42;324.9;22.23;-104.44;0.0;35.958336;-83.92459;795.5;NaN;0.0;96.80118;;0 / 9;66505;2022-11-11 14:41:29:344
12.7247;-4.4441;-3.1149;8.916;-3.6276;-1.8749;1.5222;-0.4478;-0.8512;-0.5195;-0.5327;0.5006;0.0;-13.71;10.99;-15.02;290.45;20.3;-99.25;0.0;35.958336;-83.92459;795.5;NaN;0.0;96.80118;;0 / 9;67005;2022-11-11 14:41:29:844
7.3032;-3.8611;-3.6296;8.132;-4.4986;-3.1311;-0.7296;0.8971;0.4302;-0.338;-0.3281;0.252;0.0;-15.39;4.95;-14.14;271.02;27.31;-111.06;0.0;35.958336;-83.92459;795.5;NaN;0.0;96.80118;;0 / 9;67504;2022-11-11 14:41:30:343
8.1188;-3.2542;-1.6947;8.5573;-3.7972;-2.9196;0.7106;0.283;0.5979;0.5011;0.0127;-0.498;0.0;-17.98;1.56;-9.81;256.96;23.85;-110.15;0.0;35.958336;-83.92459;795.5;NaN;0.0;96.80118;;2 / 10;68004;2022-11-11 14:41:30:843
9.3218;-2.8205;-2.0922;9.1187;-3.3598;-1.316;-0.3129;0.2839;-0.6265;0.0774;0.5138;0.0106;0.0;-19.28;-6.77;-5.81;214.21;20.04;-98.21;0.0;35.958336;-83.92459;795.5;NaN;0.0;96.80118;;2 / 10;68505;2022-11-11 14:41:31:344
6.7161;-4.0364;-1.8718;8.2284;-4.5259;-2.8248;-0.9751;0.6879;0.9974;-0.4831;-0.3883;0.2479;0.0;-24.0;-6.47;-3.96;214.9;27.18;-106.6;0.0;35.958336;-83.92459;795.5;NaN;0.0;96.80118;;2 / 10;69004;2022-11-11 14:41:31:843
7.3388;-5.4482;-3.8016;7.7974;-5.137;-2.997;-0.725;0.4663;-0.4564;0.058;0.2328;0.0446;0.0;-28.48;-7.03;2.33;202.21;31.59;-111.02;0.0;35.958336;-83.92459;795.5;NaN;0.0;96.80118;;2 / 10;69504;2022-11-11 14:41:32:343
7.4874;-3.2405;-2.1748;8.6958;-3.7659;-2.5243;-1.6172;0.4286;1.0235;-0.7517;0.1794;-0.0263;0.0;-30.69;-11.74;1.05;198.17;23.34;-105.9;0.0;35.958336;-83.92459;795.5;NaN;0.0;96.80118;;2 / 10;70005;2022-11-11 14:41:32:844
7.6765;-5.2612;-0.9024;8.9985;-3.8114;-0.8195;0.6426;-1.4045;-1.0228;0.3567;0.4271;0.3383;0.0;-34.39;-21.39;-8.7;207.33;21.1;-102.15;0.0;35.958336;-83.92459;795.5;NaN;0.0;96.80118;;2 / 10;70505;2022-11-11 14:41:33:344
6.606;-4.7659;-3.6194;8.0056;-4.996;-2.6685;-1.3621;0.3593;-1.4277;0.472;0.7919;-0.0915;0.0;-39.58;-21.3;-18.21;223.5;30.26;-112.06;0.0;35.958336;-83.92459;795.5;NaN;0.0;96.80118;;2 / 10;71005;2022-11-11 14:41:33:844
8.0186;-2.4458;-1.9241;8.6298;-3.4;-3.184;-0.9456;0.2;2.1553;-1.0901;0.224;0.1576;0.0;-38.51;-25.67;-20.59;223.86;20.29;-110.25;0.0;35.958336;-83.92459;795.5;NaN;0.0;96.80118;;2 / 10;71504;2022-11-11 14:41:34:343
11.1685;-3.4639;-3.4813;8.5168;-3.3133;-3.5577;0.8155;1.386;-1.6386;-0.8191;-0.3699;0.1608;0.0;-37.76;-29.08;-35.19;231.2;20.65;-107.79;0.0;35.958336;-83.92459;795.5;NaN;0.0;96.80118;;2 / 10;72004;2022-11-11 14:41:34:843
6.6437;-3.9661;-3.9087;7.6576;-5.1359;-3.3397;-0.1844;1.913;-1.6396;-0.0434;-0.5472;0.6758;0.0;-31.89;-10.07;-34.29;249.05;30.23;-113.02;0.0;35.958336;-83.92459;795.5;NaN;0.0;96.80118;;2 / 10;72504;2022-11-11 14:41:35:343
7.7743;-3.1995;-2.0883;8.4482;-3.9871;-2.9837;-0.8343;-0.2105;1.0486;-0.1707;0.5602;-0.2818;0.0;-28.71;8.23;-33.37;271.28;25.06;-111.44;0.0;35.958336;-83.92459;795.5;NaN;0.0;96.80118;;2 / 10;73004;2022-11-11 14:41:35:843
10.7309;-4.7091;-2.4523;8.5194;-4.1394;-2.5407;3.0966;-0.7232;-0.8798;0.1505;-0.3392;-0.0866;0.0;-24.86;19.07;-40.74;284.56;24.97;-106.61;0.0;35.958336;-83.92459;795.5;NaN;0.0;96.80118;;2 / 10;73504;2022-11-11 14:41:36:343
7.1381;-5.3082;-4.2846;7.3399;-5.5285;-3.4253;-0.7205;0.6048;-0.808;0.3653;-0.3574;0.295;0.0;-27.79;31.74;-36.58;295.57;31.79;-113.91;0.0;35.958336;-83.92459;795.5;NaN;0.0;96.80118;;2 / 10;74005;2022-11-11 14:41:36:844
6.6395;-3.9242;-2.4129;8.8676;-3.9346;-1.4333;-1.7022;-0.626;-0.569;0.8959;0.6953;-0.6179;0.0;-30.19;33.17;-35.49;297.34;24.21;-100.62;0.0;35.958336;-83.92459;795.5;NaN;0.0;96.80118;;2 / 10;74504;2022-11-11 14:41:37:343
10.5852;-5.6815;-0.5088;8.7703;-4.1502;-1.424;5.1346;-2.4886;0.0456;0.9935;-0.7933;-0.1605;0.0;-33.41;20.83;-40.18;279.77;25.06;-98.28;0.0;35.958336;-83.92459;795.5;NaN;0.0;96.80118;;2 / 10;75004;2022-11-11 14:41:37:843
3.8106;0.4768;9.8611;6.6354;0.5416;7.2006;0.7159;0.5096;5.3024;-0.4687;2.6519;-2.7294;36.8;-22.52;7.54;-50.02;302.66;-3.17;-42.66;0.0;35.958336;-83.92459;795.5;NaN;0.0;96.80118;;2 / 10;75505;2022-11-11 14:41:38:344
-1.019;2.3815;8.7999;-1.3606;3.4583;9.0752;0.4347;-1.7237;-0.8476;0.0958;-0.005;0.7545;549.9;26.04;-16.22;-56.98;290.91;-21.62;7.13;0.0;35.958336;-83.92459;795.5;NaN;0.0;96.80118;;2 / 10;76004;2022-11-11 14:41:38:843
-1.3555;6.5396;5.8929;-3.0161;6.7057;6.489;1.4473;-0.3178;0.0185;0.9198;0.9761;0.2833;281.6;31.76;-31.13;-35.25;287.31;-40.98;20.66;2.0;35.958336;-83.92459;795.5;NaN;0.0;96.80118;;2 / 10;76504;2022-11-11 14:41:39:343
-3.6571;6.425;6.5764;-3.7588;6.1338;6.6647;0.1301;0.5708;-0.2496;-0.2475;0.0518;0.0257;193.8;33.02;-31.99;-22.2;262.56;-39.3;29.6;2.0;35.958336;-83.92459;795.5;NaN;0.0;96.80118;;5 / 11;77004;2022-11-11 14:41:39:843