sep=;
ACCELEROMETER X (m/s²);ACCELEROMETER Y (m/s²);ACCELEROMETER Z (m/s²);GRAVITY X (m/s²);GRAVITY Y (m/s²);GRAVITY Z (m/s²);LINEAR ACCELERATION X (m/s²);LINEAR ACCELERATION Y (m/s²);LINEAR ACCELERATION Z (m/s²);GYROSCOPE X (rad/s);GYROSCOPE Y (rad/s);GYROSCOPE Z (rad/s);LIGHT (lux);MAGNETIC FIELD X (μT);MAGNETIC FIELD Y (μT);MAGNETIC FIELD Z (μT);ORIENTATION Z (azimuth °);ORIENTATION X (pitch °);ORIENTATION Y (roll °);PROXIMITY (i);SOUND LEVEL (dB);LOCATION Latitude : ;LOCATION Longitude : ;LOCATION Altitude ( m);LOCATION Altitude-google ( m);LOCATION Speed ( Kmh);LOCATION Accuracy ( m);LOCATION ORIENTATION (°);Satellites in range;Time since start in ms ;YYYY-MO-DD HH-MI-SS_SSS
-3.0353;3.1645;9.338;-2.5044;3.2765;8.8974;-0.5364;-0.8201;-0.1535;0.3515;0.1726;0.79;43.0;26.33;-29.76;-3.39;223.54;-17.76;14.53;5.0;35.958572;-83.9247;816.27;NaN;;833.242;;0 / 0;6;2022-11-01 17:37:14:865
1.6956;3.1765;9.5079;0.8551;3.4855;9.1263;0.6423;0.2463;-1.4513;-0.2214;-1.1013;0.3866;48.0;20.21;-35.06;-8.04;214.76;-23.66;-0.51;5.0;35.958572;-83.9247;816.27;NaN;;833.242;;0 / 0;506;2022-11-01 17:37:15:365
0.836;0.8782;9.6491;2.2037;3.0902;9.0424;-0.8927;-0.636;0.4307;-0.6619;0.6692;0.8385;54.5;10.97;-39.94;-15.94;203.13;-18.37;-13.7;5.0;35.958572;-83.9247;816.27;NaN;;833.242;;0 / 0;1007;2022-11-01 17:37:15:866
-0.2103;3.0951;11.8134;0.2885;3.0648;9.311;-0.1452;1.01;1.2084;-0.0556;-0.5537;-0.6507;42.7;1.78;-47.44;-17.38;183.12;-18.21;-0.49;5.0;35.958572;-83.9247;816.27;NaN;;833.242;;0 / 0;1507;2022-11-01 17:37:16:366
0.3236;0.9787;8.9453;-0.6283;2.5983;9.4353;0.9992;-2.1833;-0.265;0.4395;-1.1085;-0.8244;17.9;5.72;-57.64;-24.02;183.16;-15.01;7.68;5.0;35.958572;-83.9247;816.27;NaN;;833.242;;0 / 0;2006;2022-11-01 17:37:16:865
-0.3921;1.771;9.4361;1.95;0.6451;9.5891;-3.1222;0.628;-1.5141;0.1688;0.1293;0.5615;14.5;23.96;-50.76;-30.84;211.37;-2.3;-13.24;5.0;35.958572;-83.9247;816.27;NaN;;833.242;;0 / 0;2507;2022-11-01 17:37:17:366
3.8022;0.6338;11.1168;1.7321;1.8301;9.4774;1.7622;1.2658;1.1391;-0.3237;0.8529;0.1219;12.4;22.5;-58.31;-33.02;208.92;-10.76;-10.36;5.0;35.958572;-83.9247;816.27;NaN;;833.242;;0 / 0;3006;2022-11-01 17:37:17:865
2.2367;1.436;9.2614;1.5921;0.8336;9.6406;-0.0689;-0.3816;-0.7921;-0.6676;-1.1485;-1.0009;13.8;47.51;-56.38;-35.19;224.41;-6.67;-5.31;5.0;35.958572;-83.9247;816.27;NaN;;833.242;;0 / 0;3506;2022-11-01 17:37:18:365
0.0963;-0.5824;5.7371;1.6675;0.2947;9.6594;-2.6489;-1.3683;0.4011;0.6431;-0.1694;0.813;15.5;48.04;-13.39;-46.07;257.84;-1.72;-9.79;5.0;35.958572;-83.9247;816.27;NaN;;833.242;;0 / 0;4007;2022-11-01 17:37:18:866
2.9031;-1.6519;12.0802;0.4913;-0.8608;9.7564;0.9667;-0.2834;3.3127;0.1003;-0.091;0.3839;15.5;64.35;-16.69;-43.86;251.47;6.53;-1.16;5.0;35.958572;-83.9247;816.27;NaN;;833.242;;0 / 0;4507;2022-11-01 17:37:19:366
2.3836;0.4977;10.678;2.4651;-0.3953;9.4835;-0.2774;0.8147;0.4971;-0.9526;-1.5372;-0.597;17.8;84.45;-7.41;-42.39;265.16;2.31;-14.57;5.0;35.958572;-83.9247;816.27;NaN;;833.242;;0 / 0;5007;2022-11-01 17:37:19:866
1.6866;0.8369;7.0229;2.4208;-0.2156;9.5007;-1.5691;-0.1237;-3.7251;-0.6793;-0.6284;1.2622;20.6;66.62;20.93;-45.09;286.25;-1.9;-12.83;5.0;35.958572;-83.9247;816.27;NaN;;833.242;;0 / 0;5507;2022-11-01 17:37:20:366
3.0574;-1.9684;8.7748;0.6179;-0.2455;9.7841;1.7277;-1.6623;2.1686;0.3655;1.3328;-1.0557;20.6;83.38;11.23;-40.78;276.75;1.43;-3.61;5.0;35.958572;-83.9247;816.27;NaN;;833.242;;0 / 0;6006;2022-11-01 17:37:20:865
1.3172;0.4128;11.2415;1.396;0.966;9.6586;-0.5374;-0.06;1.5245;-0.0456;-0.8873;-0.5384;24.8;80.33;26.19;-31.2;288.79;-5.08;-4.95;5.0;35.958572;-83.9247;816.27;NaN;;833.242;;0 / 0;6506;2022-11-01 17:37:21:365
0.4181;2.196;6.4226;2.329;1.1878;9.4517;-2.1449;0.9406;-3.8196;-0.2729;0.5486;1.0172;29.8;55.37;28.28;-39.56;296.14;-6.96;-13.84;5.0;35.958572;-83.9247;816.27;NaN;;833.242;;0 / 0;7006;2022-11-01 17:37:21:865
2.1437;0.8997;8.1906;0.3551;2.3462;9.5152;1.1053;0.3244;-3.0031;0.2366;0.876;0.1535;29.8;57.98;16.69;-36.09;291.67;-13.11;-3.55;5.0;35.958572;-83.9247;816.27;NaN;;833.242;;0 / 0;7506;2022-11-01 17:37:22:365
2.2244;0.8527;14.4559;1.4069;1.0627;9.6468;1.6204;1.2391;2.044;-0.1477;0.2879;-1.4692;37.5;51.86;15.45;-35.19;287.53;-6.22;-8.3;5.0;35.958572;-83.9247;816.27;NaN;;833.242;;0 / 0;8006;2022-11-01 17:37:22:865
2.1718;1.3026;10.1836;2.4852;0.1775;9.4849;-0.7628;0.8358;1.516;-0.3732;0.6307;0.598;55.2;34.09;17.57;-46.41;292.23;-1.52;-17.41;5.0;35.958572;-83.9247;816.27;NaN;;833.242;;0 / 0;8506;2022-11-01 17:37:23:365
3.8737;-0.6263;11.7673;-0.2215;2.247;9.5432;4.2177;-1.9092;0.8559;0.02;-0.5224;-1.2004;53.4;33.84;2.89;-41.18;290.71;-13.25;1.33;5.0;35.958572;-83.9247;816.27;NaN;;833.242;;0 / 0;9006;2022-11-01 17:37:23:865
-0.1232;-0.3796;12.5513;2.3415;1.2697;9.438;-2.9235;0.4063;5.2117;-0.4969;-0.6376;-0.3044;32.5;27.68;-2.59;-46.91;272.82;-6.91;-12.2;5.0;35.958572;-83.9247;816.27;NaN;;833.242;;0 / 0;9506;2022-11-01 17:37:24:365
3.271;2.0004;10.2491;1.2173;1.3635;9.6348;2.0081;0.9533;0.0138;-0.001;0.3952;-0.7856;24.2;12.6;-8.64;-53.85;265.09;-7.99;-7.2;5.0;35.958572;-83.9247;816.27;NaN;;833.242;;0 / 0;10006;2022-11-01 17:37:24:865
2.1221;-0.3197;10.273;1.2481;2.9272;9.276;1.0205;-3.4243;1.9214;0.6113;-0.9522;-1.8482;41.4;15.23;-14.12;-52.52;271.8;-15.69;-3.58;5.0;35.958572;-83.9247;816.27;NaN;;833.242;;0 / 0;10506;2022-11-01 17:37:25:365
0.8605;1.6283;8.0166;3.3419;2.2381;8.9439;-2.3284;-0.5133;-0.8637;-0.0642;0.6308;-0.2356;62.2;0.62;-14.92;-45.09;253.12;-13.19;-20.49;5.0;35.958572;-83.9247;816.27;NaN;;833.242;;0 / 0;11006;2022-11-01 17:37:25:865
2.048;0.3141;12.364;1.4343;1.1499;9.6328;2.1936;0.2282;2.9915;0.625;0.6878;-0.8405;28.2;0.84;-6.75;-40.63;243.22;-3.23;-11.83;5.0;35.958572;-83.9247;816.27;NaN;;833.242;;0 / 0;11506;2022-11-01 17:37:26:365
2.2053;0.7274;10.5036;2.6793;1.1621;9.3617;-1.2811;-0.1797;0.7569;-0.7146;-0.953;-0.6931;11.5;7.44;-0.56;-38.16;280.25;-6.81;-15.97;5.0;35.958572;-83.9247;816.27;NaN;;833.242;;0 / 0;12006;2022-11-01 17:37:26:865
1.2446;1.5072;8.0405;2.5471;1.2123;9.3922;-1.8066;-0.264;-2.6006;0.0737;0.3612;1.1554;9.5;0.71;7.2;-35.04;317.6;-7.1;-15.17;5.0;35.958572;-83.9247;816.27;NaN;;833.242;;0 / 0;12506;2022-11-01 17:37:27:365
2.4356;0.3443;8.9085;1.7952;1.697;9.4904;0.7387;-1.1438;-1.1343;0.2595;0.1045;-0.5075;11.3;11.46;13.13;-38.44;315.96;-8.76;-10.33;5.0;35.958572;-83.9247;816.27;NaN;;833.242;;0 / 0;13006;2022-11-01 17:37:27:865
1.171;0.6476;13.8347;2.3435;0.7071;9.4962;-0.5312;1.758;1.3808;-0.8736;0.2619;-0.4468;8.7;6.3;15.04;-38.01;320.93;-6.54;-14.56;5.0;35.958572;-83.9247;816.27;NaN;;833.242;;0 / 0;13506;2022-11-01 17:37:28:365
2.5944;1.1198;10.6187;2.1519;0.1236;9.5668;0.5321;0.6354;-0.0161;-0.0755;0.5561;0.0575;10.8;-1.05;24.08;-31.72;346.08;-0.72;-12.68;5.0;35.958572;-83.9247;816.27;NaN;;833.242;;0 / 0;14006;2022-11-01 17:37:28:865
2.7712;0.7403;7.6983;1.1698;1.5104;9.6188;1.4864;-0.4955;-2.5999;0.1198;-0.1674;-0.4307;13.6;1.86;31.24;-30.77;350.79;-8.86;-6.93;5.0;35.958572;-83.9247;816.27;NaN;;833.242;;0 / 0;14506;2022-11-01 17:37:29:365
0.0718;-0.0793;7.2661;2.8271;1.2731;9.3036;-2.817;-1.2953;-1.9189;0.535;0.191;0.258;11.0;-19.09;29.29;-24.41;18.56;-6.21;-17.87;5.0;35.958572;-83.9247;816.27;NaN;;833.242;;0 / 0;15006;2022-11-01 17:37:29:865
3.3491;1.7686;10.9469;2.6235;0.9717;9.3991;0.8004;0.7726;1.5068;0.45;-0.186;0.0885;12.2;-23.81;35.03;-21.82;24.15;-5.67;-16.32;5.0;35.958572;-83.9247;816.27;NaN;;833.242;;0 / 0;15507;2022-11-01 17:37:30:366
3.2186;1.85;8.6662;2.5042;1.5379;9.356;0.5394;0.2685;-1.9185;-0.7245;-0.185;-0.2488;12.2;-20.94;43.71;-21.39;17.37;-9.02;-14.98;5.0;35.958572;-83.9247;816.27;NaN;;833.242;;0 / 0;16006;2022-11-01 17:37:30:865
0.5495;0.5315;5.1999;3.5846;2.3519;8.8198;-3.1812;-2.5221;-0.0707;0.6814;-0.6147;-0.094;15.8;-30.66;39.66;-17.49;27.4;-11.79;-20.41;5.0;35.958572;-83.9247;816.27;NaN;;833.242;;0 / 0;16506;2022-11-01 17:37:31:365
3.9302;1.4402;11.6372;2.8913;1.253;9.2866;1.0617;0.3507;2.2344;0.2809;0.2191;0.486;12.9;-31.07;39.49;-17.25;30.38;-6.59;-17.56;5.0;35.958572;-83.9247;816.27;NaN;;833.242;;0 / 0;17006;2022-11-01 17:37:31:865
2.4876;1.4665;11.9539;2.6561;0.7152;9.413;0.8998;0.6808;-0.9093;-0.9822;-0.1963;-0.7374;13.8;-34.87;33.53;-16.44;38.83;-6.66;-15.41;5.0;35.958572;-83.9247;816.27;NaN;;833.242;;0 / 0;17506;2022-11-01 17:37:32:365
1.4617;1.0322;4.4841;2.4091;2.3302;9.2161;-1.5937;-1.7193;-4.8747;-0.2993;0.3377;0.6127;27.8;-35.03;15.51;-30.36;46.95;-13.75;-14.65;5.0;35.958572;-83.9247;816.27;NaN;;833.242;;0 / 0;18006;2022-11-01 17:37:32:865
2.4858;1.107;12.6793;0.4059;-0.1164;9.7976;2.264;0.2802;3.1504;0.4492;0.2082;-0.0082;21.6;-20.38;24.51;-39.98;38.74;3.79;-3.06;5.0;35.958572;-83.9247;816.27;NaN;;833.242;;0 / 0;18506;2022-11-01 17:37:33:365
1.1097;2.9955;8.1514;1.379;3.649;8.9974;-0.2764;-0.6996;-0.8032;-0.467;-1.5778;-1.117;64.4;-17.64;17.51;-48.06;20.77;-24.68;-4.7;5.0;35.958572;-83.9247;816.27;NaN;;833.242;;0 / 0;19007;2022-11-01 17:37:33:866
0.4825;1.1838;6.9401;2.8228;0.0348;9.3915;-2.2963;0.7039;-2.0907;0.4329;0.4859;-0.5146;79.6;-46.82;4.44;-36.96;80.82;-1.6;-17.91;5.0;35.958572;-83.9247;816.27;NaN;;833.242;;0 / 0;19507;2022-11-01 17:37:34:366
3.751;-1.8165;11.9207;0.7038;0.8019;9.7484;3.0117;-1.2999;2.4883;0.3656;-0.2944;-1.1963;72.0;-42.32;1.89;-37.46;82.37;-4.69;-4.13;5.0;35.958572;-83.9247;816.27;NaN;;833.242;;0 / 0;20007;2022-11-01 17:37:34:866
-0.6748;2.0429;12.3607;1.9639;-0.1414;9.6069;-2.0262;1.3339;0.9275;-0.9428;-0.218;-1.358;51.2;-26.79;-16.71;-32.57;128.59;-0.65;-10.14;5.0;35.958572;-83.9247;816.27;NaN;;833.242;;0 / 0;20507;2022-11-01 17:37:35:366
2.4473;-0.8629;8.2493;1.48;-0.3095;9.6894;0.9555;-0.5258;-1.375;-1.2478;-0.0733;0.5376;80.5;-25.78;-25.54;-28.93;139.38;-2.47;-9.13;5.0;35.958572;-83.9247;816.27;NaN;;833.242;;0 / 0;21007;2022-11-01 17:37:35:866
2.6177;-2.4873;9.143;0.3944;1.4856;9.6854;2.42;-2.6848;-1.98;0.5716;-0.2138;-2.1605;85.5;-16.46;-22.82;-29.59;143.15;-7.95;-4.03;5.0;35.958572;-83.9247;816.27;NaN;;833.242;;0 / 0;21507;2022-11-01 17:37:36:366
2.3611;0.1454;11.3034;3.2211;-0.2724;9.2585;-1.6169;0.2649;2.8898;-1.0446;-0.1219;-1.0246;53.4;5.04;-21.34;-28.29;212.71;1.59;-19.18;5.0;35.958572;-83.9247;816.27;NaN;;833.242;;0 / 0;22007;2022-11-01 17:37:36:866
1.5389;-0.6796;10.6615;0.8024;-1.0195;9.7204;0.1519;0.766;-2.0188;-0.6695;0.57;1.3213;18.0;9.09;-12.24;-34.28;223.26;3.81;-7.4;5.0;35.958572;-83.9247;816.27;NaN;;833.242;;0 / 0;22507;2022-11-01 17:37:37:366
1.7079;-1.2975;8.6785;1.1128;0.8092;9.7096;-0.5788;-1.5888;0.8345;1.0407;-1.0843;-1.1589;18.0;10.46;-12.79;-37.69;235.14;-4.73;-6.54;5.0;35.958572;-83.9247;816.27;NaN;;833.242;;0 / 0;23007;2022-11-01 17:37:37:866
0.7352;-0.4893;12.4433;2.3525;0.7965;9.4869;-0.8895;-0.4573;5.2993;-0.5043;0.9086;-0.317;14.4;9.32;-18.39;-42.37;230.75;-3.68;-14.09;5.0;35.958572;-83.9247;816.27;NaN;;833.242;;0 / 0;23507;2022-11-01 17:37:38:366
1.4572;0.3742;9.7322;1.9627;-0.1345;9.6073;-0.325;0.4989;0.0757;-0.3147;0.0425;0.4208;13.0;11.06;-14.64;-47.74;232.55;0.79;-11.55;5.0;35.958572;-83.9247;816.27;NaN;;833.242;;0 / 0;24007;2022-11-01 17:37:38:866
2.4835;0.3209;7.5141;1.7682;0.6348;9.625;0.9378;-1.3385;-1.244;0.2027;0.2356;-0.6604;15.0;9.96;-10.56;-48.86;245.44;-2.92;-10.65;5.0;35.958572;-83.9247;816.27;NaN;;833.242;;0 / 0;24507;2022-11-01 17:37:39:366
0.7636;-0.3637;12.3727;2.2365;0.5031;9.535;-1.2387;0.5549;2.7959;0.0652;-0.6344;0.1479;15.1;9.13;-5.66;-49.52;259.88;-2.94;-13.2;5.0;35.958572;-83.9247;816.27;NaN;;833.242;;0 / 0;25006;2022-11-01 17:37:39:865
2.8002;1.1746;11.2083;1.6048;0.1978;9.6724;1.1249;0.7514;0.3758;0.2337;0.2192;0.5723;15.1;8.48;-1.93;-52.37;267.09;-1.3;-10.15;5.0;35.958572;-83.9247;816.27;NaN;;833.242;;0 / 0;25506;2022-11-01 17:37:40:365
2.9106;1.2;7.1883;2.4304;1.3521;9.404;0.2962;0.0577;-2.8451;-0.4192;-0.0757;0.0011;15.1;12.02;-4.5;-57.04;277.12;-7.92;-14.49;5.0;35.958572;-83.9247;816.27;NaN;;833.242;;0 / 0;26006;2022-11-01 17:37:40:865
1.5517;-0.0954;7.3992;3.8899;-0.2646;8.9983;-0.4122;-2.2201;3.0353;-0.3321;-0.7127;-0.524;12.2;8.23;5.08;-58.61;276.49;1.92;-20.89;5.0;35.958572;-83.9247;816.27;NaN;;833.242;;0 / 0;26506;2022-11-01 17:37:41:365
2.2645;0.6526;10.6205;2.109;-1.1056;9.5131;1.1449;0.9251;2.8659;0.2702;0.0657;0.3257;15.3;12.86;16.89;-55.93;294.0;6.47;-12.5;5.0;35.958572;-83.9247;816.27;NaN;;833.242;;0 / 0;27006;2022-11-01 17:37:41:865
2.8196;-0.248;7.7133;1.7637;0.5067;9.6334;0.6266;-0.7589;-2.4397;0.092;-0.4475;-0.1603;22.9;22.97;10.84;-54.26;291.83;-2.13;-9.97;5.0;35.958572;-83.9247;816.27;NaN;;833.242;;0 / 0;27506;2022-11-01 17:37:42:365
3.2758;-2.0913;18.0538;2.4069;0.6657;9.4834;1.2349;-1.7972;7.9824;0.5366;-0.2222;-1.4239;20.0;28.8;10.63;-54.56;288.72;-3.89;-14.24;5.0;35.958572;-83.9247;816.27;NaN;;833.242;;0 / 0;28006;2022-11-01 17:37:42:865
4.9193;1.3783;8.2959;2.634;0.394;9.4381;1.4644;0.6844;0.4393;0.4558;-0.0883;0.2789;27.0;31.74;15.15;-57.22;287.56;0.24;-16.41;5.0;35.958572;-83.9247;816.27;NaN;;833.242;;0 / 0;28506;2022-11-01 17:37:43:365
3.4026;-0.3652;10.0059;1.8186;1.9362;9.44;2.2488;-2.5699;-0.4505;-0.2811;-0.0659;-1.7805;37.4;21.56;17.59;-43.41;310.23;-11.39;-10.9;5.0;35.958572;-83.9247;816.27;NaN;;833.242;;0 / 0;29006;2022-11-01 17:37:43:865
0.0544;1.0989;7.1994;2.9411;1.9001;9.1602;-2.5759;-1.0506;-0.0212;0.1545;-1.1237;-1.3958;43.6;-4.24;14.18;-34.07;342.62;-8.5;-16.63;5.0;35.958572;-83.9247;816.27;NaN;;833.242;;0 / 0;29506;2022-11-01 17:37:44:365
3.0688;2.7218;10.6789;2.2046;0.5151;9.5417;0.8376;2.1363;0.746;0.143;0.9025;-0.6508;38.1;-18.86;2.66;-26.7;70.29;-1.73;-15.67;5.0;35.958572;-83.9247;816.27;NaN;;833.242;;0 / 0;30007;2022-11-01 17:37:44:866
2.4852;0.542;9.1774;3.0617;1.2179;9.2365;-0.8389;-1.6228;0.2479;-0.6488;-0.5061;-1.2306;34.5;-18.37;-6.6;-19.54;104.53;-9.27;-16.58;5.0;35.958572;-83.9247;816.27;NaN;;833.242;;0 / 0;30507;2022-11-01 17:37:45:366
5.0509;-2.1144;11.3154;2.3582;0.9738;9.469;0.4735;-0.0108;2.5939;0.601;-0.439;0.7309;41.0;-5.21;-7.61;-15.64;171.11;-5.7;-13.98;5.0;35.958572;-83.9247;816.27;NaN;;833.242;;0 / 0;31007;2022-11-01 17:37:45:866
0.7974;-0.0413;11.5537;2.8112;-0.4384;9.3848;-1.826;0.4487;0.3689;-0.4794;0.394;-1.8919;47.1;2.68;8.78;-8.85;327.74;2.56;-16.68;5.0;35.958572;-83.9247;816.27;NaN;;833.242;;0 / 0;31506;2022-11-01 17:37:46:365
4.276;-0.5587;8.8633;2.3385;0.4409;9.5136;1.8806;-0.8816;-0.8079;-0.2252;0.0805;-0.8989;40.1;-19.28;18.34;13.09;50.79;-2.99;-13.45;5.0;35.958572;-83.9247;816.27;NaN;;833.242;;0 / 0;32006;2022-11-01 17:37:46:865
2.4209;-1.3238;11.4891;3.2027;0.4653;9.2573;-0.9885;-0.2033;4.6511;-0.3615;0.4584;0.2172;12.7;-23.57;-4.29;13.88;98.6;-1.44;-19.6;5.0;35.958572;-83.9247;816.27;NaN;;833.242;;0 / 0;32506;2022-11-01 17:37:47:365
3.0745;0.9556;10.3705;2.7937;-0.1415;9.3992;0.6734;1.0691;0.693;-0.2055;0.1311;0.1557;10.0;-29.03;-12.36;4.26;112.63;0.83;-16.55;5.0;35.958572;-83.9247;816.27;NaN;;833.242;;0 / 0;33006;2022-11-01 17:37:47:865
2.5567;1.3507;6.067;2.6225;1.6922;9.2967;-0.5384;-1.4637;-0.1824;0.6744;0.1494;-0.137;12.7;-29.12;-11.46;0.45;109.35;-8.0;-15.64;5.0;35.958572;-83.9247;816.27;NaN;;833.242;;0 / 0;33506;2022-11-01 17:37:48:365
2.9133;1.13;14.1314;3.139;0.7496;9.2604;-0.0286;0.713;4.0972;-0.3483;0.0148;-0.2611;10.4;-24.82;-12.96;-7.26;118.44;-4.66;-17.22;5.0;35.958572;-83.9247;816.27;NaN;;833.242;;0 / 0;34006;2022-11-01 17:37:48:865
3.6383;1.031;9.2007;2.5763;0.5316;9.4472;0.833;-0.4691;-0.0386;0.1419;0.4333;1.3052;10.6;-21.21;-8.79;-11.61;114.8;-3.91;-16.01;5.0;35.958572;-83.9247;816.27;NaN;;833.242;;0 / 0;34506;2022-11-01 17:37:49:365
2.7652;0.9425;6.5007;2.2221;1.5555;9.4241;0.3466;-1.2489;-3.0194;0.0952;0.2941;-0.4498;11.9;-13.65;-7.44;-12.04;112.71;-9.13;-13.27;5.0;35.958572;-83.9247;816.27;NaN;;833.242;;0 / 0;35007;2022-11-01 17:37:49:866
1.3247;-0.4983;13.4665;2.7535;-0.3518;9.4056;-1.195;0.7083;3.6112;-0.7907;0.1066;-0.2492;13.9;-6.64;-5.66;-12.52;151.96;-1.04;-16.36;5.0;35.958572;-83.9247;816.27;NaN;;833.242;;0 / 0;35507;2022-11-01 17:37:50:366
1.3391;-1.145;9.856;0.3815;-1.2931;9.7135;0.8854;0.1652;0.1829;-0.1997;0.7629;1.6588;16.9;-8.7;0.77;-14.08;95.07;6.58;-4.8;5.0;35.958572;-83.9247;816.27;NaN;;833.242;;0 / 0;36007;2022-11-01 17:37:50:866
1.1483;-1.7809;6.1935;0.8637;0.2253;9.7659;-0.172;-2.5698;-3.0231;1.0214;-0.3618;-1.3186;16.9;-8.92;3.04;-4.65;71.07;-0.03;-2.68;5.0;35.958572;-83.9247;816.27;NaN;;833.242;;0 / 0;36507;2022-11-01 17:37:51:366
1.025;-0.9978;13.3508;2.0318;-0.9604;9.5457;-0.3602;0.253;3.1693;-0.0386;0.804;-0.421;22.0;-15.75;-0.99;-9.02;99.01;5.62;-12.02;5.0;35.958572;-83.9247;816.27;NaN;;833.242;;0 / 0;37007;2022-11-01 17:37:51:866
1.3349;0.05;8.502;1.4949;-1.0509;9.6349;-0.3206;0.3638;-0.6224;-0.1035;0.0365;1.1089;25.1;-22.74;-4.89;-17.18;109.15;5.61;-8.97;5.0;35.958572;-83.9247;816.27;NaN;;833.242;;0 / 0;37507;2022-11-01 17:37:52:366
2.5466;-1.7713;8.8361;1.7488;-0.0184;9.6494;0.7929;-1.7654;-0.9367;1.0247;0.3342;-0.8281;25.1;-32.96;10.89;-9.0;72.05;3.89;-10.73;5.0;35.958572;-83.9247;816.27;NaN;;833.242;;0 / 0;38007;2022-11-01 17:37:52:866
3.2318;-1.1566;12.824;3.0653;-1.0557;9.2553;0.0868;0.6321;1.9671;-0.7068;-0.3331;-0.8052;21.3;-42.73;2.36;-9.71;90.71;6.45;-16.68;5.0;35.958572;-83.9247;816.27;NaN;;833.242;;0 / 0;38507;2022-11-01 17:37:53:366
1.7246;-0.2665;8.7443;2.464;-0.7265;9.4642;-1.1014;0.2453;-0.9194;0.1455;0.4384;0.9183;24.1;-39.26;-10.84;-16.24;110.86;4.25;-14.59;5.0;35.958572;-83.9247;816.27;NaN;;833.242;;0 / 0;39007;2022-11-01 17:37:53:866
1.748;-0.4158;6.8847;2.3617;0.7947;9.4848;-0.0453;-2.0027;-1.4494;1.1496;0.4801;-0.7047;29.1;-42.32;-2.31;-18.69;92.48;-0.9;-15.08;5.0;35.958572;-83.9247;816.27;NaN;;833.242;;0 / 0;39507;2022-11-01 17:37:54:366
4.2951;0.6129;13.022;3.1796;-0.3103;9.2717;1.1674;0.5934;5.207;0.7747;-0.1578;-0.9001;26.4;-34.99;-6.04;-22.39;105.11;1.81;-18.93;5.0;35.958572;-83.9247;816.27;NaN;;833.242;;0 / 0;40006;2022-11-01 17:37:54:865
2.6231;0.4989;10.622;2.6436;-0.4722;9.4318;-0.5175;0.8824;1.1264;-0.4197;0.6467;0.6956;40.3;-27.34;-2.98;-27.11;100.66;0.9;-15.64;5.0;35.958572;-83.9247;816.27;NaN;;833.242;;0 / 0;40506;2022-11-01 17:37:55:365
1.9777;0.1854;7.989;1.2782;1.4356;9.6164;0.753;-1.3893;-1.0881;0.46;-0.3748;-0.9432;52.5;-17.91;1.76;-37.2;59.32;-8.42;-7.57;5.0;35.958572;-83.9247;816.27;NaN;;833.242;;0 / 0;41007;2022-11-01 17:37:55:866
2.5857;1.9837;11.359;3.3241;0.0617;9.2259;0.0409;0.7614;0.9136;-0.0137;0.1065;-1.1014;66.6;-16.07;1.41;-40.5;103.42;1.59;-20.72;5.0;35.958572;-83.9247;816.27;NaN;;833.242;;0 / 0;41507;2022-11-01 17:37:56:366
3.2103;0.8853;9.1454;3.1425;-0.7523;9.259;-0.2325;1.2116;1.0359;-0.5467;-0.006;0.2387;75.1;-17.31;8.34;-36.94;40.82;4.4;-18.75;5.0;35.958572;-83.9247;816.27;NaN;;833.242;;0 / 0;42007;2022-11-01 17:37:56:866
4.7097;-1.4746;8.4096;3.0436;1.2162;9.2427;1.4139;-1.3228;-2.5972;0.4455;-0.7019;-1.5189;64.4;-17.18;15.84;-34.82;15.3;-4.23;-18.31;5.0;35.958572;-83.9247;816.27;NaN;;833.242;;0 / 0;42506;2022-11-01 17:37:57:365
4.9134;0.4062;10.3397;5.1176;-0.4083;8.3554;-0.5178;1.0291;1.7463;-0.5276;-0.0064;-0.6715;46.1;-33.66;0.83;-28.5;93.18;2.39;-31.49;5.0;35.958572;-83.9247;816.27;NaN;;833.242;;0 / 0;43006;2022-11-01 17:37:57:865
3.9927;0.5701;8.5113;3.412;1.0908;9.129;0.4494;-1.0239;-2.406;-0.5855;0.6318;0.4719;46.1;-32.91;-15.22;-25.95;114.31;-8.88;-22.98;5.0;35.958572;-83.9247;816.27;NaN;;833.242;;0 / 0;43506;2022-11-01 17:37:58:365
2.4766;-1.0567;7.8583;2.4268;1.4498;9.3904;0.7563;-3.8938;3.908;-0.0395;-1.1885;-2.4816;66.9;-23.17;-27.67;-26.57;145.97;-8.5;-14.49;5.0;35.958572;-83.9247;816.27;NaN;;833.242;;0 / 0;44006;2022-11-01 17:37:58:865
2.5672;-0.294;11.9773;3.6147;0.4253;9.1062;-0.9347;-0.7268;2.9043;-0.7811;-0.7445;-1.3756;56.8;12.45;-40.46;-22.46;205.72;-2.97;-20.1;5.0;35.958572;-83.9247;816.27;NaN;;833.242;;0 / 0;44506;2022-11-01 17:37:59:365
0.845;-1.282;9.8474;1.9199;-0.9344;9.5714;-1.2534;-0.3037;0.4675;0.2117;0.729;1.2786;15.6;40.05;-28.16;-33.81;236.57;5.47;-11.34;5.0;35.958572;-83.9247;816.27;NaN;;833.242;;0 / 0;45007;2022-11-01 17:37:59:866
1.8123;-2.0668;10.0995;1.0499;-0.2964;9.7458;1.6257;-3.2098;4.8557;0.9646;-1.0186;-1.3452;18.2;25.54;-33.49;-27.06;217.1;4.93;-1.25;5.0;35.958572;-83.9247;816.27;NaN;;833.242;;0 / 0;45506;2022-11-01 17:38:00:365
2.0806;1.1031;9.6616;4.2609;-0.354;8.8255;-2.8243;1.3545;-1.0226;-1.4705;0.0931;0.1695;15.4;27.02;-21.04;-29.19;239.78;2.07;-25.77;5.0;35.958572;-83.9247;816.27;NaN;;833.242;;0 / 0;46006;2022-11-01 17:38:00:865
0.0837;-0.9927;6.1938;0.7477;1.3517;9.6842;-0.331;-2.1289;-2.4444;0.4705;0.0325;1.4595;18.8;28.88;-9.81;-30.6;259.23;-7.92;-4.42;5.0;35.958572;-83.9247;816.27;NaN;;833.242;;0 / 0;46506;2022-11-01 17:38:01:365
2.8881;-2.3043;14.3387;0.1373;-1.4863;9.6924;2.4815;-0.1622;4.7572;0.202;-0.175;-0.106;16.5;22.28;-18.58;-25.82;222.74;10.48;0.7;5.0;35.958572;-83.9247;816.27;NaN;;833.242;;0 / 0;47006;2022-11-01 17:38:01:865
0.131;0.3799;12.0036;1.5856;0.3531;9.6712;-0.8622;-0.1226;-0.246;-0.7626;-0.8701;-1.3986;16.6;25.22;-13.29;-22.39;247.77;-5.04;-7.71;5.0;35.958572;-83.9247;816.27;NaN;;833.242;;0 / 0;47506;2022-11-01 17:38:02:365
-0.0772;0.6338;6.1585;0.3945;2.6309;9.4389;-0.5218;-2.6217;-3.8739;-0.0434;0.5637;1.64;19.9;23.93;0.86;-23.66;285.92;-15.56;-2.39;5.0;35.958572;-83.9247;816.27;NaN;;833.242;;0 / 0;48006;2022-11-01 17:38:02:865
3.7956;1.8873;10.6466;1.2634;0.7632;9.6949;-0.6859;0.7436;1.5963;0.0012;-1.2138;0.3822;16.4;21.88;-9.04;-19.43;252.34;-4.46;-7.42;5.0;35.958572;-83.9247;816.27;NaN;;833.242;;0 / 0;48506;2022-11-01 17:38:03:365
1.6403;0.4487;7.7474;2.7215;1.5574;9.2918;-0.9928;-1.0994;-1.9202;-0.7788;-0.4122;-1.093;21.9;18.69;-4.18;-21.97;267.89;-11.09;-16.42;5.0;35.958572;-83.9247;816.27;NaN;;833.242;;0 / 0;49006;2022-11-01 17:38:03:865
-0.0625;-0.0861;7.7575;2.6674;0.384;9.4291;-3.7136;0.2787;-0.6554;0.4116;-0.1044;1.3992;38.2;15.36;7.22;-26.4;290.44;-2.27;-14.51;5.0;35.958572;-83.9247;816.27;NaN;;833.242;;0 / 0;49507;2022-11-01 17:38:04:366
2.5914;0.2916;10.7812;-0.6253;0.5865;9.7691;3.7055;0.5044;0.3375;1.1246;-0.3566;-0.7555;48.7;16.2;4.2;-22.35;290.23;-3.43;3.66;5.0;35.958572;-83.9247;816.27;NaN;;833.242;;0 / 1;50006;2022-11-01 17:38:04:865
2.0599;-0.5641;14.8887;3.3896;0.2404;9.1991;-1.4928;-0.0435;1.1494;-2.1747;-0.4038;0.0046;48.7;8.29;3.96;-25.11;293.54;-8.5;-20.11;5.0;35.958572;-83.9247;816.27;NaN;;833.242;;0 / 1;50507;2022-11-01 17:38:05:366
2.1912;0.2743;10.0974;1.3595;-0.7236;9.685;0.7023;0.9618;0.4936;-0.6665;0.1099;1.1831;98.8;1.63;8.93;-28.8;322.66;1.46;-8.6;5.0;35.958572;-83.9247;816.27;NaN;;833.242;;0 / 1;51007;2022-11-01 17:38:05:866
1.5544;-0.4355;6.7932;1.506;0.5304;9.6758;0.2809;-1.7844;-1.0124;0.6709;-0.3892;-1.0772;98.8;3.13;12.79;-29.53;333.97;-1.23;-7.04;5.0;35.958572;-83.9247;816.27;NaN;;833.242;;0 / 1;51507;2022-11-01 17:38:06:366
1.6738;-0.8955;14.0175;1.6542;-0.1018;9.6656;0.1716;-0.4062;4.5796;0.2398;-0.2178;-0.7888;110.4;-1.86;3.83;-36.36;311.49;0.59;-9.71;5.0;35.958572;-83.9247;816.27;NaN;;833.242;;0 / 1;52007;2022-11-01 17:38:06:866
2.6225;0.7158;11.5968;1.0542;-0.3591;9.7432;0.1531;1.7289;1.3518;-0.646;0.2459;0.4616;110.4;4.11;-3.99;-42.04;244.53;0.17;-6.39;5.0;35.958572;-83.9247;816.27;NaN;;833.242;;0 / 1;52506;2022-11-01 17:38:07:365
2.7009;-1.215;8.3034;1.7713;-0.1433;9.6443;0.7982;-1.007;-1.443;-0.507;-0.1694;-0.8046;122.8;9.28;-5.94;-46.67;251.05;-0.54;-9.0;5.0;35.958572;-83.9247;816.27;NaN;;833.242;;0 / 1;53006;2022-11-01 17:38:07:865
3.4223;-2.0309;14.5534;1.8467;0.3084;9.6263;1.3276;0.7956;3.697;-0.4574;-0.0074;-0.357;125.3;19.82;0.81;-50.4;273.03;-0.62;-9.93;5.0;35.958572;-83.9247;816.27;NaN;;833.242;;0 / 1;53506;2022-11-01 17:38:08:365
2.4209;1.9481;9.5536;2.1067;0.5085;9.5642;0.5485;1.3976;0.1858;0.1253;0.3076;-0.5396;112.1;21.77;-1.35;-52.18;272.43;-2.97;-12.42;5.0;35.958572;-83.9247;816.27;NaN;;833.242;;0 / 1;54006;2022-11-01 17:38:08:865
2.6118;0.3502;9.0248;1.5016;2.2455;9.4273;2.4696;-2.5082;-1.6939;-0.1484;-0.0378;-1.6995;96.2;22.2;-1.54;-44.93;283.01;-12.63;-10.35;5.0;35.958572;-83.9247;816.27;NaN;;833.242;;0 / 1;54506;2022-11-01 17:38:09:365
2.2528;1.282;12.4837;0.8416;1.885;9.5869;1.4638;-0.5411;2.8328;-0.4169;0.1583;-1.326;64.4;20.91;4.91;-41.76;296.61;-11.1;-5.69;5.0;35.958572;-83.9247;816.27;NaN;;833.242;;0 / 1;55006;2022-11-01 17:38:09:865
1.197;2.103;10.5;1.3948;1.0662;9.6482;-0.6969;1.2678;-0.6224;-0.413;-0.3034;-0.6532;40.3;17.72;3.45;-42.56;287.84;-6.89;-8.47;5.0;35.958572;-83.9247;816.27;NaN;;833.242;;0 / 1;55506;2022-11-01 17:38:10:365
2.3106;1.6035;8.318;1.8444;2.473;9.3087;0.4792;-1.1507;-1.2702;-0.247;-0.2379;-0.7232;31.7;11.34;-5.04;-45.99;286.92;-14.61;-11.21;5.0;35.958572;-83.9247;816.27;NaN;;833.242;;0 / 1;56006;2022-11-01 17:38:10:865
0.4475;0.6042;8.3423;2.4292;1.3991;9.3974;-0.4785;-2.1854;3.7269;0.1675;-0.2523;-0.0233;22.9;12.66;-6.6;-50.55;268.26;-7.69;-14.6;5.0;35.958572;-83.9247;816.27;NaN;;833.242;;0 / 1;56506;2022-11-01 17:38:11:365
1.6487;1.051;11.9901;1.6636;0.6857;9.6402;-0.321;0.834;1.1419;0.0969;-0.2455;0.3813;22.9;12.23;-7.69;-52.35;257.61;-4.01;-9.79;5.0;35.958572;-83.9247;816.27;NaN;;833.242;;0 / 1;57006;2022-11-01 17:38:11:865
2.589;0.6323;7.3959;1.821;0.7835;9.6042;0.3883;-0.3404;-1.9785;-0.0047;-0.3086;-0.1182;22.9;7.29;-5.83;-51.21;264.88;-5.34;-10.02;5.0;35.958572;-83.9247;816.27;NaN;;833.242;;0 / 1;57506;2022-11-01 17:38:12:365
1.4028;-0.8746;11.9545;2.1483;0.391;9.5605;-0.8105;-1.2299;4.3543;0.387;-0.5944;0.0417;18.3;3.11;-1.91;-50.72;269.84;-2.29;-12.66;5.0;35.958572;-83.9247;816.27;NaN;;833.242;;0 / 1;58006;2022-11-01 17:38:12:865
3.2498;-0.2025;12.8432;0.7739;-0.8437;9.7396;1.9732;1.7228;1.6117;-0.2567;0.3431;0.8401;14.1;-1.26;2.51;-49.91;250.19;4.66;-4.54;5.0;35.958572;-83.9247;816.27;NaN;;833.242;;0 / 1;58506;2022-11-01 17:38:13:365
2.0524;-0.1929;9.0347;1.866;-0.2548;9.6241;0.2086;-0.3155;-0.9826;-0.1688;-0.1547;-0.7876;18.8;-5.83;10.46;-47.53;339.63;1.49;-10.97;5.0;35.958572;-83.9247;816.27;NaN;;833.242;;0 / 1;59006;2022-11-01 17:38:13:865
-0.5746;-1.4602;8.0545;2.0028;-0.1262;9.5991;-2.0688;-1.0485;-1.5548;-0.0125;-0.3673;0.2782;14.2;-12.75;8.53;-48.22;14.84;-0.19;-12.35;5.0;35.958572;-83.9247;816.27;NaN;;833.242;;0 / 1;59506;2022-11-01 17:38:14:365
1.5787;-0.1744;10.8087;1.4169;-0.7549;9.6743;0.0425;0.6482;0.5954;0.0558;-0.1381;0.1979;16.5;-13.67;15.24;-47.66;31.75;4.41;-8.33;5.0;35.958572;-83.9247;816.27;NaN;;833.242;;0 / 1;60006;2022-11-01 17:38:14:865
2.6871;6.0E-4;8.5187;1.8985;-0.0384;9.6211;0.6856;-0.0658;-1.8522;-0.1398;0.0024;-0.3121;20.5;-12.88;15.04;-46.99;14.67;-0.55;-10.7;5.0;35.958572;-83.9247;816.27;NaN;;833.242;;0 / 1;60506;2022-11-01 17:38:15:365
2.3922;0.2581;11.3297;2.0086;-0.1494;9.5976;0.2235;0.9569;0.7682;0.0136;-0.0484;-0.3825;23.0;-14.47;13.41;-46.22;19.23;0.87;-11.82;5.0;35.958572;-83.9247;816.27;NaN;;833.242;;0 / 1;61006;2022-11-01 17:38:15:865
0.9969;-0.6428;8.9237;2.0086;-0.1494;9.5976;0.2235;0.9569;0.7682;0.0136;-0.0484;-0.3825;23.0;-14.47;13.41;-46.22;19.23;0.87;-11.82;5.0;35.958572;-83.9247;816.27;NaN;;833.242;;0 / 1;61506;2022-11-01 17:38:16:365
1.3283;-0.9571;7.7139;2.0086;-0.1494;9.5976;0.2235;0.9569;0.7682;0.0136;-0.0484;-0.3825;23.0;-14.47;13.41;-46.22;19.23;0.87;-11.82;5.0;35.958572;-83.9247;816.27;NaN;;833.242;;0 / 1;62007;2022-11-01 17:38:16:866
2.3097;0.9341;10.7946;2.0086;-0.1494;9.5976;0.2235;0.9569;0.7682;0.0136;-0.0484;-0.3825;30.4;-14.47;13.41;-46.22;19.23;0.87;-11.82;5.0;35.958572;-83.9247;816.27;NaN;;833.242;;0 / 1;62507;2022-11-01 17:38:17:366
1.2781;-0.4669;8.1042;2.0086;-0.1494;9.5976;0.2235;0.9569;0.7682;0.0136;-0.0484;-0.3825;30.4;-14.47;13.41;-46.22;19.23;0.87;-11.82;5.0;35.958572;-83.9247;816.27;NaN;;833.242;;0 / 1;63006;2022-11-01 17:38:17:865
2.7742;0.8509;10.5398;2.0086;-0.1494;9.5976;0.2235;0.9569;0.7682;0.0136;-0.0484;-0.3825;33.9;-14.47;13.41;-46.22;19.23;0.87;-11.82;5.0;35.958572;-83.9247;816.27;NaN;;833.242;;0 / 1;63506;2022-11-01 17:38:18:365
4.005;-0.909;9.6727;2.0086;-0.1494;9.5976;0.2235;0.9569;0.7682;0.0136;-0.0484;-0.3825;33.9;-14.47;13.41;-46.22;19.23;0.87;-11.82;5.0;35.958572;-83.9247;816.27;NaN;;833.242;;0 / 1;64006;2022-11-01 17:38:18:865
1.416;-2.4565;10.2162;2.0086;-0.1494;9.5976;0.2235;0.9569;0.7682;0.0136;-0.0484;-0.3825;42.3;-14.47;13.41;-46.22;19.23;0.87;-11.82;5.0;35.958572;-83.9247;816.27;NaN;;833.242;;0 / 1;64506;2022-11-01 17:38:19:365
2.1443;1.1868;9.1394;2.0086;-0.1494;9.5976;0.2235;0.9569;0.7682;0.0136;-0.0484;-0.3825;52.3;-14.47;13.41;-46.22;19.23;0.87;-11.82;5.0;35.958572;-83.9247;816.27;NaN;;833.242;;0 / 1;65006;2022-11-01 17:38:19:865
3.3176;-0.1328;7.1291;2.0086;-0.1494;9.5976;0.2235;0.9569;0.7682;0.0136;-0.0484;-0.3825;52.3;-14.47;13.41;-46.22;19.23;0.87;-11.82;5.0;35.958572;-83.9247;816.27;NaN;;833.242;;0 / 1;65507;2022-11-01 17:38:20:366
0.7196;1.1994;10.2108;2.0086;-0.1494;9.5976;0.2235;0.9569;0.7682;0.0136;-0.0484;-0.3825;61.0;-14.47;13.41;-46.22;19.23;0.87;-11.82;5.0;35.958572;-83.9247;816.27;NaN;;833.242;;0 / 1;66006;2022-11-01 17:38:20:865
0.9993;0.1657;8.2152;2.0086;-0.1494;9.5976;0.2235;0.9569;0.7682;0.0136;-0.0484;-0.3825;55.2;-14.47;13.41;-46.22;19.23;0.87;-11.82;5.0;35.958572;-83.9247;816.27;NaN;;833.242;;0 / 1;66506;2022-11-01 17:38:21:365
1.433;0.7977;9.6697;2.0086;-0.1494;9.5976;0.2235;0.9569;0.7682;0.0136;-0.0484;-0.3825;55.2;-14.47;13.41;-46.22;19.23;0.87;-11.82;5.0;35.958572;-83.9247;816.27;NaN;;833.242;;0 / 1;67006;2022-11-01 17:38:21:865
1.319;1.5156;10.4139;2.0086;-0.1494;9.5976;0.2235;0.9569;0.7682;0.0136;-0.0484;-0.3825;55.2;-14.47;13.41;-46.22;19.23;0.87;-11.82;5.0;35.958572;-83.9247;816.27;NaN;;833.242;;0 / 1;67506;2022-11-01 17:38:22:365
1.6274;0.588;9.0841;2.0086;-0.1494;9.5976;0.2235;0.9569;0.7682;0.0136;-0.0484;-0.3825;27.6;-14.47;13.41;-46.22;19.23;0.87;-11.82;5.0;35.958572;-83.9247;816.27;NaN;;833.242;;0 / 1;68007;2022-11-01 17:38:22:866
2.2528;-1.6902;8.7467;2.0086;-0.1494;9.5976;0.2235;0.9569;0.7682;0.0136;-0.0484;-0.3825;24.2;-14.47;13.41;-46.22;19.23;0.87;-11.82;5.0;35.958572;-83.9247;816.27;NaN;;833.242;;0 / 1;68507;2022-11-01 17:38:23:366
1.8861;-0.0829;12.3885;2.0086;-0.1494;9.5976;0.2235;0.9569;0.7682;0.0136;-0.0484;-0.3825;19.7;-14.47;13.41;-46.22;19.23;0.87;-11.82;5.0;35.958572;-83.9247;816.27;NaN;;833.242;;0 / 1;69006;2022-11-01 17:38:23:865
-0.3461;-0.7496;6.4116;2.0086;-0.1494;9.5976;0.2235;0.9569;0.7682;0.0136;-0.0484;-0.3825;22.8;-14.47;13.41;-46.22;19.23;0.87;-11.82;5.0;35.958572;-83.9247;816.27;NaN;;833.242;;0 / 1;69506;2022-11-01 17:38:24:365
1.8936;-1.7079;10.0905;2.0086;-0.1494;9.5976;0.2235;0.9569;0.7682;0.0136;-0.0484;-0.3825;24.0;-14.47;13.41;-46.22;19.23;0.87;-11.82;5.0;35.958572;-83.9247;816.27;NaN;;833.242;;0 / 1;70006;2022-11-01 17:38:24:865
1.7136;1.0008;8.0447;2.0086;-0.1494;9.5976;0.2235;0.9569;0.7682;0.0136;-0.0484;-0.3825;19.4;-14.47;13.41;-46.22;19.23;0.87;-11.82;5.0;35.958572;-83.9247;816.27;NaN;;833.242;;0 / 1;70507;2022-11-01 17:38:25:366
-0.5545;0.2312;8.2205;2.0086;-0.1494;9.5976;0.2235;0.9569;0.7682;0.0136;-0.0484;-0.3825;24.5;-14.47;13.41;-46.22;19.23;0.87;-11.82;5.0;35.958572;-83.9247;816.27;NaN;;833.242;;0 / 1;71007;2022-11-01 17:38:25:866
-1.0352;-0.0215;12.2405;2.0086;-0.1494;9.5976;0.2235;0.9569;0.7682;0.0136;-0.0484;-0.3825;27.9;-14.47;13.41;-46.22;19.23;0.87;-11.82;5.0;35.958572;-83.9247;816.27;NaN;;833.242;;0 / 1;71506;2022-11-01 17:38:26:365
1.1234;1.0896;9.5303;2.0086;-0.1494;9.5976;0.2235;0.9569;0.7682;0.0136;-0.0484;-0.3825;27.9;-14.47;13.41;-46.22;19.23;0.87;-11.82;5.0;35.958572;-83.9247;816.27;NaN;;833.242;;0 / 1;72007;2022-11-01 17:38:26:866
-1.2374;-0.0422;8.9004;2.0086;-0.1494;9.5976;0.2235;0.9569;0.7682;0.0136;-0.0484;-0.3825;42.7;-14.47;13.41;-46.22;19.23;0.87;-11.82;5.0;35.958572;-83.9247;816.27;NaN;;833.242;;0 / 1;72506;2022-11-01 17:38:27:365
1.8329;-0.8527;12.3628;2.0086;-0.1494;9.5976;0.2235;0.9569;0.7682;0.0136;-0.0484;-0.3825;56.4;-14.47;13.41;-46.22;19.23;0.87;-11.82;5.0;35.958572;-83.9247;816.27;NaN;;833.242;;0 / 1;73006;2022-11-01 17:38:27:865
1.1402;0.4304;7.6334;2.0086;-0.1494;9.5976;0.2235;0.9569;0.7682;0.0136;-0.0484;-0.3825;78.2;-14.47;13.41;-46.22;19.23;0.87;-11.82;5.0;35.958572;-83.9247;816.27;NaN;;833.242;;0 / 1;73507;2022-11-01 17:38:28:366
-1.1492;0.9571;9.2384;2.0086;-0.1494;9.5976;0.2235;0.9569;0.7682;0.0136;-0.0484;-0.3825;108.7;-14.47;13.41;-46.22;19.23;0.87;-11.82;5.0;35.958572;-83.9247;816.27;NaN;;833.242;;0 / 1;74006;2022-11-01 17:38:28:865
-1.3286;2.088;10.6531;2.0086;-0.1494;9.5976;0.2235;0.9569;0.7682;0.0136;-0.0484;-0.3825;108.7;-14.47;13.41;-46.22;19.23;0.87;-11.82;5.0;35.958572;-83.9247;816.27;NaN;;833.242;;0 / 1;74506;2022-11-01 17:38:29:365
0.9266;0.9156;8.1951;2.0086;-0.1494;9.5976;0.2235;0.9569;0.7682;0.0136;-0.0484;-0.3825;108.7;-14.47;13.41;-46.22;19.23;0.87;-11.82;5.0;35.958572;-83.9247;816.27;NaN;;833.242;;0 / 1;75006;2022-11-01 17:38:29:865
-0.1648;2.1287;11.589;2.0086;-0.1494;9.5976;0.2235;0.9569;0.7682;0.0136;-0.0484;-0.3825;121.9;-14.47;13.41;-46.22;19.23;0.87;-11.82;5.0;35.958572;-83.9247;816.27;NaN;;833.242;;0 / 1;75506;2022-11-01 17:38:30:365
-1.2517;2.4036;7.9038;2.0086;-0.1494;9.5976;0.2235;0.9569;0.7682;0.0136;-0.0484;-0.3825;121.9;-14.47;13.41;-46.22;19.23;0.87;-11.82;5.0;35.958572;-83.9247;816.27;NaN;;833.242;;0 / 1;76006;2022-11-01 17:38:30:865
-0.1992;0.4262;8.8657;2.0086;-0.1494;9.5976;0.2235;0.9569;0.7682;0.0136;-0.0484;-0.3825;109.4;-14.47;13.41;-46.22;19.23;0.87;-11.82;5.0;35.958572;-83.9247;816.27;NaN;;833.242;;0 / 1;76507;2022-11-01 17:38:31:366
0.6583;2.2499;10.1324;2.0086;-0.1494;9.5976;0.2235;0.9569;0.7682;0.0136;-0.0484;-0.3825;144.1;-14.47;13.41;-46.22;19.23;0.87;-11.82;5.0;35.958572;-83.9247;816.27;NaN;;833.242;;0 / 1;77006;2022-11-01 17:38:31:865
0.236;2.5798;8.3524;2.0086;-0.1494;9.5976;0.2235;0.9569;0.7682;0.0136;-0.0484;-0.3825;144.1;-14.47;13.41;-46.22;19.23;0.87;-11.82;5.0;35.958572;-83.9247;816.27;NaN;;833.242;;0 / 1;77507;2022-11-01 17:38:32:366
2.3088;0.6368;11.1694;2.0086;-0.1494;9.5976;0.2235;0.9569;0.7682;0.0136;-0.0484;-0.3825;130.7;-14.47;13.41;-46.22;19.23;0.87;-11.82;5.0;35.958572;-83.9247;816.27;NaN;;833.242;;0 / 1;78006;2022-11-01 17:38:32:865
0.7364;1.879;10.6388;2.0086;-0.1494;9.5976;0.2235;0.9569;0.7682;0.0136;-0.0484;-0.3825;95.5;-14.47;13.41;-46.22;19.23;0.87;-11.82;5.0;35.958572;-83.9247;816.27;NaN;;833.242;;0 / 1;78507;2022-11-01 17:38:33:366
1.844;1.0271;8.4015;2.0086;-0.1494;9.5976;0.2235;0.9569;0.7682;0.0136;-0.0484;-0.3825;72.6;-14.47;13.41;-46.22;19.23;0.87;-11.82;5.0;35.958572;-83.9247;816.27;NaN;;833.242;;0 / 1;79006;2022-11-01 17:38:33:865
1.3905;-0.1609;9.4346;2.0086;-0.1494;9.5976;0.2235;0.9569;0.7682;0.0136;-0.0484;-0.3825;52.6;-14.47;13.41;-46.22;19.23;0.87;-11.82;5.0;35.958572;-83.9247;816.27;NaN;;833.242;;0 / 1;79506;2022-11-01 17:38:34:365
1.8168;0.2016;10.0367;2.0086;-0.1494;9.5976;0.2235;0.9569;0.7682;0.0136;-0.0484;-0.3825;40.3;-14.47;13.41;-46.22;19.23;0.87;-11.82;5.0;35.958572;-83.9247;816.27;NaN;;833.242;;0 / 1;80006;2022-11-01 17:38:34:865
1.3259;1.5371;8.0046;2.0086;-0.1494;9.5976;0.2235;0.9569;0.7682;0.0136;-0.0484;-0.3825;32.7;-14.47;13.41;-46.22;19.23;0.87;-11.82;5.0;35.958572;-83.9247;816.27;NaN;;833.242;;0 / 1;80507;2022-11-01 17:38:35:366
1.6744;-1.5987;9.8919;2.0086;-0.1494;9.5976;0.2235;0.9569;0.7682;0.0136;-0.0484;-0.3825;26.0;-14.47;13.41;-46.22;19.23;0.87;-11.82;5.0;35.958572;-83.9247;816.27;NaN;;833.242;;0 / 1;81006;2022-11-01 17:38:35:865
0.02;0.2216;11.6396;2.0086;-0.1494;9.5976;0.2235;0.9569;0.7682;0.0136;-0.0484;-0.3825;25.6;-14.47;13.41;-46.22;19.23;0.87;-11.82;5.0;35.958572;-83.9247;816.27;NaN;;833.242;;0 / 1;81507;2022-11-01 17:38:36:366
0.6679;0.8183;9.0592;2.0086;-0.1494;9.5976;0.2235;0.9569;0.7682;0.0136;-0.0484;-0.3825;25.6;-14.47;13.41;-46.22;19.23;0.87;-11.82;5.0;35.958572;-83.9247;816.27;NaN;;833.242;;0 / 1;82006;2022-11-01 17:38:36:865
0.8088;-0.6039;11.7197;2.0086;-0.1494;9.5976;0.2235;0.9569;0.7682;0.0136;-0.0484;-0.3825;23.0;-14.47;13.41;-46.22;19.23;0.87;-11.82;5.0;35.958572;-83.9247;816.27;NaN;;833.242;;0 / 1;82507;2022-11-01 17:38:37:366
0.3212;2.147;10.9271;2.0086;-0.1494;9.5976;0.2235;0.9569;0.7682;0.0136;-0.0484;-0.3825;23.0;-14.47;13.41;-46.22;19.23;0.87;-11.82;5.0;35.958572;-83.9247;816.27;NaN;;833.242;;0 / 1;83006;2022-11-01 17:38:37:865
-0.6781;1.0065;7.3591;2.0086;-0.1494;9.5976;0.2235;0.9569;0.7682;0.0136;-0.0484;-0.3825;23.0;-14.47;13.41;-46.22;19.23;0.87;-11.82;5.0;35.958572;-83.9247;816.27;NaN;;833.242;;0 / 1;83507;2022-11-01 17:38:38:366
-0.015;1.6992;11.2962;2.0086;-0.1494;9.5976;0.2235;0.9569;0.7682;0.0136;-0.0484;-0.3825;17.8;-14.47;13.41;-46.22;19.23;0.87;-11.82;5.0;35.958572;-83.9247;816.27;NaN;;833.242;;0 / 1;84006;2022-11-01 17:38:38:865
0.9212;0.0497;8.2253;2.0086;-0.1494;9.5976;0.2235;0.9569;0.7682;0.0136;-0.0484;-0.3825;19.3;-14.47;13.41;-46.22;19.23;0.87;-11.82;5.0;35.958572;-83.9247;816.27;NaN;;833.242;;0 / 1;84507;2022-11-01 17:38:39:366
-1.1043;0.8964;10.9184;2.0086;-0.1494;9.5976;0.2235;0.9569;0.7682;0.0136;-0.0484;-0.3825;25.6;-14.47;13.41;-46.22;19.23;0.87;-11.82;5.0;35.958572;-83.9247;816.27;NaN;;833.242;;0 / 1;85006;2022-11-01 17:38:39:865
-0.0263;1.9038;8.7769;2.0086;-0.1494;9.5976;0.2235;0.9569;0.7682;0.0136;-0.0484;-0.3825;25.6;-14.47;13.41;-46.22;19.23;0.87;-11.82;5.0;35.958572;-83.9247;816.27;NaN;;833.242;;0 / 1;85506;2022-11-01 17:38:40:365
0.172;-0.2309;9.4313;2.0086;-0.1494;9.5976;0.2235;0.9569;0.7682;0.0136;-0.0484;-0.3825;22.6;-14.47;13.41;-46.22;19.23;0.87;-11.82;5.0;35.958572;-83.9247;816.27;NaN;;833.242;;0 / 1;86007;2022-11-01 17:38:40:866
0.4564;1.1764;8.945;2.0086;-0.1494;9.5976;0.2235;0.9569;0.7682;0.0136;-0.0484;-0.3825;32.5;-14.47;13.41;-46.22;19.23;0.87;-11.82;5.0;35.958572;-83.9247;816.27;NaN;;833.242;;0 / 1;86506;2022-11-01 17:38:41:365
-0.7313;0.4845;8.231;2.0086;-0.1494;9.5976;0.2235;0.9569;0.7682;0.0136;-0.0484;-0.3825;32.5;-14.47;13.41;-46.22;19.23;0.87;-11.82;5.0;35.958572;-83.9247;816.27;NaN;;833.242;;0 / 1;87007;2022-11-01 17:38:41:866
0.7469;1.1447;11.1814;2.0086;-0.1494;9.5976;0.2235;0.9569;0.7682;0.0136;-0.0484;-0.3825;23.0;-14.47;13.41;-46.22;19.23;0.87;-11.82;5.0;35.958572;-83.9247;816.27;NaN;;833.242;;0 / 1;87506;2022-11-01 17:38:42:365
1.5491;0.5827;9.0745;2.0086;-0.1494;9.5976;0.2235;0.9569;0.7682;0.0136;-0.0484;-0.3825;34.8;-14.47;13.41;-46.22;19.23;0.87;-11.82;5.0;35.958572;-83.9247;816.27;NaN;;833.242;;0 / 1;88007;2022-11-01 17:38:42:866
0.8103;2.3255;9.9227;2.0086;-0.1494;9.5976;0.2235;0.9569;0.7682;0.0136;-0.0484;-0.3825;38.7;-14.47;13.41;-46.22;19.23;0.87;-11.82;5.0;35.958572;-83.9247;816.27;NaN;;833.242;;0 / 1;88506;2022-11-01 17:38:43:365
0.4573;1.3125;8.4512;2.0086;-0.1494;9.5976;0.2235;0.9569;0.7682;0.0136;-0.0484;-0.3825;38.7;-14.47;13.41;-46.22;19.23;0.87;-11.82;5.0;35.958572;-83.9247;816.27;NaN;;833.242;;0 / 1;89007;2022-11-01 17:38:43:866
0.612;1.3439;10.5054;2.0086;-0.1494;9.5976;0.2235;0.9569;0.7682;0.0136;-0.0484;-0.3825;44.5;-14.47;13.41;-46.22;19.23;0.87;-11.82;5.0;35.958572;-83.9247;816.27;NaN;;833.242;;0 / 1;89506;2022-11-01 17:38:44:365
1.4821;0.3003;9.4624;2.0086;-0.1494;9.5976;0.2235;0.9569;0.7682;0.0136;-0.0484;-0.3825;38.1;-14.47;13.41;-46.22;19.23;0.87;-11.82;5.0;35.958572;-83.9247;816.27;NaN;;833.242;;0 / 1;90007;2022-11-01 17:38:44:866
-0.3802;-0.0024;8.3871;2.0086;-0.1494;9.5976;0.2235;0.9569;0.7682;0.0136;-0.0484;-0.3825;43.5;-14.47;13.41;-46.22;19.23;0.87;-11.82;5.0;35.958572;-83.9247;816.27;NaN;;833.242;;0 / 1;90507;2022-11-01 17:38:45:366
0.4271;1.436;9.6583;2.0086;-0.1494;9.5976;0.2235;0.9569;0.7682;0.0136;-0.0484;-0.3825;43.5;-14.47;13.41;-46.22;19.23;0.87;-11.82;5.0;35.958572;-83.9247;816.27;NaN;;833.242;;0 / 1;91006;2022-11-01 17:38:45:865
1.3947;0.731;8.368;2.0086;-0.1494;9.5976;0.2235;0.9569;0.7682;0.0136;-0.0484;-0.3825;50.5;-14.47;13.41;-46.22;19.23;0.87;-11.82;5.0;35.958572;-83.9247;816.27;NaN;;833.242;;0 / 1;91507;2022-11-01 17:38:46:366
0.6903;1.1447;9.0616;2.0086;-0.1494;9.5976;0.2235;0.9569;0.7682;0.0136;-0.0484;-0.3825;56.3;-14.47;13.41;-46.22;19.23;0.87;-11.82;5.0;35.958572;-83.9247;816.27;NaN;;833.242;;0 / 1;92006;2022-11-01 17:38:46:865
0.1307;-1.0774;7.2129;2.0086;-0.1494;9.5976;0.2235;0.9569;0.7682;0.0136;-0.0484;-0.3825;51.1;-14.47;13.41;-46.22;19.23;0.87;-11.82;5.0;35.958572;-83.9247;816.27;NaN;;833.242;;0 / 1;92507;2022-11-01 17:38:47:366
1.5356;0.7268;10.3642;2.0086;-0.1494;9.5976;0.2235;0.9569;0.7682;0.0136;-0.0484;-0.3825;53.1;-14.47;13.41;-46.22;19.23;0.87;-11.82;5.0;35.958572;-83.9247;816.27;NaN;;833.242;;0 / 1;93006;2022-11-01 17:38:47:865
1.6331;-0.4947;9.813;2.0086;-0.1494;9.5976;0.2235;0.9569;0.7682;0.0136;-0.0484;-0.3825;47.9;-14.47;13.41;-46.22;19.23;0.87;-11.82;5.0;35.958572;-83.9247;816.27;NaN;;833.242;;0 / 1;93507;2022-11-01 17:38:48:366
3.7807;-0.396;13.8715;2.0086;-0.1494;9.5976;0.2235;0.9569;0.7682;0.0136;-0.0484;-0.3825;22.1;-14.47;13.41;-46.22;19.23;0.87;-11.82;5.0;35.958572;-83.9247;816.27;NaN;;833.242;;0 / 1;94006;2022-11-01 17:38:48:865
2.5023;1.0137;9.2354;2.0086;-0.1494;9.5976;0.2235;0.9569;0.7682;0.0136;-0.0484;-0.3825;22.1;-14.47;13.41;-46.22;19.23;0.87;-11.82;5.0;35.958572;-83.9247;816.27;NaN;;833.242;;0 / 1;94507;2022-11-01 17:38:49:366
3.2384;-1.1315;8.286;2.0086;-0.1494;9.5976;0.2235;0.9569;0.7682;0.0136;-0.0484;-0.3825;22.1;-14.47;13.41;-46.22;19.23;0.87;-11.82;5.0;35.958572;-83.9247;816.27;NaN;;833.242;;0 / 1;95006;2022-11-01 17:38:49:865
3.2728;0.9915;8.8696;2.0086;-0.1494;9.5976;0.2235;0.9569;0.7682;0.0136;-0.0484;-0.3825;19.4;-14.47;13.41;-46.22;19.23;0.87;-11.82;5.0;35.958572;-83.9247;816.27;NaN;;833.242;;0 / 1;95507;2022-11-01 17:38:50:366
0.1905;-0.0437;7.925;2.0086;-0.1494;9.5976;0.2235;0.9569;0.7682;0.0136;-0.0484;-0.3825;28.0;-14.47;13.41;-46.22;19.23;0.87;-11.82;5.0;35.958572;-83.9247;816.27;NaN;;833.242;;0 / 1;96006;2022-11-01 17:38:50:865
0.047;0.7621;10.7692;2.0086;-0.1494;9.5976;0.2235;0.9569;0.7682;0.0136;-0.0484;-0.3825;28.0;-14.47;13.41;-46.22;19.23;0.87;-11.82;5.0;35.958572;-83.9247;816.27;NaN;;833.242;;0 / 1;96506;2022-11-01 17:38:51:365
1.3068;-0.6933;8.5086;2.0086;-0.1494;9.5976;0.2235;0.9569;0.7682;0.0136;-0.0484;-0.3825;28.0;-14.47;13.41;-46.22;19.23;0.87;-11.82;5.0;35.958572;-83.9247;816.27;NaN;;833.242;;0 / 1;97007;2022-11-01 17:38:51:866
-0.9969;-0.8551;13.104;2.0086;-0.1494;9.5976;0.2235;0.9569;0.7682;0.0136;-0.0484;-0.3825;38.2;-14.47;13.41;-46.22;19.23;0.87;-11.82;5.0;35.958572;-83.9247;816.27;NaN;;833.242;;0 / 1;97506;2022-11-01 17:38:52:365
0.3078;0.6111;11.0976;2.0086;-0.1494;9.5976;0.2235;0.9569;0.7682;0.0136;-0.0484;-0.3825;47.9;-14.47;13.41;-46.22;19.23;0.87;-11.82;5.0;35.958572;-83.9247;816.27;NaN;;833.242;;0 / 1;98007;2022-11-01 17:38:52:866
1.5108;-0.1256;8.0342;2.0086;-0.1494;9.5976;0.2235;0.9569;0.7682;0.0136;-0.0484;-0.3825;55.8;-14.47;13.41;-46.22;19.23;0.87;-11.82;5.0;35.958572;-83.9247;816.27;NaN;;833.242;;0 / 1;98507;2022-11-01 17:38:53:366
1.844;0.4878;13.5066;2.0086;-0.1494;9.5976;0.2235;0.9569;0.7682;0.0136;-0.0484;-0.3825;81.6;-14.47;13.41;-46.22;19.23;0.87;-11.82;5.0;35.958572;-83.9247;816.27;NaN;;833.242;;0 / 1;99006;2022-11-01 17:38:53:865
0.8115;1.7662;7.9651;2.0086;-0.1494;9.5976;0.2235;0.9569;0.7682;0.0136;-0.0484;-0.3825;112.8;-14.47;13.41;-46.22;19.23;0.87;-11.82;5.0;35.958572;-83.9247;816.27;NaN;;833.242;;0 / 1;99507;2022-11-01 17:38:54:366
1.9493;-0.7277;8.7873;2.0086;-0.1494;9.5976;0.2235;0.9569;0.7682;0.0136;-0.0484;-0.3825;133.5;-14.47;13.41;-46.22;19.23;0.87;-11.82;5.0;35.958572;-83.9247;816.27;NaN;;833.242;;0 / 1;100007;2022-11-01 17:38:54:866
2.2519;0.5812;9.3604;2.0086;-0.1494;9.5976;0.2235;0.9569;0.7682;0.0136;-0.0484;-0.3825;175.1;-14.47;13.41;-46.22;19.23;0.87;-11.82;5.0;35.958572;-83.9247;816.27;NaN;;833.242;;0 / 1;100507;2022-11-01 17:38:55:366
-0.2453;0.0724;8.1485;2.0086;-0.1494;9.5976;0.2235;0.9569;0.7682;0.0136;-0.0484;-0.3825;196.5;-14.47;13.41;-46.22;19.23;0.87;-11.82;5.0;35.958572;-83.9247;816.27;NaN;;833.242;;0 / 1;101007;2022-11-01 17:38:55:866
1.5993;-0.149;11.0336;2.0086;-0.1494;9.5976;0.2235;0.9569;0.7682;0.0136;-0.0484;-0.3825;196.5;-14.47;13.41;-46.22;19.23;0.87;-11.82;5.0;35.958572;-83.9247;816.27;NaN;;833.242;;0 / 1;101507;2022-11-01 17:38:56:366
1.7578;-0.4253;8.455;2.0086;-0.1494;9.5976;0.2235;0.9569;0.7682;0.0136;-0.0484;-0.3825;233.0;-14.47;13.41;-46.22;19.23;0.87;-11.82;5.0;35.958572;-83.9247;816.27;NaN;;833.242;;0 / 1;102006;2022-11-01 17:38:56:865
1.1372;0.3251;11.5505;2.0086;-0.1494;9.5976;0.2235;0.9569;0.7682;0.0136;-0.0484;-0.3825;233.0;-14.47;13.41;-46.22;19.23;0.87;-11.82;5.0;35.958572;-83.9247;816.27;NaN;;833.242;;0 / 1;102507;2022-11-01 17:38:57:366
0.6464;1.8338;8.0055;2.0086;-0.1494;9.5976;0.2235;0.9569;0.7682;0.0136;-0.0484;-0.3825;211.6;-14.47;13.41;-46.22;19.23;0.87;-11.82;5.0;35.958572;-83.9247;816.27;NaN;;833.242;;0 / 1;103006;2022-11-01 17:38:57:865
3.099;-0.0024;8.8193;2.0086;-0.1494;9.5976;0.2235;0.9569;0.7682;0.0136;-0.0484;-0.3825;211.6;-14.47;13.41;-46.22;19.23;0.87;-11.82;5.0;35.958572;-83.9247;816.27;NaN;;833.242;;0 / 1;103507;2022-11-01 17:38:58:366
2.7452;0.7032;9.4654;2.0086;-0.1494;9.5976;0.2235;0.9569;0.7682;0.0136;-0.0484;-0.3825;160.3;-14.47;13.41;-46.22;19.23;0.87;-11.82;5.0;35.958572;-83.9247;816.27;NaN;;833.242;;0 / 1;104007;2022-11-01 17:38:58:866
2.5397;0.6981;8.6704;2.0086;-0.1494;9.5976;0.2235;0.9569;0.7682;0.0136;-0.0484;-0.3825;140.2;-14.47;13.41;-46.22;19.23;0.87;-11.82;5.0;35.958572;-83.9247;816.27;NaN;;833.242;;0 / 1;104507;2022-11-01 17:38:59:366
1.9175;1.3645;10.1979;2.0086;-0.1494;9.5976;0.2235;0.9569;0.7682;0.0136;-0.0484;-0.3825;96.2;-14.47;13.41;-46.22;19.23;0.87;-11.82;5.0;35.958572;-83.9247;816.27;NaN;;833.242;;0 / 1;105006;2022-11-01 17:38:59:865
0.4822;-0.0583;10.343;2.0086;-0.1494;9.5976;0.2235;0.9569;0.7682;0.0136;-0.0484;-0.3825;75.3;-14.47;13.41;-46.22;19.23;0.87;-11.82;5.0;35.958572;-83.9247;816.27;NaN;;833.242;;0 / 1;105507;2022-11-01 17:39:00:366
-0.667;0.0748;7.7743;2.0086;-0.1494;9.5976;0.2235;0.9569;0.7682;0.0136;-0.0484;-0.3825;51.3;-14.47;13.41;-46.22;19.23;0.87;-11.82;5.0;35.958572;-83.9247;816.27;NaN;;833.242;;0 / 1;106006;2022-11-01 17:39:00:865
0.7427;-1.4605;11.9892;2.0086;-0.1494;9.5976;0.2235;0.9569;0.7682;0.0136;-0.0484;-0.3825;30.9;-14.47;13.41;-46.22;19.23;0.87;-11.82;5.0;35.958572;-83.9247;816.27;NaN;;833.242;;0 / 1;106506;2022-11-01 17:39:01:365
2.7733;-1.4465;9.4705;2.0086;-0.1494;9.5976;0.2235;0.9569;0.7682;0.0136;-0.0484;-0.3825;38.7;-14.47;13.41;-46.22;19.23;0.87;-11.82;5.0;35.958572;-83.9247;816.27;NaN;;833.242;;0 / 1;107006;2022-11-01 17:39:01:865
0.9302;0.5103;7.494;2.0086;-0.1494;9.5976;0.2235;0.9569;0.7682;0.0136;-0.0484;-0.3825;34.8;-14.47;13.41;-46.22;19.23;0.87;-11.82;5.0;35.958572;-83.9247;816.27;NaN;;833.242;;0 / 1;107506;2022-11-01 17:39:02:365
2.15;0.2264;13.497;2.0086;-0.1494;9.5976;0.2235;0.9569;0.7682;0.0136;-0.0484;-0.3825;34.8;-14.47;13.41;-46.22;19.23;0.87;-11.82;5.0;35.958572;-83.9247;816.27;NaN;;833.242;;0 / 1;108007;2022-11-01 17:39:02:866
2.9462;-0.0105;7.5978;2.0086;-0.1494;9.5976;0.2235;0.9569;0.7682;0.0136;-0.0484;-0.3825;34.4;-14.47;13.41;-46.22;19.23;0.87;-11.82;5.0;35.958572;-83.9247;816.27;NaN;;833.242;;0 / 1;108506;2022-11-01 17:39:03:365
-1.3983;0.2174;8.208;2.0086;-0.1494;9.5976;0.2235;0.9569;0.7682;0.0136;-0.0484;-0.3825;34.4;-14.47;13.41;-46.22;19.23;0.87;-11.82;5.0;35.958572;-83.9247;816.27;NaN;;833.242;;0 / 1;109007;2022-11-01 17:39:03:866
0.7708;1.5861;10.1587;2.0086;-0.1494;9.5976;0.2235;0.9569;0.7682;0.0136;-0.0484;-0.3825;34.4;-14.47;13.41;-46.22;19.23;0.87;-11.82;5.0;35.958572;-83.9247;816.27;NaN;;833.242;;0 / 1;109506;2022-11-01 17:39:04:365
2.3803;-0.2692;8.1945;2.0086;-0.1494;9.5976;0.2235;0.9569;0.7682;0.0136;-0.0484;-0.3825;26.4;-14.47;13.41;-46.22;19.23;0.87;-11.82;5.0;35.958572;-83.9247;816.27;NaN;;833.242;;0 / 1;110007;2022-11-01 17:39:04:866
0.5163;-0.1265;13.7791;2.0086;-0.1494;9.5976;0.2235;0.9569;0.7682;0.0136;-0.0484;-0.3825;23.9;-14.47;13.41;-46.22;19.23;0.87;-11.82;5.0;35.958572;-83.9247;816.27;NaN;;833.242;;0 / 1;110507;2022-11-01 17:39:05:366
1.051;0.1633;9.8148;2.0086;-0.1494;9.5976;0.2235;0.9569;0.7682;0.0136;-0.0484;-0.3825;26.6;-14.47;13.41;-46.22;19.23;0.87;-11.82;5.0;35.958572;-83.9247;816.27;NaN;;833.242;;0 / 1;111007;2022-11-01 17:39:05:866
2.849;-1.4163;8.2654;2.0086;-0.1494;9.5976;0.2235;0.9569;0.7682;0.0136;-0.0484;-0.3825;23.4;-14.47;13.41;-46.22;19.23;0.87;-11.82;5.0;35.958572;-83.9247;816.27;NaN;;833.242;;0 / 1;111506;2022-11-01 17:39:06:365
0.2608;0.9006;9.8076;2.0086;-0.1494;9.5976;0.2235;0.9569;0.7682;0.0136;-0.0484;-0.3825;21.2;-14.47;13.41;-46.22;19.23;0.87;-11.82;5.0;35.958572;-83.9247;816.27;NaN;;833.242;;0 / 1;112007;2022-11-01 17:39:06:866
2.7532;0.9867;8.9725;2.0086;-0.1494;9.5976;0.2235;0.9569;0.7682;0.0136;-0.0484;-0.3825;22.2;-14.47;13.41;-46.22;19.23;0.87;-11.82;5.0;35.958572;-83.9247;816.27;NaN;;833.242;;0 / 1;112506;2022-11-01 17:39:07:365
1.3714;1.3406;6.8264;2.0086;-0.1494;9.5976;0.2235;0.9569;0.7682;0.0136;-0.0484;-0.3825;22.2;-14.47;13.41;-46.22;19.23;0.87;-11.82;5.0;35.958572;-83.9247;816.27;NaN;;833.242;;0 / 1;113006;2022-11-01 17:39:07:865
1.0385;1.716;12.1591;2.0086;-0.1494;9.5976;0.2235;0.9569;0.7682;0.0136;-0.0484;-0.3825;26.9;-14.47;13.41;-46.22;19.23;0.87;-11.82;5.0;35.958572;-83.9247;816.27;NaN;;833.242;;0 / 1;113506;2022-11-01 17:39:08:365
0.003;2.54;8.5881;2.0086;-0.1494;9.5976;0.2235;0.9569;0.7682;0.0136;-0.0484;-0.3825;37.2;-14.47;13.41;-46.22;19.23;0.87;-11.82;5.0;35.958572;-83.9247;816.27;NaN;;833.242;;0 / 1;114007;2022-11-01 17:39:08:866
2.8831;1.4737;9.0099;2.0086;-0.1494;9.5976;0.2235;0.9569;0.7682;0.0136;-0.0484;-0.3825;37.2;-14.47;13.41;-46.22;19.23;0.87;-11.82;5.0;35.958572;-83.9247;816.27;NaN;;833.242;;0 / 1;114506;2022-11-01 17:39:09:365
2.6417;1.2948;9.7579;2.0086;-0.1494;9.5976;0.2235;0.9569;0.7682;0.0136;-0.0484;-0.3825;37.2;-14.47;13.41;-46.22;19.23;0.87;-11.82;5.0;35.958572;-83.9247;816.27;NaN;;833.242;;0 / 1;115006;2022-11-01 17:39:09:865
1.3666;1.6941;7.1348;2.0086;-0.1494;9.5976;0.2235;0.9569;0.7682;0.0136;-0.0484;-0.3825;43.2;-14.47;13.41;-46.22;19.23;0.87;-11.82;5.0;35.958572;-83.9247;816.27;NaN;;833.242;;0 / 1;115507;2022-11-01 17:39:10:366
1.6576;3.0978;10.8347;2.0086;-0.1494;9.5976;0.2235;0.9569;0.7682;0.0136;-0.0484;-0.3825;43.2;-14.47;13.41;-46.22;19.23;0.87;-11.82;5.0;35.958572;-83.9247;816.27;NaN;;833.242;;0 / 1;116006;2022-11-01 17:39:10:865
0.4995;0.5665;8.9913;2.0086;-0.1494;9.5976;0.2235;0.9569;0.7682;0.0136;-0.0484;-0.3825;43.2;-14.47;13.41;-46.22;19.23;0.87;-11.82;5.0;35.958572;-83.9247;816.27;NaN;;833.242;;0 / 1;116507;2022-11-01 17:39:11:366
2.3399;0.9422;14.3468;2.0086;-0.1494;9.5976;0.2235;0.9569;0.7682;0.0136;-0.0484;-0.3825;46.0;-14.47;13.41;-46.22;19.23;0.87;-11.82;5.0;35.958572;-83.9247;816.27;NaN;;833.242;;0 / 1;117007;2022-11-01 17:39:11:866
0.9003;3.2106;9.1331;2.0086;-0.1494;9.5976;0.2235;0.9569;0.7682;0.0136;-0.0484;-0.3825;46.0;-14.47;13.41;-46.22;19.23;0.87;-11.82;5.0;35.958572;-83.9247;816.27;NaN;;833.242;;0 / 1;117506;2022-11-01 17:39:12:365
4.4055;1.8529;11.5047;2.0086;-0.1494;9.5976;0.2235;0.9569;0.7682;0.0136;-0.0484;-0.3825;53.1;-14.47;13.41;-46.22;19.23;0.87;-11.82;5.0;35.958572;-83.9247;816.27;NaN;;833.242;;0 / 1;118006;2022-11-01 17:39:12:865
2.1;1.523;8.0716;2.0086;-0.1494;9.5976;0.2235;0.9569;0.7682;0.0136;-0.0484;-0.3825;53.1;-14.47;13.41;-46.22;19.23;0.87;-11.82;5.0;35.958572;-83.9247;816.27;NaN;;833.242;;0 / 1;118507;2022-11-01 17:39:13:366
-0.3242;-0.3897;7.689;2.0086;-0.1494;9.5976;0.2235;0.9569;0.7682;0.0136;-0.0484;-0.3825;23.0;-14.47;13.41;-46.22;19.23;0.87;-11.82;5.0;35.958572;-83.9247;816.27;NaN;;833.242;;0 / 1;119007;2022-11-01 17:39:13:866
2.1221;-1.1252;12.457;2.0086;-0.1494;9.5976;0.2235;0.9569;0.7682;0.0136;-0.0484;-0.3825;19.7;-14.47;13.41;-46.22;19.23;0.87;-11.82;5.0;35.958572;-83.9247;816.27;NaN;;833.242;;0 / 1;119507;2022-11-01 17:39:14:366
2.4227;-0.5967;8.0644;2.0086;-0.1494;9.5976;0.2235;0.9569;0.7682;0.0136;-0.0484;-0.3825;22.4;-14.47;13.41;-46.22;19.23;0.87;-11.82;5.0;35.958572;-83.9247;816.27;NaN;;833.242;;0 / 1;120006;2022-11-01 17:39:14:865
0.4304;0.0751;9.2073;2.0086;-0.1494;9.5976;0.2235;0.9569;0.7682;0.0136;-0.0484;-0.3825;20.1;-14.47;13.41;-46.22;19.23;0.87;-11.82;5.0;35.958572;-83.9247;816.27;NaN;;833.242;;0 / 1;120507;2022-11-01 17:39:15:366
1.9175;1.3008;9.8067;2.0086;-0.1494;9.5976;0.2235;0.9569;0.7682;0.0136;-0.0484;-0.3825;23.5;-14.47;13.41;-46.22;19.23;0.87;-11.82;5.0;35.958572;-83.9247;816.27;NaN;;833.242;;0 / 1;121006;2022-11-01 17:39:15:865
1.9038;-0.7902;10.0834;2.0086;-0.1494;9.5976;0.2235;0.9569;0.7682;0.0136;-0.0484;-0.3825;31.6;-14.47;13.41;-46.22;19.23;0.87;-11.82;5.0;35.958572;-83.9247;816.27;NaN;;833.242;;0 / 1;121507;2022-11-01 17:39:16:366
2.5956;0.9485;12.8477;2.0086;-0.1494;9.5976;0.2235;0.9569;0.7682;0.0136;-0.0484;-0.3825;24.1;-14.47;13.41;-46.22;19.23;0.87;-11.82;5.0;35.958572;-83.9247;816.27;NaN;;833.242;;0 / 1;122006;2022-11-01 17:39:16:865
0.6502;0.259;7.7115;2.0086;-0.1494;9.5976;0.2235;0.9569;0.7682;0.0136;-0.0484;-0.3825;73.0;-14.47;13.41;-46.22;19.23;0.87;-11.82;5.0;35.958572;-83.9247;816.27;NaN;;833.242;;0 / 1;122506;2022-11-01 17:39:17:365
2.1885;-1.1213;8.8947;2.0086;-0.1494;9.5976;0.2235;0.9569;0.7682;0.0136;-0.0484;-0.3825;73.0;-14.47;13.41;-46.22;19.23;0.87;-11.82;5.0;35.958572;-83.9247;816.27;NaN;;833.242;;0 / 1;123007;2022-11-01 17:39:17:866
3.3607;1.1797;10.0265;2.0086;-0.1494;9.5976;0.2235;0.9569;0.7682;0.0136;-0.0484;-0.3825;94.6;-14.47;13.41;-46.22;19.23;0.87;-11.82;5.0;35.958572;-83.9247;816.27;NaN;;833.242;;0 / 1;123506;2022-11-01 17:39:18:365
1.1937;1.5102;8.1523;2.0086;-0.1494;9.5976;0.2235;0.9569;0.7682;0.0136;-0.0484;-0.3825;149.4;-14.47;13.41;-46.22;19.23;0.87;-11.82;5.0;35.958572;-83.9247;816.27;NaN;;833.242;;0 / 1;124007;2022-11-01 17:39:18:866
4.0038;-0.9401;10.8942;2.0086;-0.1494;9.5976;0.2235;0.9569;0.7682;0.0136;-0.0484;-0.3825;175.3;-14.47;13.41;-46.22;19.23;0.87;-11.82;5.0;35.958572;-83.9247;816.27;NaN;;833.242;;0 / 1;124507;2022-11-01 17:39:19:366
2.7843;-0.3227;11.5277;2.0086;-0.1494;9.5976;0.2235;0.9569;0.7682;0.0136;-0.0484;-0.3825;144.2;-14.47;13.41;-46.22;19.23;0.87;-11.82;5.0;35.958572;-83.9247;816.27;NaN;;833.242;;0 / 1;125007;2022-11-01 17:39:19:866
-0.3826;0.2886;6.0604;2.0086;-0.1494;9.5976;0.2235;0.9569;0.7682;0.0136;-0.0484;-0.3825;251.0;-14.47;13.41;-46.22;19.23;0.87;-11.82;5.0;35.958572;-83.9247;816.27;NaN;;833.242;;0 / 1;125506;2022-11-01 17:39:20:365
3.1708;-2.0486;12.3329;2.0086;-0.1494;9.5976;0.2235;0.9569;0.7682;0.0136;-0.0484;-0.3825;225.5;-14.47;13.41;-46.22;19.23;0.87;-11.82;5.0;35.958572;-83.9247;816.27;NaN;;833.242;;0 / 1;126007;2022-11-01 17:39:20:866
2.767;0.2677;8.106;2.0086;-0.1494;9.5976;0.2235;0.9569;0.7682;0.0136;-0.0484;-0.3825;269.6;-14.47;13.41;-46.22;19.23;0.87;-11.82;5.0;35.958572;-83.9247;816.27;NaN;;833.242;;0 / 1;126506;2022-11-01 17:39:21:365
1.5811;-0.2495;6.5578;2.0086;-0.1494;9.5976;0.2235;0.9569;0.7682;0.0136;-0.0484;-0.3825;269.6;-14.47;13.41;-46.22;19.23;0.87;-11.82;5.0;35.958572;-83.9247;816.27;NaN;;833.242;;0 / 1;127006;2022-11-01 17:39:21:865
1.8296;2.024;9.8674;2.0086;-0.1494;9.5976;0.2235;0.9569;0.7682;0.0136;-0.0484;-0.3825;234.7;-14.47;13.41;-46.22;19.23;0.87;-11.82;5.0;35.958572;-83.9247;816.27;NaN;;833.242;;0 / 1;127507;2022-11-01 17:39:22:366
5.3426;-0.5512;9.0066;2.0086;-0.1494;9.5976;0.2235;0.9569;0.7682;0.0136;-0.0484;-0.3825;189.3;-14.47;13.41;-46.22;19.23;0.87;-11.82;5.0;35.958572;-83.9247;816.27;NaN;;833.242;;0 / 1;128007;2022-11-01 17:39:22:866
3.8755;-0.3236;10.8419;2.0086;-0.1494;9.5976;0.2235;0.9569;0.7682;0.0136;-0.0484;-0.3825;88.4;-14.47;13.41;-46.22;19.23;0.87;-11.82;5.0;35.958572;-83.9247;816.27;NaN;;833.242;;0 / 1;128506;2022-11-01 17:39:23:365
2.9874;1.0887;7.6457;2.0086;-0.1494;9.5976;0.2235;0.9569;0.7682;0.0136;-0.0484;-0.3825;88.4;-14.47;13.41;-46.22;19.23;0.87;-11.82;5.0;35.958572;-83.9247;816.27;NaN;;833.242;;0 / 1;129007;2022-11-01 17:39:23:866
1.4988;-1.5338;9.1029;2.0086;-0.1494;9.5976;0.2235;0.9569;0.7682;0.0136;-0.0484;-0.3825;70.8;-14.47;13.41;-46.22;19.23;0.87;-11.82;5.0;35.958572;-83.9247;816.27;NaN;;833.242;;0 / 1;129506;2022-11-01 17:39:24:365
-1.1306;0.1373;10.6187;2.0086;-0.1494;9.5976;0.2235;0.9569;0.7682;0.0136;-0.0484;-0.3825;52.5;-14.47;13.41;-46.22;19.23;0.87;-11.82;5.0;35.958572;-83.9247;816.27;NaN;;833.242;;0 / 1;130006;2022-11-01 17:39:24:865
-0.6039;1.2156;10.1731;2.0086;-0.1494;9.5976;0.2235;0.9569;0.7682;0.0136;-0.0484;-0.3825;37.0;-14.47;13.41;-46.22;19.23;0.87;-11.82;5.0;35.958572;-83.9247;816.27;NaN;;833.242;;0 / 1;130506;2022-11-01 17:39:25:365
-0.4152;-2.365;8.8454;2.0086;-0.1494;9.5976;0.2235;0.9569;0.7682;0.0136;-0.0484;-0.3825;37.0;-14.47;13.41;-46.22;19.23;0.87;-11.82;5.0;35.958572;-83.9247;816.27;NaN;;833.242;;0 / 1;131007;2022-11-01 17:39:25:866
-0.644;0.9993;10.9579;2.0086;-0.1494;9.5976;0.2235;0.9569;0.7682;0.0136;-0.0484;-0.3825;25.4;-14.47;13.41;-46.22;19.23;0.87;-11.82;5.0;35.958572;-83.9247;816.27;NaN;;833.242;;0 / 1;131507;2022-11-01 17:39:26:366
0.1795;2.974;7.9771;2.0086;-0.1494;9.5976;0.2235;0.9569;0.7682;0.0136;-0.0484;-0.3825;25.4;-14.47;13.41;-46.22;19.23;0.87;-11.82;5.0;35.958572;-83.9247;816.27;NaN;;833.242;;0 / 1;132007;2022-11-01 17:39:26:866
2.7224;3.0036;6.5133;2.0086;-0.1494;9.5976;0.2235;0.9569;0.7682;0.0136;-0.0484;-0.3825;31.5;-14.47;13.41;-46.22;19.23;0.87;-11.82;5.0;35.958572;-83.9247;816.27;NaN;;833.242;;0 / 1;132506;2022-11-01 17:39:27:365
1.6074;2.7939;9.845;2.0086;-0.1494;9.5976;0.2235;0.9569;0.7682;0.0136;-0.0484;-0.3825;15.2;-14.47;13.41;-46.22;19.23;0.87;-11.82;5.0;35.958572;-83.9247;816.27;NaN;;833.242;;0 / 1;133007;2022-11-01 17:39:27:866
0.6712;1.4267;11.6635;2.0086;-0.1494;9.5976;0.2235;0.9569;0.7682;0.0136;-0.0484;-0.3825;14.1;-14.47;13.41;-46.22;19.23;0.87;-11.82;5.0;35.958572;-83.9247;816.27;NaN;;833.242;;0 / 1;133507;2022-11-01 17:39:28:366
-1.4282;0.8767;9.9239;2.0086;-0.1494;9.5976;0.2235;0.9569;0.7682;0.0136;-0.0484;-0.3825;45.5;-14.47;13.41;-46.22;19.23;0.87;-11.82;5.0;35.958572;-83.9247;816.27;NaN;;833.242;;0 / 1;134006;2022-11-01 17:39:28:865
-4.0361;0.0843;7.9684;2.0086;-0.1494;9.5976;0.2235;0.9569;0.7682;0.0136;-0.0484;-0.3825;40.6;-14.47;13.41;-46.22;19.23;0.87;-11.82;5.0;35.958572;-83.9247;816.27;NaN;;833.242;;0 / 1;134506;2022-11-01 17:39:29:365
-1.0807;0.274;10.928;2.0086;-0.1494;9.5976;0.2235;0.9569;0.7682;0.0136;-0.0484;-0.3825;59.2;-14.47;13.41;-46.22;19.23;0.87;-11.82;5.0;35.958572;-83.9247;816.27;NaN;;833.242;;0 / 1;135007;2022-11-01 17:39:29:866
-0.4962;1.404;10.194;2.0086;-0.1494;9.5976;0.2235;0.9569;0.7682;0.0136;-0.0484;-0.3825;59.4;-14.47;13.41;-46.22;19.23;0.87;-11.82;5.0;35.958572;-83.9247;816.27;NaN;;833.242;;0 / 1;135506;2022-11-01 17:39:30:365
-1.8224;1.8425;7.5778;2.0086;-0.1494;9.5976;0.2235;0.9569;0.7682;0.0136;-0.0484;-0.3825;59.4;-14.47;13.41;-46.22;19.23;0.87;-11.82;5.0;35.958572;-83.9247;816.27;NaN;;833.242;;0 / 1;136006;2022-11-01 17:39:30:865
-0.8216;-0.9066;11.2723;2.0086;-0.1494;9.5976;0.2235;0.9569;0.7682;0.0136;-0.0484;-0.3825;68.4;-14.47;13.41;-46.22;19.23;0.87;-11.82;5.0;35.958572;-83.9247;816.27;NaN;;833.242;;0 / 1;136506;2022-11-01 17:39:31:365
-3.481;3.2261;10.6077;2.0086;-0.1494;9.5976;0.2235;0.9569;0.7682;0.0136;-0.0484;-0.3825;68.4;-14.47;13.41;-46.22;19.23;0.87;-11.82;5.0;35.958572;-83.9247;816.27;NaN;;833.242;;0 / 1;137007;2022-11-01 17:39:31:866
-0.495;1.1381;8.1634;2.0086;-0.1494;9.5976;0.2235;0.9569;0.7682;0.0136;-0.0484;-0.3825;80.1;-14.47;13.41;-46.22;19.23;0.87;-11.82;5.0;35.958572;-83.9247;816.27;NaN;;833.242;;0 / 1;137507;2022-11-01 17:39:32:366
1.4521;0.1196;10.3499;2.0086;-0.1494;9.5976;0.2235;0.9569;0.7682;0.0136;-0.0484;-0.3825;129.9;-14.47;13.41;-46.22;19.23;0.87;-11.82;5.0;35.958572;-83.9247;816.27;NaN;;833.242;;0 / 1;138006;2022-11-01 17:39:32:865
-2.1757;1.9017;8.7673;2.0086;-0.1494;9.5976;0.2235;0.9569;0.7682;0.0136;-0.0484;-0.3825;216.9;-14.47;13.41;-46.22;19.23;0.87;-11.82;5.0;35.958572;-83.9247;816.27;NaN;;833.242;;0 / 1;138507;2022-11-01 17:39:33:366
-0.5489;0.6837;9.4274;2.0086;-0.1494;9.5976;0.2235;0.9569;0.7682;0.0136;-0.0484;-0.3825;350.3;-14.47;13.41;-46.22;19.23;0.87;-11.82;5.0;35.958572;-83.9247;816.27;NaN;;833.242;;0 / 1;139007;2022-11-01 17:39:33:866
-0.2907;0.6254;11.6596;2.0086;-0.1494;9.5976;0.2235;0.9569;0.7682;0.0136;-0.0484;-0.3825;394.0;-14.47;13.41;-46.22;19.23;0.87;-11.82;5.0;35.958572;-83.9247;816.27;NaN;;833.242;;0 / 1;139507;2022-11-01 17:39:34:366
-1.5634;0.8001;12.4092;2.0086;-0.1494;9.5976;0.2235;0.9569;0.7682;0.0136;-0.0484;-0.3825;283.5;-14.47;13.41;-46.22;19.23;0.87;-11.82;5.0;35.958572;-83.9247;816.27;NaN;;833.242;;0 / 1;140006;2022-11-01 17:39:34:865
-0.5004;-0.2492;10.66;2.0086;-0.1494;9.5976;0.2235;0.9569;0.7682;0.0136;-0.0484;-0.3825;125.2;-14.47;13.41;-46.22;19.23;0.87;-11.82;5.0;35.958572;-83.9247;816.27;NaN;;833.242;;0 / 1;140506;2022-11-01 17:39:35:365
-2.3112;0.1187;11.7679;2.0086;-0.1494;9.5976;0.2235;0.9569;0.7682;0.0136;-0.0484;-0.3825;51.4;-14.47;13.41;-46.22;19.23;0.87;-11.82;5.0;35.958572;-83.9247;816.27;NaN;;833.242;;0 / 1;141006;2022-11-01 17:39:35:865
-3.5707;1.649;11.8331;2.0086;-0.1494;9.5976;0.2235;0.9569;0.7682;0.0136;-0.0484;-0.3825;90.1;-14.47;13.41;-46.22;19.23;0.87;-11.82;5.0;35.958572;-83.9247;816.27;NaN;;833.242;;0 / 1;141507;2022-11-01 17:39:36:366
-2.059;1.4952;7.6484;2.0086;-0.1494;9.5976;0.2235;0.9569;0.7682;0.0136;-0.0484;-0.3825;77.9;-14.47;13.41;-46.22;19.23;0.87;-11.82;5.0;35.958572;-83.9247;816.27;NaN;;833.242;;0 / 1;142007;2022-11-01 17:39:36:866
-1.0717;0.4448;8.8334;2.0086;-0.1494;9.5976;0.2235;0.9569;0.7682;0.0136;-0.0484;-0.3825;38.2;-14.47;13.41;-46.22;19.23;0.87;-11.82;5.0;35.958572;-83.9247;816.27;NaN;;833.242;;0 / 1;142506;2022-11-01 17:39:37:365
-3.1253;1.8045;11.968;2.0086;-0.1494;9.5976;0.2235;0.9569;0.7682;0.0136;-0.0484;-0.3825;38.2;-14.47;13.41;-46.22;19.23;0.87;-11.82;5.0;35.958572;-83.9247;816.27;NaN;;833.242;;0 / 1;143006;2022-11-01 17:39:37:865
-3.5309;3.1433;8.8863;2.0086;-0.1494;9.5976;0.2235;0.9569;0.7682;0.0136;-0.0484;-0.3825;24.5;-14.47;13.41;-46.22;19.23;0.87;-11.82;5.0;35.958572;-83.9247;816.27;NaN;;833.242;;0 / 1;143507;2022-11-01 17:39:38:366
-1.2957;1.8027;7.9624;2.0086;-0.1494;9.5976;0.2235;0.9569;0.7682;0.0136;-0.0484;-0.3825;38.9;-14.47;13.41;-46.22;19.23;0.87;-11.82;5.0;35.958572;-83.9247;816.27;NaN;;833.242;;0 / 1;144006;2022-11-01 17:39:38:865
-5.3402;0.4869;8.7069;2.0086;-0.1494;9.5976;0.2235;0.9569;0.7682;0.0136;-0.0484;-0.3825;38.9;-14.47;13.41;-46.22;19.23;0.87;-11.82;5.0;35.958572;-83.9247;816.27;NaN;;833.242;;0 / 1;144506;2022-11-01 17:39:39:365
-3.2554;3.0434;9.1379;2.0086;-0.1494;9.5976;0.2235;0.9569;0.7682;0.0136;-0.0484;-0.3825;48.0;-14.47;13.41;-46.22;19.23;0.87;-11.82;5.0;35.958572;-83.9247;816.27;NaN;;833.242;;0 / 1;145007;2022-11-01 17:39:39:866
-1.7868;2.4688;7.8844;2.0086;-0.1494;9.5976;0.2235;0.9569;0.7682;0.0136;-0.0484;-0.3825;57.2;-14.47;13.41;-46.22;19.23;0.87;-11.82;5.0;35.958572;-83.9247;816.27;NaN;;833.242;;0 / 1;145507;2022-11-01 17:39:40:366
-3.8157;0.7899;8.7099;2.0086;-0.1494;9.5976;0.2235;0.9569;0.7682;0.0136;-0.0484;-0.3825;57.2;-14.47;13.41;-46.22;19.23;0.87;-11.82;5.0;35.958572;-83.9247;816.27;NaN;;833.242;;0 / 1;146007;2022-11-01 17:39:40:866
-3.8743;1.3678;11.9504;2.0086;-0.1494;9.5976;0.2235;0.9569;0.7682;0.0136;-0.0484;-0.3825;114.0;-14.47;13.41;-46.22;19.23;0.87;-11.82;5.0;35.958572;-83.9247;816.27;NaN;;833.242;;0 / 1;146507;2022-11-01 17:39:41:366
-0.5722;2.2959;8.3515;2.0086;-0.1494;9.5976;0.2235;0.9569;0.7682;0.0136;-0.0484;-0.3825;129.8;-14.47;13.41;-46.22;19.23;0.87;-11.82;5.0;35.958572;-83.9247;816.27;NaN;;833.242;;0 / 1;147007;2022-11-01 17:39:41:866
-1.7641;0.3087;9.8504;2.0086;-0.1494;9.5976;0.2235;0.9569;0.7682;0.0136;-0.0484;-0.3825;131.4;-14.47;13.41;-46.22;19.23;0.87;-11.82;5.0;35.958572;-83.9247;816.27;NaN;;833.242;;0 / 1;147507;2022-11-01 17:39:42:366
0.4726;0.1816;12.3628;2.0086;-0.1494;9.5976;0.2235;0.9569;0.7682;0.0136;-0.0484;-0.3825;173.6;-14.47;13.41;-46.22;19.23;0.87;-11.82;5.0;35.958572;-83.9247;816.27;NaN;;833.242;;0 / 1;148006;2022-11-01 17:39:42:865
2.1383;0.1863;7.5769;2.0086;-0.1494;9.5976;0.2235;0.9569;0.7682;0.0136;-0.0484;-0.3825;175.5;-14.47;13.41;-46.22;19.23;0.87;-11.82;5.0;35.958572;-83.9247;816.27;NaN;;833.242;;0 / 1;148507;2022-11-01 17:39:43:366
2.5971;-0.5785;11.2241;2.0086;-0.1494;9.5976;0.2235;0.9569;0.7682;0.0136;-0.0484;-0.3825;240.6;-14.47;13.41;-46.22;19.23;0.87;-11.82;5.0;35.958572;-83.9247;816.27;NaN;;833.242;;0 / 1;149007;2022-11-01 17:39:43:866
0.5928;2.4751;9.5701;2.0086;-0.1494;9.5976;0.2235;0.9569;0.7682;0.0136;-0.0484;-0.3825;301.3;-14.47;13.41;-46.22;19.23;0.87;-11.82;5.0;35.958572;-83.9247;816.27;NaN;;833.242;;0 / 1;149507;2022-11-01 17:39:44:366
0.9667;0.4836;8.849;2.0086;-0.1494;9.5976;0.2235;0.9569;0.7682;0.0136;-0.0484;-0.3825;393.0;-14.47;13.41;-46.22;19.23;0.87;-11.82;5.0;35.958572;-83.9247;816.27;NaN;;833.242;;0 / 1;150006;2022-11-01 17:39:44:865
-1.8598;1.3092;7.5353;2.0086;-0.1494;9.5976;0.2235;0.9569;0.7682;0.0136;-0.0484;-0.3825;447.1;-14.47;13.41;-46.22;19.23;0.87;-11.82;5.0;35.958572;-83.9247;816.27;NaN;;833.242;;0 / 1;150506;2022-11-01 17:39:45:365
-0.0404;2.7838;9.5198;2.0086;-0.1494;9.5976;0.2235;0.9569;0.7682;0.0136;-0.0484;-0.3825;447.1;-14.47;13.41;-46.22;19.23;0.87;-11.82;5.0;35.958572;-83.9247;816.27;NaN;;833.242;;0 / 1;151007;2022-11-01 17:39:45:866
0.4696;0.4878;8.7897;2.0086;-0.1494;9.5976;0.2235;0.9569;0.7682;0.0136;-0.0484;-0.3825;447.1;-14.47;13.41;-46.22;19.23;0.87;-11.82;5.0;35.958572;-83.9247;816.27;NaN;;833.242;;0 / 1;151507;2022-11-01 17:39:46:366
5.3489;3.4851;8.5816;2.0086;-0.1494;9.5976;0.2235;0.9569;0.7682;0.0136;-0.0484;-0.3825;447.1;-14.47;13.41;-46.22;19.23;0.87;-11.82;5.0;35.958572;-83.9247;816.27;NaN;;833.242;;0 / 1;152007;2022-11-01 17:39:46:866
-1.3642;3.1023;8.5983;-0.6622;3.3437;9.1952;-0.1204;0.1678;0.2683;0.09;0.9252;0.6803;530.4;22.48;-4.74;-52.88;300.43;-18.91;0.72;2.0;35.958317;-83.9247;;NaN;;230.03236;;0 / 1;152506;2022-11-01 17:39:47:365
-4.5461;4.771;8.9046;-3.9766;4.3413;7.8429;0.0943;0.6954;1.0716;-0.3472;1.4823;0.976;290.3;32.03;-16.43;-41.61;303.23;-25.84;23.95;2.0;35.958317;-83.9247;;NaN;;230.03236;;0 / 1;153006;2022-11-01 17:39:47:865