sep=;
ACCELEROMETER X (m/s²);ACCELEROMETER Y (m/s²);ACCELEROMETER Z (m/s²);GRAVITY X (m/s²);GRAVITY Y (m/s²);GRAVITY Z (m/s²);LINEAR ACCELERATION X (m/s²);LINEAR ACCELERATION Y (m/s²);LINEAR ACCELERATION Z (m/s²);GYROSCOPE X (rad/s);GYROSCOPE Y (rad/s);GYROSCOPE Z (rad/s);LIGHT (lux);MAGNETIC FIELD X (μT);MAGNETIC FIELD Y (μT);MAGNETIC FIELD Z (μT);ORIENTATION Z (azimuth °);ORIENTATION X (pitch °);ORIENTATION Y (roll °);PROXIMITY (i);SOUND LEVEL (dB);LOCATION Latitude : ;LOCATION Longitude : ;LOCATION Altitude ( m);LOCATION Altitude-google ( m);LOCATION Speed ( Kmh);LOCATION Accuracy ( m);LOCATION ORIENTATION (°);Satellites in range;Time since start in ms ;YYYY-MO-DD HH-MI-SS_SSS
-0.4567;3.0879;8.7826;-1.7601;2.9514;9.1849;-0.7668;0.9622;-0.6617;-0.624;-0.4289;0.5931;24.0;42.04;-28.86;-12.39;240.87;-17.52;10.85;5.0;35.958717;-83.924736;723.23;NaN;0.0;667.8768;;0 / 0;8;2022-11-01 17:31:53:339
0.0556;2.7814;11.61;-0.5135;1.2482;9.7133;1.1868;1.6444;1.3854;0.1529;0.0819;-0.2658;31.6;34.91;-33.58;-26.14;228.05;-7.31;3.03;5.0;35.958717;-83.924736;723.23;NaN;0.0;667.8768;;0 / 0;510;2022-11-01 17:31:53:841
-1.4599;2.3169;6.9272;-0.1872;3.5086;9.1556;-1.6126;-1.89;-1.5622;0.2551;0.634;0.6367;16.1;39.39;-41.47;-30.06;234.41;-20.37;-0.63;5.0;35.958717;-83.924736;723.23;NaN;0.0;667.8768;;0 / 0;1009;2022-11-01 17:31:54:340
1.1186;2.8675;8.4329;-0.3468;3.6643;9.0897;1.7125;-1.0498;0.2489;0.4208;-0.4277;-0.8478;18.0;29.48;-56.01;-28.78;214.4;-21.94;2.18;5.0;35.958717;-83.924736;723.23;NaN;0.0;667.8768;;0 / 0;1509;2022-11-01 17:31:54:840
1.6597;3.0784;12.1152;1.1396;2.8275;9.3208;-0.8071;0.8963;1.627;0.0889;0.5399;0.1836;16.7;37.2;-49.8;-35.01;226.59;-16.81;-8.23;5.0;35.958717;-83.924736;723.23;NaN;0.0;667.8768;;0 / 0;2008;2022-11-01 17:31:55:339
0.781;2.5493;9.618;0.1454;2.6504;9.4406;0.433;-0.2994;-2.4023;-0.0683;0.6858;0.5244;13.8;44.59;-29.21;-15.21;241.99;-15.68;-0.88;5.0;35.958717;-83.924736;723.23;NaN;0.0;667.8768;;0 / 0;2509;2022-11-01 17:31:55:840
0.1178;3.1143;9.0027;0.2656;2.6849;9.4282;-0.3075;-0.6131;-1.2902;-0.2367;-0.497;-0.1715;13.8;54.21;-22.11;-16.74;253.21;-16.52;-0.18;5.0;35.958717;-83.924736;723.23;NaN;0.0;667.8768;;0 / 0;3009;2022-11-01 17:31:56:340
-2.147;3.2889;11.7847;0.3453;3.2276;9.2538;-0.2616;0.4719;2.2955;-0.1635;0.232;0.1093;11.1;67.24;-4.95;-20.96;271.15;-19.22;-2.14;5.0;35.958717;-83.924736;723.23;NaN;0.0;667.8768;;0 / 0;3509;2022-11-01 17:31:56:840
-0.4831;4.1127;9.8145;-0.6304;3.5447;9.1218;0.6572;0.2104;-0.9715;-0.0544;0.2054;0.1475;12.4;77.53;-0.53;-12.81;274.03;-21.52;3.21;5.0;35.958717;-83.924736;723.23;NaN;0.0;667.8768;;0 / 0;4009;2022-11-01 17:31:57:340
-0.3467;2.8316;7.9158;-0.2526;2.6925;9.4264;0.5006;-0.7904;-1.2093;0.1755;0.0532;-0.6258;12.4;94.8;-8.27;14.81;263.35;-15.94;1.53;5.0;35.958717;-83.924736;723.23;NaN;0.0;667.8768;;0 / 0;4509;2022-11-01 17:31:57:840
-1.445;1.159;10.5631;0.7417;2.37;9.487;-3.2582;-0.9773;2.9459;0.443;0.4539;1.2134;14.2;91.33;1.61;6.24;269.18;-12.42;-5.73;5.0;35.958717;-83.924736;723.23;NaN;0.0;667.8768;;0 / 0;5009;2022-11-01 17:31:58:340
2.9791;2.2609;12.9793;-0.1156;1.7526;9.6481;3.256;0.1132;3.0773;-0.1083;0.1476;0.5514;17.4;84.45;-25.44;14.55;252.16;-10.29;0.69;5.0;35.958717;-83.924736;723.23;NaN;0.0;667.8768;;0 / 0;5509;2022-11-01 17:31:58:840
2.6405;2.6653;7.1243;3.9302;2.6172;8.595;-2.5222;-0.6204;-1.6716;-0.6776;-0.4183;0.3906;21.3;69.56;-39.98;10.31;230.95;-18.08;-22.69;5.0;35.958717;-83.924736;723.23;NaN;0.0;667.8768;;0 / 0;6009;2022-11-01 17:31:59:340
1.3848;0.4277;6.5551;2.0627;1.3524;9.4914;-1.4724;-0.6513;-2.3295;0.5656;-0.042;1.8671;18.2;63.02;-39.56;-0.17;236.04;-7.93;-12.26;5.0;35.958717;-83.924736;723.23;NaN;0.0;667.8768;;0 / 0;6509;2022-11-01 17:31:59:840
1.2814;-1.3149;8.7299;2.2255;0.8231;9.5153;-0.8349;-1.292;-0.718;-1.1471;-0.6226;-1.6419;40.3;43.86;-44.02;4.31;223.15;-6.98;-11.27;5.0;35.958717;-83.924736;723.23;NaN;0.0;667.8768;;0 / 0;7009;2022-11-01 17:32:00:340
1.4177;1.8093;12.1367;1.5033;-0.5214;9.6767;0.3767;2.3534;0.0729;-1.123;0.5283;-1.266;52.0;48.49;-17.33;-8.94;250.74;3.05;-8.83;5.0;35.958717;-83.924736;723.23;NaN;0.0;667.8768;;0 / 0;7509;2022-11-01 17:32:00:840
3.3619;-0.848;8.5768;1.7284;-0.6905;9.6284;0.1856;-0.1147;-0.5085;0.0188;0.1011;0.6549;43.5;47.16;-9.32;-15.43;259.13;3.79;-10.41;5.0;35.958717;-83.924736;723.23;NaN;0.0;667.8768;;0 / 0;8008;2022-11-01 17:32:01:339
0.5895;0.4519;10.5781;2.0376;1.4834;9.4772;0.333;-2.4212;-1.0717;-0.4586;0.3788;-1.6186;33.7;29.29;-13.09;-17.18;250.57;-8.7;-12.13;5.0;35.958717;-83.924736;723.23;NaN;0.0;667.8768;;0 / 0;8508;2022-11-01 17:32:01:839
1.8823;2.3408;7.7148;2.2964;-0.1849;9.5322;-1.535;-0.1161;7.034;0.6074;-0.128;-0.3356;26.1;22.03;-9.32;-17.55;250.17;1.08;-13.55;5.0;35.958717;-83.924736;723.23;NaN;0.0;667.8768;;0 / 0;9008;2022-11-01 17:32:02:339
4.1088;0.3754;10.2165;4.2143;1.5212;8.7233;0.5171;-1.9059;1.2797;0.0844;-1.1916;-0.7935;51.1;8.4;-10.35;-13.16;236.22;-8.92;-25.79;5.0;35.958717;-83.924736;723.23;NaN;0.0;667.8768;;0 / 0;9508;2022-11-01 17:32:02:839
2.8137;0.507;8.4616;3.3097;-0.0016;9.2313;-1.1034;0.6523;0.3578;-0.8829;0.5484;-0.745;51.1;6.06;-6.75;-12.08;236.0;-1.71;-21.48;5.0;35.958717;-83.924736;723.23;NaN;0.0;667.8768;;0 / 0;10009;2022-11-01 17:32:03:340
-1.2709;1.5628;6.955;1.8466;-0.4749;9.6195;-4.028;2.782;-1.4452;-0.1833;0.0977;0.9359;13.6;-38.72;43.07;-40.29;37.09;2.78;-10.87;5.0;35.958717;-83.924736;723.23;NaN;0.0;667.8768;;0 / 0;10509;2022-11-01 17:32:03:840
-0.393;-3.3159;11.2648;0.057;-0.737;9.7788;0.8644;-2.6481;5.3897;0.0326;-1.4936;-1.7229;12.3;-26.49;42.75;-39.84;32.88;4.31;-0.33;5.0;35.958717;-83.924736;723.23;NaN;0.0;667.8768;;0 / 0;11009;2022-11-01 17:32:04:340
1.8523;-1.3316;10.5939;2.04;-2.4149;9.2832;-0.2055;1.3074;1.0518;-0.8117;0.6944;-0.3864;12.2;-22.78;54.66;-42.15;17.76;14.26;-12.39;5.0;35.958717;-83.924736;723.23;NaN;0.0;667.8768;;0 / 0;11508;2022-11-01 17:32:04:839
1.1255;-0.2991;8.0267;0.8993;-0.4473;9.7551;-0.2838;0.1545;-2.6749;0.4752;1.0072;1.5026;14.3;-17.98;61.74;-36.04;11.53;3.62;-9.03;5.0;35.958717;-83.924736;723.23;NaN;0.0;667.8768;;0 / 0;12009;2022-11-01 17:32:05:340
-0.9975;-0.6682;9.8127;1.0079;0.0847;9.7544;-1.2781;-1.3535;0.4013;0.4015;-0.9255;-0.1484;14.3;-3.13;41.4;-34.95;359.15;-0.49;-5.9;5.0;35.958717;-83.924736;723.23;NaN;0.0;667.8768;;0 / 0;12508;2022-11-01 17:32:05:839
4.3875;1.1429;10.5673;3.487;0.4157;9.1563;0.7422;0.049;1.2628;0.8708;-0.0807;-0.4898;14.4;-9.56;47.78;-38.34;355.19;-2.43;-20.85;5.0;35.958717;-83.924736;723.23;NaN;0.0;667.8768;;0 / 0;13009;2022-11-01 17:32:06:340
1.6205;2.1727;7.6648;1.7823;1.4751;9.5298;-0.0556;0.7379;-2.0263;-0.0382;0.842;0.5198;9.4;-10.31;55.99;-36.28;3.02;-8.65;-10.59;5.0;35.958717;-83.924736;723.23;NaN;0.0;667.8768;;0 / 0;13509;2022-11-01 17:32:06:840
0.4056;0.2465;8.2639;1.0026;2.1645;9.5121;-0.7343;-1.5538;0.0593;-0.153;-0.8583;-0.5918;13.1;1.86;56.19;-28.31;356.48;-13.22;-3.57;5.0;35.958717;-83.924736;723.23;NaN;0.0;667.8768;;0 / 0;14009;2022-11-01 17:32:07:340
-0.8318;3.7519;13.3522;0.4013;1.7026;9.6494;-0.1148;1.6499;2.7287;-0.0069;0.5269;0.2012;16.6;0.0;73.86;-30.02;359.09;-10.0;-2.38;5.0;35.958717;-83.924736;723.23;NaN;0.0;667.8768;;0 / 0;14508;2022-11-01 17:32:07:839
0.9748;1.3609;10.1471;0.2533;1.5311;9.6831;0.7439;-0.442;0.173;0.1183;0.0651;0.5934;21.0;5.33;79.2;-28.01;356.02;-8.98;-1.5;5.0;35.958717;-83.924736;723.23;NaN;0.0;667.8768;;0 / 0;15009;2022-11-01 17:32:08:340
0.9652;0.0042;8.4114;0.3565;0.2239;9.7976;0.2718;-0.1423;-2.1547;-0.1243;-0.0394;-0.1768;24.5;16.09;68.79;-23.66;346.37;-1.31;-2.08;5.0;35.958717;-83.924736;723.23;NaN;0.0;667.8768;;0 / 0;15509;2022-11-01 17:32:08:840
-0.4041;1.9196;7.4492;0.2939;0.5671;9.7858;-1.7887;1.5744;-1.1073;-0.4804;-0.037;0.1885;24.5;12.38;70.09;-26.14;349.9;-3.07;-1.54;5.0;35.958717;-83.924736;723.23;NaN;0.0;667.8768;;0 / 0;16009;2022-11-01 17:32:09:340
1.5422;2.4272;14.9545;0.9921;1.3727;9.6593;1.4709;-0.7609;1.9597;0.0019;-0.44;-0.3642;31.6;6.19;67.5;-32.27;352.66;-8.05;-5.86;5.0;35.958717;-83.924736;723.23;NaN;0.0;667.8768;;0 / 0;16509;2022-11-01 17:32:09:840
3.2611;-0.8815;8.8735;2.6453;0.055;9.443;-0.7156;-1.7698;-1.5831;-0.1805;-0.3325;-1.9132;37.4;-15.75;75.77;-40.33;3.47;-0.32;-15.65;5.0;35.958717;-83.924736;723.23;NaN;0.0;667.8768;;0 / 0;17008;2022-11-01 17:32:10:339
3.2539;0.1983;3.7502;4.2898;0.306;8.8133;-3.1271;0.572;1.8591;-0.3485;-0.9167;-1.2226;42.9;-43.86;89.34;-42.28;13.14;-1.79;-25.95;5.0;35.958717;-83.924736;723.23;NaN;0.0;667.8768;;0 / 0;17509;2022-11-01 17:32:10:840
1.2311;-1.6454;13.2667;3.157;0.4703;9.2727;2.0523;-0.9333;2.6873;0.2524;-0.3502;-0.8495;61.1;-60.0;94.24;-39.69;25.31;-1.08;-17.74;5.0;35.958717;-83.924736;723.23;NaN;0.0;667.8768;;0 / 0;18009;2022-11-01 17:32:11:340
3.4457;2.0393;9.3045;3.2146;0.2417;9.2617;-0.1381;0.3135;-2.3727;-1.0222;1.2263;-0.3473;73.0;-86.87;68.57;-28.11;46.07;-1.41;-19.14;5.0;35.958717;-83.924736;723.23;NaN;0.0;667.8768;;0 / 0;18508;2022-11-01 17:32:11:839
2.4018;-1.7025;6.8632;3.7499;1.4847;8.9389;-1.0815;-2.5412;-2.8945;-0.5657;0.5747;-0.3688;44.1;-77.64;58.28;-25.74;43.35;-8.71;-22.76;5.0;35.958717;-83.924736;723.23;NaN;0.0;667.8768;;0 / 0;19008;2022-11-01 17:32:12:339
2.1751;-0.7878;12.8889;0.1854;-0.5121;9.7915;1.2649;1.0981;2.0432;0.9251;-0.6841;-0.7748;55.9;-71.23;61.67;-28.28;49.4;2.99;-1.08;5.0;35.958717;-83.924736;723.23;NaN;0.0;667.8768;;0 / 0;19509;2022-11-01 17:32:12:840
-0.7558;0.3855;10.0756;0.5467;-0.8724;9.7525;-1.8673;1.135;0.3599;-1.1472;-0.0527;-0.8272;95.5;-68.51;42.58;-27.36;57.89;1.23;-3.07;5.0;35.958717;-83.924736;723.23;NaN;0.0;667.8768;;0 / 0;20008;2022-11-01 17:32:13:339
-0.894;-0.8148;6.8563;0.8181;-0.6962;9.7476;-3.0036;-0.079;-1.1582;0.1168;-0.3194;0.5311;26.5;-57.21;40.91;-27.58;54.69;4.07;-4.8;5.0;35.958717;-83.924736;723.23;NaN;0.0;667.8768;;0 / 0;20508;2022-11-01 17:32:13:839
-1.6478;-0.478;11.4464;-1.3653;-0.5844;9.6935;0.2956;-0.3873;0.7341;0.0059;-0.1302;-0.3084;18.8;-50.91;44.04;-30.86;52.23;3.81;7.49;5.0;35.958717;-83.924736;723.23;NaN;0.0;667.8768;;0 / 0;21010;2022-11-01 17:32:14:341
-1.6178;-0.6846;9.454;-0.9361;-0.8197;9.7274;-0.8047;-0.176;-0.7743;0.0202;0.1176;-1.0413;18.8;-45.39;38.76;-36.51;53.21;4.79;5.5;5.0;35.958717;-83.924736;723.23;NaN;0.0;667.8768;;0 / 0;21508;2022-11-01 17:32:14:839
-2.2819;0.6248;7.1351;-1.4807;-0.4844;9.6821;-1.2269;1.0396;-2.2841;0.2324;-0.3672;1.0112;15.8;-38.81;33.39;-40.22;55.98;4.35;9.46;5.0;35.958717;-83.924736;723.23;NaN;0.0;667.8768;;0 / 0;22008;2022-11-01 17:32:15:339
-3.3882;0.0823;11.374;-1.7293;0.9586;9.6053;0.0497;-0.9128;2.3123;0.1232;0.4557;-0.2533;15.8;-42.06;32.57;-43.65;53.51;-5.61;10.21;5.0;35.958717;-83.924736;723.23;NaN;0.0;667.8768;;0 / 0;22508;2022-11-01 17:32:15:839
-0.6117;-0.0975;10.7342;-0.9784;-0.2764;9.7538;0.3242;0.1788;0.4049;0.181;-0.0373;-0.1671;15.8;-37.69;32.36;-45.02;54.3;1.99;6.05;5.0;35.958717;-83.924736;723.23;NaN;0.0;667.8768;;0 / 0;23008;2022-11-01 17:32:16:339
-0.8267;1.4874;8.4251;-1.0985;0.4973;9.7322;0.2561;0.674;-1.4483;0.5684;-0.0142;0.6312;15.8;-33.73;31.35;-43.84;49.57;-2.91;6.44;5.0;35.958717;-83.924736;723.23;NaN;0.0;667.8768;;0 / 0;23509;2022-11-01 17:32:16:840
-0.6909;0.317;8.4978;0.2428;0.7611;9.7741;-1.029;-0.2149;-1.397;-1.2195;-0.9274;-0.9543;15.8;-31.48;21.68;-40.69;48.67;-8.65;0.93;5.0;35.958717;-83.924736;723.23;NaN;0.0;667.8768;;0 / 0;24008;2022-11-01 17:32:17:339
2.4978;-0.3021;11.5364;2.0652;-0.2262;9.5841;0.474;-0.0576;1.6909;0.7179;0.1305;-0.2109;17.0;-30.84;30.24;-44.74;35.85;1.32;-12.16;5.0;35.958717;-83.924736;723.23;NaN;0.0;667.8768;;0 / 0;24508;2022-11-01 17:32:17:839
3.0263;0.5291;9.9476;2.0023;0.006;9.6001;1.4274;0.3159;-0.4929;0.0867;-0.3547;0.7255;15.2;-29.42;23.74;-47.64;39.57;0.38;-10.74;5.0;35.958717;-83.924736;723.23;NaN;0.0;667.8768;;0 / 0;25008;2022-11-01 17:32:18:339
2.9172;-0.7609;6.6754;2.7162;-0.0722;9.4227;0.5582;-1.6044;-0.971;-0.4344;-0.4258;-1.0926;14.4;-37.05;16.44;-47.87;55.0;0.42;-16.08;5.0;35.958717;-83.924736;723.23;NaN;0.0;667.8768;;0 / 0;25509;2022-11-01 17:32:18:840
0.751;1.5245;13.7725;3.7579;0.7062;9.0305;3.125;-0.9991;2.1045;0.4162;0.4883;-0.9624;16.3;-31.31;14.01;-48.66;28.45;-4.13;-22.59;5.0;35.958717;-83.924736;723.23;NaN;0.0;667.8768;;0 / 0;26009;2022-11-01 17:32:19:340
5.4607;-0.8904;10.8784;3.9489;1.856;8.7825;1.6872;-2.7924;2.0496;0.6201;-0.693;-0.9092;18.8;-27.81;14.06;-47.51;13.59;-10.91;-24.21;5.0;35.958717;-83.924736;723.23;NaN;0.0;667.8768;;0 / 0;26508;2022-11-01 17:32:19:839
2.6656;-0.2216;8.4864;4.1788;0.5228;8.8564;-2.0551;-0.9014;0.2855;-2.2252;0.1817;-1.5086;27.8;-23.29;33.86;-36.07;6.56;-7.62;-26.5;5.0;35.958717;-83.924736;723.23;NaN;0.0;667.8768;;0 / 0;27008;2022-11-01 17:32:20:339
2.1559;0.4603;6.6999;3.5464;0.2085;9.1406;-1.4116;1.2665;-2.9271;0.32;0.0166;0.2669;36.9;-42.66;59.66;-27.84;26.21;-1.22;-21.21;5.0;35.958717;-83.924736;723.23;NaN;0.0;667.8768;;0 / 0;27509;2022-11-01 17:32:20:840
2.5537;-3.195;12.318;3.2538;1.6574;9.1014;1.6521;-2.8827;3.3277;0.5749;-1.2241;-1.3174;36.9;-50.77;61.48;-22.39;31.41;-9.73;-19.67;5.0;35.958717;-83.924736;723.23;NaN;0.0;667.8768;;0 / 0;28009;2022-11-01 17:32:21:340
2.1476;0.05;7.0164;3.7883;0.5945;9.0258;-2.3232;-0.5071;0.7979;0.3632;-0.8183;0.4061;28.2;-51.21;49.39;-11.46;40.14;-3.48;-22.77;5.0;35.958717;-83.924736;723.23;NaN;0.0;667.8768;;0 / 0;28508;2022-11-01 17:32:21:839
1.6307;1.8398;7.334;2.6617;0.9971;9.3857;-0.3784;0.4415;-3.0365;-0.6443;1.0997;-1.1492;42.5;-33.3;63.39;-8.08;23.55;-6.79;-20.1;5.0;35.958717;-83.924736;723.23;NaN;0.0;667.8768;;0 / 0;29008;2022-11-01 17:32:22:339
1.3735;-1.2045;10.177;3.4267;0.893;9.145;-1.7919;-1.8366;0.5688;-0.6344;-1.341;-0.1185;31.2;-39.49;84.09;2.85;23.94;-5.22;-20.54;5.0;35.958717;-83.924736;723.23;NaN;0.0;667.8768;;0 / 0;29508;2022-11-01 17:32:22:839
0.1944;1.4686;15.1502;1.4161;-1.0638;9.6454;-0.0881;1.4871;3.1557;0.1855;1.0662;0.0472;19.8;-58.03;82.37;4.65;35.61;6.23;-8.35;5.0;35.958717;-83.924736;723.23;NaN;0.0;667.8768;;0 / 0;30008;2022-11-01 17:32:23:339
0.9571;-0.3084;14.324;-0.8213;0.4677;9.761;1.7653;-0.5946;2.3899;0.7256;1.1497;0.8502;12.5;-59.29;77.74;-5.96;37.26;-2.73;4.81;5.0;35.958717;-83.924736;723.23;NaN;0.0;667.8768;;0 / 0;30509;2022-11-01 17:32:23:840
0.5106;-1.5679;6.3039;2.3032;0.4159;9.5233;-1.5074;-1.674;-3.4338;-0.2494;0.253;-0.618;13.5;-56.93;73.14;-9.3;35.52;-2.89;-14.62;5.0;35.958717;-83.924736;723.23;NaN;0.0;667.8768;;0 / 0;31008;2022-11-01 17:32:24:339
-0.539;1.2733;8.5771;1.0732;-2.609;9.3921;-1.5546;3.727;-0.0737;0.7235;-0.5501;0.2538;13.5;-52.44;62.1;-8.98;42.22;15.43;-6.52;5.0;35.958717;-83.924736;723.23;NaN;0.0;667.8768;;0 / 0;31508;2022-11-01 17:32:24:839
1.0875;-3.5016;11.9566;0.3018;-2.6939;9.4246;1.4814;-0.5014;1.3758;-0.1096;1.1653;0.4692;16.1;-47.21;63.21;-7.84;38.87;15.94;-1.83;5.0;35.958717;-83.924736;723.23;NaN;0.0;667.8768;;0 / 0;32009;2022-11-01 17:32:25:340
0.3969;-2.8158;8.7509;1.0223;-2.6688;9.381;-1.2799;-0.0454;0.0343;-0.3693;0.1859;-1.5402;12.9;-44.53;60.73;-5.79;38.34;15.79;-6.22;5.0;35.958717;-83.924736;723.23;NaN;0.0;667.8768;;0 / 0;32509;2022-11-01 17:32:25:840
-1.2206;-0.1848;6.9826;-0.2319;-1.5756;9.6765;-1.0887;1.5675;-3.019;0.305;-0.0324;0.7254;16.1;-49.54;60.54;-10.72;40.26;7.13;1.04;5.0;35.958717;-83.924736;723.23;NaN;0.0;667.8768;;0 / 0;33008;2022-11-01 17:32:26:339
-2.5899;-2.9524;14.4015;-0.8291;-1.0834;9.7113;-1.7479;-1.4307;4.7613;0.7212;-0.4122;0.9273;21.1;-48.28;68.36;-6.56;35.75;6.34;4.88;5.0;35.958717;-83.924736;723.23;NaN;0.0;667.8768;;0 / 0;33509;2022-11-01 17:32:26:840
0.6054;-2.8367;10.1946;-0.2101;-3.0005;9.334;0.0142;-0.5654;0.3498;-0.007;0.1671;-1.2574;19.2;-48.41;78.6;1.01;32.31;17.82;1.29;5.0;35.958717;-83.924736;723.23;NaN;0.0;667.8768;;0 / 0;34009;2022-11-01 17:32:27:340
0.1741;-1.7578;6.999;0.3312;-2.1697;9.5579;-0.4502;0.7046;-2.9716;0.0661;-0.4649;0.7061;22.5;-61.22;83.98;-6.04;37.17;12.78;-1.98;5.0;35.958717;-83.924736;723.23;NaN;0.0;667.8768;;0 / 0;34508;2022-11-01 17:32:27:839
-0.3302;-4.8867;9.7783;1.0841;-3.5863;9.0628;-2.0978;-2.1608;2.1906;-0.3649;-0.7912;-1.1;19.1;-56.4;94.99;-3.36;32.69;20.55;-2.93;5.0;35.958717;-83.924736;723.23;NaN;0.0;667.8768;;0 / 0;35009;2022-11-01 17:32:28:340
1.2673;-4.4453;14.4571;0.695;-3.0869;9.2822;1.7189;-0.3966;2.1237;0.3969;0.7319;0.1314;16.5;-66.11;91.18;-3.77;38.1;18.35;-4.28;5.0;35.958717;-83.924736;723.23;NaN;0.0;667.8768;;0 / 0;35508;2022-11-01 17:32:28:839
3.1101;-1.3415;9.3703;1.1778;-1.5968;9.6038;2.1151;0.7213;-3.4235;0.8565;0.9156;1.2641;26.9;-64.78;84.39;-13.41;38.37;9.37;-6.99;5.0;35.958717;-83.924736;723.23;NaN;0.0;667.8768;;0 / 0;36008;2022-11-01 17:32:29:339
1.7166;-0.6957;8.1661;2.9465;-0.5018;9.34;-1.4257;-0.2598;-0.5718;-0.3596;-0.8963;-1.0044;26.9;-54.15;78.45;-22.07;30.56;2.93;-17.51;5.0;35.958717;-83.924736;723.23;NaN;0.0;667.8768;;0 / 0;36509;2022-11-01 17:32:29:840
4.6397;-3.1777;12.8483;1.4759;-1.9861;9.4893;3.282;-1.1093;3.062;0.3814;1.1205;-0.7894;26.9;-54.21;67.73;-25.84;39.53;13.66;-12.08;5.0;35.958717;-83.924736;723.23;NaN;0.0;667.8768;;0 / 0;37008;2022-11-01 17:32:30:339
1.5075;-2.1751;8.9827;2.5348;-3.6087;8.7591;-1.2507;0.2071;0.9057;-0.9842;0.7084;-1.3345;63.3;-44.31;64.33;-32.7;37.36;21.59;-16.14;5.0;35.958717;-83.924736;723.23;NaN;0.0;667.8768;;0 / 0;37508;2022-11-01 17:32:30:839
2.6527;-5.6698;8.479;2.3704;-2.1355;9.2731;0.3242;-2.5364;1.4506;0.2353;-0.5892;-0.265;85.5;-45.32;72.71;-27.64;30.01;12.17;-14.54;5.0;35.958717;-83.924736;723.23;NaN;0.0;667.8768;;0 / 0;38008;2022-11-01 17:32:31:339
1.2697;-4.0681;10.3286;0.6221;-4.2726;8.805;1.0122;0.3502;1.2784;-1.6279;0.8628;-0.7463;50.2;-56.46;71.74;-28.76;46.83;25.83;-4.04;5.0;35.958717;-83.924736;723.23;NaN;0.0;667.8768;;0 / 0;38508;2022-11-01 17:32:31:839
0.2085;-5.2412;8.7891;-0.2801;-4.4693;8.7245;0.5312;-0.6919;-0.2577;-1.0323;1.0054;-0.3392;50.2;-62.63;57.3;-31.2;58.11;24.18;-0.91;5.0;35.958717;-83.924736;723.23;NaN;0.0;667.8768;;0 / 0;39008;2022-11-01 17:32:32:339
0.772;-1.5461;9.4633;1.0667;1.5927;9.6175;0.5533;-2.9582;-1.4857;0.4088;-0.4775;-1.9072;65.9;-65.29;31.07;-25.11;59.94;-9.35;-6.33;5.0;35.958717;-83.924736;723.23;NaN;0.0;667.8768;;0 / 0;39509;2022-11-01 17:32:32:840
-3.0425;-0.673;11.2723;0.5152;-1.9593;9.5951;-3.5791;1.0317;5.3201;-0.0254;-0.5372;-0.5331;49.8;-46.18;2.64;-19.22;91.47;11.73;-1.47;5.0;35.958717;-83.924736;723.23;NaN;0.0;667.8768;;0 / 0;40009;2022-11-01 17:32:33:340
-2.2654;-1.9902;13.4414;-1.9224;-1.8988;9.4271;1.6654;-0.4843;1.5486;1.1075;0.8447;1.5479;18.9;-43.33;6.39;-27.69;87.32;11.16;11.53;5.0;35.958717;-83.924736;723.23;NaN;0.0;667.8768;;0 / 0;40508;2022-11-01 17:32:33:839
-0.2492;-2.3833;8.3348;0.0036;-2.5305;9.4745;0.0104;0.3904;-1.9192;-0.5624;0.3372;-0.744;18.9;-49.69;12.23;-22.54;82.79;13.16;-0.83;5.0;35.958717;-83.924736;723.23;NaN;0.0;667.8768;;0 / 0;41009;2022-11-01 17:32:34:340
-0.2779;-0.5569;6.3377;0.6132;-2.861;9.36;-0.8658;2.3001;-3.0524;0.4117;-0.2651;0.8456;18.9;-38.83;20.72;-27.06;72.83;16.96;-3.75;5.0;35.958717;-83.924736;723.23;NaN;0.0;667.8768;;0 / 0;41509;2022-11-01 17:32:34:840
-0.3422;-3.4983;8.7215;0.0089;-2.5975;9.4564;-1.0221;-1.7602;1.1314;0.0512;-0.7736;-0.8727;21.3;-45.39;25.26;-25.33;68.46;15.13;3.4;5.0;35.958717;-83.924736;723.23;NaN;0.0;667.8768;;0 / 0;42008;2022-11-01 17:32:35:339
-0.1717;-3.0577;13.014;0.0023;-2.3799;9.5135;0.0876;-0.3777;1.915;-0.2609;0.2982;-0.5488;18.7;-39.96;26.18;-21.13;63.29;14.04;-0.01;5.0;35.958717;-83.924736;723.23;NaN;0.0;667.8768;;0 / 0;42508;2022-11-01 17:32:35:839
0.0604;-2.7272;8.4924;-0.3363;-3.1764;9.2719;0.412;0.8912;-0.6821;0.255;-0.1309;0.878;18.7;-31.59;32.87;-20.91;52.86;18.9;2.08;5.0;35.958717;-83.924736;723.23;NaN;0.0;667.8768;;0 / 0;43009;2022-11-01 17:32:36:340
-0.2297;-1.6552;6.6485;0.3736;-1.8505;9.6232;-0.6167;0.2413;-3.0176;-0.1185;-0.4365;-0.5062;23.8;-32.93;29.4;-17.12;52.24;10.88;-2.22;5.0;35.958717;-83.924736;723.23;NaN;0.0;667.8768;;0 / 0;43509;2022-11-01 17:32:36:840
-0.7214;-1.4503;9.714;0.9658;-2.4273;9.4523;-2.5291;0.0906;1.3781;0.8582;-0.7514;0.6432;23.8;-29.63;35.36;-17.29;45.77;16.93;-4.26;5.0;35.958717;-83.924736;723.23;NaN;0.0;667.8768;;0 / 0;44009;2022-11-01 17:32:37:340
0.8061;-2.6662;13.6196;1.044;-2.2398;9.4902;0.0161;-0.9709;4.2944;0.1797;-0.4708;-0.1116;32.1;-31.2;38.36;-17.29;41.82;13.2;-6.28;5.0;35.958717;-83.924736;723.23;NaN;0.0;667.8768;;0 / 0;44509;2022-11-01 17:32:37:840
2.6749;-4.1871;9.7929;2.32;-3.0047;9.0421;0.3739;-0.5783;-1.9125;0.0276;0.5554;-0.3971;32.1;-31.13;44.93;-18.51;36.0;17.84;-14.39;5.0;35.958717;-83.924736;723.23;NaN;0.0;667.8768;;0 / 0;45009;2022-11-01 17:32:38:340
1.0887;-3.0168;7.4707;0.5826;-3.4622;9.1566;-0.3887;1.9487;-2.3861;0.004;-0.0496;0.4714;73.0;-29.79;55.03;-19.44;33.09;20.67;-3.64;5.0;35.958717;-83.924736;723.23;NaN;0.0;667.8768;;0 / 0;45509;2022-11-01 17:32:38:840
0.3167;-4.2568;8.0414;0.8207;-3.4929;9.1267;0.0909;-0.4354;-1.2675;0.6525;-0.0517;-0.6928;100.1;-30.34;59.08;-21.04;32.18;23.16;-4.12;5.0;35.958717;-83.924736;723.23;NaN;0.0;667.8768;;0 / 0;46008;2022-11-01 17:32:39:339
2.4135;-3.7172;11.645;0.7986;-2.7956;9.3658;1.213;-1.1129;2.3884;0.2085;0.3623;0.0223;127.7;-39.54;60.09;-27.51;37.64;16.56;-4.87;5.0;35.958717;-83.924736;723.23;NaN;0.0;667.8768;;0 / 1;46509;2022-11-01 17:32:39:840
2.15;-2.6231;10.4934;0.6956;-2.9902;9.3137;2.1003;1.1415;0.2469;-0.3809;0.1345;-0.2307;147.3;-43.84;51.88;-34.84;47.45;17.75;-4.27;5.0;35.958717;-83.924736;723.23;NaN;0.0;667.8768;;0 / 1;47008;2022-11-01 17:32:40:339
3.4774;-5.9285;6.8183;2.5111;-3.3782;8.8573;0.5413;-2.9918;-1.1077;-1.2144;0.7122;-0.226;147.3;-48.45;39.36;-40.41;61.88;20.15;-15.83;5.0;35.958717;-83.924736;723.23;NaN;0.0;667.8768;;0 / 1;47508;2022-11-01 17:32:40:839
0.3784;-2.5433;12.4493;1.9834;-2.4715;9.2805;-0.192;-0.2028;2.895;-0.5072;0.04;-1.011;164.9;-37.22;36.53;-45.47;48.82;13.56;-11.45;5.0;35.958717;-83.924736;723.23;NaN;0.0;667.8768;;0 / 1;48008;2022-11-01 17:32:41:339
3.4143;-3.6703;10.3786;2.3784;-2.8591;9.0741;0.6665;-1.1997;1.7886;0.3136;-0.1254;-0.7274;117.1;-36.53;35.03;-47.21;53.77;16.95;-14.69;5.0;35.958717;-83.924736;723.23;NaN;0.0;667.8768;;0 / 1;48508;2022-11-01 17:32:41:839
1.2858;-2.3961;7.4719;2.9377;-1.0093;9.3017;-2.8533;-1.8853;-0.3521;-1.058;0.1949;-0.7121;105.4;-31.57;36.41;-38.36;31.53;5.91;-17.53;5.0;35.958717;-83.924736;723.23;NaN;0.0;667.8768;;0 / 1;49009;2022-11-01 17:32:42:340
0.6508;-2.2502;7.247;2.0183;-2.7245;9.2018;-2.1674;0.5766;-0.8647;-0.1649;-0.3501;-1.199;58.8;-27.06;47.25;-34.16;29.63;15.81;-11.42;5.0;35.958717;-83.924736;723.23;NaN;0.0;667.8768;;0 / 1;49509;2022-11-01 17:32:42:840
0.0867;-3.5641;13.9253;1.0055;-3.6629;9.0411;-0.9772;0.2702;4.7673;-0.4726;-0.2865;-1.1289;35.5;-27.07;50.42;-35.49;37.1;22.17;-3.94;5.0;35.958717;-83.924736;723.23;NaN;0.0;667.8768;;0 / 1;50009;2022-11-01 17:32:43:340
1.8305;-3.2231;8.2834;1.4333;-3.2035;9.1572;0.2622;0.0492;-0.9638;-0.0459;0.0603;-0.3726;12.8;-36.45;50.14;-42.13;42.36;19.07;-8.9;5.0;35.958717;-83.924736;723.23;NaN;0.0;667.8768;;0 / 1;50509;2022-11-01 17:32:43:840
1.2751;-1.0905;6.2447;1.8045;-2.8505;9.2081;-1.4399;1.3878;-3.5781;0.643;0.2153;0.5171;12.8;-39.51;42.77;-46.09;49.7;16.9;-11.09;5.0;35.958717;-83.924736;723.23;NaN;0.0;667.8768;;0 / 1;51009;2022-11-01 17:32:44:340
0.2946;-4.3681;8.7266;1.7583;-2.9535;9.1845;-1.9405;-2.1608;1.0478;-0.1778;-0.5162;-0.9577;12.6;-42.99;44.29;-46.71;52.51;17.53;-10.84;5.0;35.958717;-83.924736;723.23;NaN;0.0;667.8768;;0 / 1;51508;2022-11-01 17:32:44:839
-1.1761;-1.1779;13.1871;0.7048;-1.8939;9.5962;-0.7974;0.2939;3.2446;0.1187;0.145;0.2399;12.6;-44.53;49.46;-44.49;46.81;11.34;-4.73;5.0;35.958717;-83.924736;723.23;NaN;0.0;667.8768;;0 / 1;52008;2022-11-01 17:32:45:339
-0.0673;-2.1742;14.3907;-0.3447;-1.734;9.646;1.2461;-0.9208;1.7037;0.4368;0.4708;0.6192;14.7;-40.01;49.99;-46.48;45.19;10.18;2.05;5.0;35.958717;-83.924736;723.23;NaN;0.0;667.8768;;0 / 1;52508;2022-11-01 17:32:45:839
1.7073;-3.6015;7.8939;1.3846;-3.508;9.0525;0.2945;0.1383;-2.0291;0.108;0.288;-0.695;14.7;-38.79;60.75;-42.34;38.59;20.69;-8.75;5.0;35.958717;-83.924736;723.23;NaN;0.0;667.8768;;0 / 1;53008;2022-11-01 17:32:46:339
-1.8485;-0.2605;8.2403;0.2246;-2.2268;9.5478;-1.8865;2.4305;-1.4014;-0.0331;-0.0091;0.7742;15.0;-37.09;69.21;-40.05;31.9;13.12;-1.35;5.0;35.958717;-83.924736;723.23;NaN;0.0;667.8768;;0 / 1;53509;2022-11-01 17:32:46:840
-1.8832;-2.7604;12.1705;0.1787;-2.0749;9.583;-2.3036;-0.6999;4.3772;-0.1936;-0.7245;-0.5126;16.9;-29.23;70.24;-39.36;26.28;11.18;1.89;5.0;35.958717;-83.924736;723.23;NaN;0.0;667.8768;;0 / 1;54008;2022-11-01 17:32:47:339
-0.2357;-2.6396;12.6425;0.3028;-2.0602;9.583;0.9211;-0.8923;0.7529;0.4495;0.7357;-0.538;16.2;-33.43;73.35;-38.57;26.76;12.13;-1.81;5.0;35.958717;-83.924736;723.23;NaN;0.0;667.8768;;0 / 1;54508;2022-11-01 17:32:47:839
1.2006;-0.5079;8.5265;0.0375;-1.438;9.7006;0.9278;1.2467;-1.7735;0.2174;-0.2046;0.71;18.3;-34.07;67.97;-41.91;29.15;9.05;-0.34;5.0;35.958717;-83.924736;723.23;NaN;0.0;667.8768;;0 / 1;55009;2022-11-01 17:32:48:340
1.1192;-2.5355;7.0493;1.9293;-2.2521;9.3475;-1.366;-0.3125;-2.2549;-0.4369;-0.1495;-0.7045;16.4;-39.64;67.5;-46.71;28.9;13.28;-11.66;5.0;35.958717;-83.924736;723.23;NaN;0.0;667.8768;;0 / 1;55509;2022-11-01 17:32:48:840
2.479;-3.655;13.9585;1.3486;-1.4483;9.6049;1.7954;-2.4654;4.2539;0.5518;0.0673;-0.6303;12.5;-41.7;65.72;-49.2;32.67;10.11;-7.12;5.0;35.958717;-83.924736;723.23;NaN;0.0;667.8768;;0 / 1;56008;2022-11-01 17:32:49:339
2.1132;-1.0394;9.9347;1.155;-2.4919;9.4142;0.42;2.0126;-0.0559;-0.2352;0.4675;0.0487;19.7;-34.46;61.18;-52.37;31.45;14.72;-6.99;5.0;35.958717;-83.924736;723.23;NaN;0.0;667.8768;;0 / 1;56508;2022-11-01 17:32:49:839
3.2686;-4.4668;6.9335;2.2802;-1.947;9.337;-0.5274;-2.4595;-0.7017;-0.2663;0.1184;-0.8728;28.2;-33.75;63.54;-48.36;23.14;10.88;-12.85;5.0;35.958717;-83.924736;723.23;NaN;0.0;667.8768;;0 / 1;57009;2022-11-01 17:32:50:340
1.8108;-3.1502;12.1241;1.4414;-2.9188;9.2506;-0.9846;-0.0404;3.0201;0.3664;0.3299;-0.461;34.0;-38.01;65.25;-41.14;32.91;17.32;-8.86;5.0;35.958717;-83.924736;723.23;NaN;0.0;667.8768;;0 / 1;57508;2022-11-01 17:32:50:839
1.541;-2.3518;7.9394;1.6449;-3.7403;8.9149;-0.4932;1.4876;-0.7611;-0.348;-0.0867;-0.2451;46.0;-38.66;66.06;-38.61;35.21;21.51;-9.99;5.0;35.958717;-83.924736;723.23;NaN;0.0;667.8768;;0 / 1;58008;2022-11-01 17:32:51:339
1.2963;-1.8924;8.1144;1.5218;-1.2002;9.6132;-0.2488;-0.6878;-1.6345;1.021;-0.089;-0.4488;53.0;-43.99;67.24;-39.96;31.46;7.03;-9.0;5.0;35.958717;-83.924736;723.23;NaN;0.0;667.8768;;0 / 1;58508;2022-11-01 17:32:51:839
2.659;-4.2984;11.3821;1.926;-3.7349;8.8607;0.6757;0.6324;1.2697;-0.3978;0.6891;-0.7526;53.0;-51.6;64.33;-41.25;45.57;21.41;-12.82;5.0;35.958717;-83.924736;723.23;NaN;0.0;667.8768;;0 / 1;59009;2022-11-01 17:32:52:340
1.5386;-2.6085;8.5026;2.3934;-3.6888;8.7655;-1.1408;1.0049;-1.3854;-0.0289;0.2237;-0.2086;60.9;-58.86;53.46;-40.86;58.39;22.1;-15.27;5.0;35.958717;-83.924736;723.23;NaN;0.0;667.8768;;0 / 1;59509;2022-11-01 17:32:52:840
3.7702;-4.5084;6.4178;3.2579;-2.7943;8.8175;-0.0882;-1.0966;1.3618;0.3449;-0.2678;-0.1226;60.9;-60.73;48.69;-37.74;55.05;16.56;-20.28;5.0;35.958717;-83.924736;723.23;NaN;0.0;667.8768;;0 / 1;60008;2022-11-01 17:32:53:339
2.1443;-4.7261;11.1171;1.8133;-4.098;8.7229;0.3062;-0.6953;2.5025;-0.5114;0.6234;-0.2363;55.3;-57.02;41.87;-36.6;69.37;24.7;-11.74;5.0;35.958717;-83.924736;723.23;NaN;0.0;667.8768;;0 / 2;60508;2022-11-01 17:32:53:839
-2.0955;-2.3539;8.8696;1.7657;-4.1017;8.7309;-3.8483;1.697;0.5014;0.284;-0.2885;0.1096;35.5;-51.22;42.66;-39.66;67.3;25.47;-11.09;5.0;35.958717;-83.924736;723.23;NaN;0.0;667.8768;;0 / 2;61009;2022-11-01 17:32:54:340
1.0917;-3.8369;9.5207;1.1581;-3.8032;8.9646;0.4537;1.1378;-1.7094;0.284;-0.2885;0.1096;23.1;-50.01;43.37;-40.39;65.74;24.72;-11.43;5.0;35.958717;-83.924736;723.23;NaN;0.0;667.8768;;0 / 2;61509;2022-11-01 17:32:54:840
2.2744;-4.6825;11.2555;1.1581;-3.8032;8.9646;0.4537;1.1378;-1.7094;0.284;-0.2885;0.1096;23.1;-50.01;43.37;-40.39;65.74;24.72;-11.43;5.0;35.958717;-83.924736;723.23;NaN;0.0;667.8768;;0 / 2;62008;2022-11-01 17:32:55:339
1.5682;-2.706;6.7442;1.1581;-3.8032;8.9646;0.4537;1.1378;-1.7094;0.284;-0.2885;0.1096;23.1;-50.01;43.37;-40.39;65.74;24.72;-11.43;5.0;35.958717;-83.924736;723.23;NaN;0.0;667.8768;;0 / 2;62508;2022-11-01 17:32:55:839
1.3762;-3.6823;11.6492;1.1581;-3.8032;8.9646;0.4537;1.1378;-1.7094;0.284;-0.2885;0.1096;23.1;-50.01;43.37;-40.39;65.74;24.72;-11.43;5.0;35.958717;-83.924736;723.23;NaN;0.0;667.8768;;0 / 2;63008;2022-11-01 17:32:56:339
1.7674;-4.4521;10.8595;1.1581;-3.8032;8.9646;0.4537;1.1378;-1.7094;0.284;-0.2885;0.1096;23.1;-50.01;43.37;-40.39;65.74;24.72;-11.43;5.0;35.958717;-83.924736;723.23;NaN;0.0;667.8768;;0 / 2;63508;2022-11-01 17:32:56:839
1.0241;-2.5756;8.4377;1.1581;-3.8032;8.9646;0.4537;1.1378;-1.7094;0.284;-0.2885;0.1096;35.7;-50.01;43.37;-40.39;65.74;24.72;-11.43;5.0;35.958717;-83.924736;723.23;NaN;0.0;667.8768;;0 / 2;64009;2022-11-01 17:32:57:340
3.6826;-3.536;8.849;1.1581;-3.8032;8.9646;0.4537;1.1378;-1.7094;0.284;-0.2885;0.1096;35.7;-50.01;43.37;-40.39;65.74;24.72;-11.43;5.0;35.958717;-83.924736;723.23;NaN;0.0;667.8768;;0 / 2;64508;2022-11-01 17:32:57:839
-0.5919;-1.8661;11.787;1.1581;-3.8032;8.9646;0.4537;1.1378;-1.7094;0.284;-0.2885;0.1096;49.4;-50.01;43.37;-40.39;65.74;24.72;-11.43;5.0;35.958717;-83.924736;723.23;NaN;0.0;667.8768;;0 / 2;65008;2022-11-01 17:32:58:339
1.2607;-3.8369;12.0347;1.1581;-3.8032;8.9646;0.4537;1.1378;-1.7094;0.284;-0.2885;0.1096;107.0;-50.01;43.37;-40.39;65.74;24.72;-11.43;5.0;35.958717;-83.924736;723.23;NaN;0.0;667.8768;;0 / 2;65508;2022-11-01 17:32:58:839
1.5541;-2.9821;7.1498;1.1581;-3.8032;8.9646;0.4537;1.1378;-1.7094;0.284;-0.2885;0.1096;129.5;-50.01;43.37;-40.39;65.74;24.72;-11.43;5.0;35.958717;-83.924736;723.23;NaN;0.0;667.8768;;0 / 2;66008;2022-11-01 17:32:59:339
0.3236;-2.2621;7.3014;1.1581;-3.8032;8.9646;0.4537;1.1378;-1.7094;0.284;-0.2885;0.1096;167.6;-50.01;43.37;-40.39;65.74;24.72;-11.43;5.0;35.958717;-83.924736;723.23;NaN;0.0;667.8768;;0 / 2;66508;2022-11-01 17:32:59:839
1.7533;-4.4593;11.1715;1.1581;-3.8032;8.9646;0.4537;1.1378;-1.7094;0.284;-0.2885;0.1096;202.0;-50.01;43.37;-40.39;65.74;24.72;-11.43;5.0;35.958717;-83.924736;723.23;NaN;0.0;667.8768;;0 / 2;67008;2022-11-01 17:33:00:339
3.9628;-4.0857;11.7709;1.1581;-3.8032;8.9646;0.4537;1.1378;-1.7094;0.284;-0.2885;0.1096;202.0;-50.01;43.37;-40.39;65.74;24.72;-11.43;5.0;35.958717;-83.924736;723.23;NaN;0.0;667.8768;;0 / 2;67508;2022-11-01 17:33:00:839
1.3196;0.3476;6.6733;1.1581;-3.8032;8.9646;0.4537;1.1378;-1.7094;0.284;-0.2885;0.1096;232.3;-50.01;43.37;-40.39;65.74;24.72;-11.43;5.0;35.958717;-83.924736;723.23;NaN;0.0;667.8768;;0 / 2;68009;2022-11-01 17:33:01:340
2.7069;-3.4274;8.0845;1.1581;-3.8032;8.9646;0.4537;1.1378;-1.7094;0.284;-0.2885;0.1096;205.3;-50.01;43.37;-40.39;65.74;24.72;-11.43;5.0;35.958717;-83.924736;723.23;NaN;0.0;667.8768;;0 / 2;68510;2022-11-01 17:33:01:841
2.7508;-2.5331;8.4416;1.1581;-3.8032;8.9646;0.4537;1.1378;-1.7094;0.284;-0.2885;0.1096;205.3;-50.01;43.37;-40.39;65.74;24.72;-11.43;5.0;35.958717;-83.924736;723.23;NaN;0.0;667.8768;;0 / 2;69008;2022-11-01 17:33:02:339
-0.6153;-2.5597;8.6225;1.1581;-3.8032;8.9646;0.4537;1.1378;-1.7094;0.284;-0.2885;0.1096;130.4;-50.01;43.37;-40.39;65.74;24.72;-11.43;5.0;35.958717;-83.924736;723.23;NaN;0.0;667.8768;;0 / 2;69509;2022-11-01 17:33:02:840
3.6147;-3.9416;9.1196;1.1581;-3.8032;8.9646;0.4537;1.1378;-1.7094;0.284;-0.2885;0.1096;102.4;-50.01;43.37;-40.39;65.74;24.72;-11.43;5.0;35.958717;-83.924736;723.23;NaN;0.0;667.8768;;0 / 2;70008;2022-11-01 17:33:03:339
1.287;-4.06;10.1243;1.1581;-3.8032;8.9646;0.4537;1.1378;-1.7094;0.284;-0.2885;0.1096;69.5;-50.01;43.37;-40.39;65.74;24.72;-11.43;5.0;35.958717;-83.924736;723.23;NaN;0.0;667.8768;;0 / 2;70509;2022-11-01 17:33:03:840
1.1354;-1.7764;8.5301;1.1581;-3.8032;8.9646;0.4537;1.1378;-1.7094;0.284;-0.2885;0.1096;16.5;-50.01;43.37;-40.39;65.74;24.72;-11.43;5.0;35.958717;-83.924736;723.23;NaN;0.0;667.8768;;0 / 2;71009;2022-11-01 17:33:04:340
0.5913;-2.8926;10.0681;1.1581;-3.8032;8.9646;0.4537;1.1378;-1.7094;0.284;-0.2885;0.1096;16.5;-50.01;43.37;-40.39;65.74;24.72;-11.43;5.0;35.958717;-83.924736;723.23;NaN;0.0;667.8768;;0 / 2;71508;2022-11-01 17:33:04:839
1.5652;-3.0287;11.7054;1.1581;-3.8032;8.9646;0.4537;1.1378;-1.7094;0.284;-0.2885;0.1096;16.5;-50.01;43.37;-40.39;65.74;24.72;-11.43;5.0;35.958717;-83.924736;723.23;NaN;0.0;667.8768;;0 / 2;72008;2022-11-01 17:33:05:339
1.1865;-0.4582;8.5576;1.1581;-3.8032;8.9646;0.4537;1.1378;-1.7094;0.284;-0.2885;0.1096;16.5;-50.01;43.37;-40.39;65.74;24.72;-11.43;5.0;35.958717;-83.924736;723.23;NaN;0.0;667.8768;;0 / 2;72508;2022-11-01 17:33:05:839
0.8234;-0.7507;7.6516;1.1581;-3.8032;8.9646;0.4537;1.1378;-1.7094;0.284;-0.2885;0.1096;17.0;-50.01;43.37;-40.39;65.74;24.72;-11.43;5.0;35.958717;-83.924736;723.23;NaN;0.0;667.8768;;0 / 2;73009;2022-11-01 17:33:06:340
3.0488;1.1492;11.939;1.1581;-3.8032;8.9646;0.4537;1.1378;-1.7094;0.284;-0.2885;0.1096;17.0;-50.01;43.37;-40.39;65.74;24.72;-11.43;5.0;35.958717;-83.924736;723.23;NaN;0.0;667.8768;;0 / 2;73508;2022-11-01 17:33:06:839
1.9023;2.5119;9.8877;1.1581;-3.8032;8.9646;0.4537;1.1378;-1.7094;0.284;-0.2885;0.1096;17.0;-50.01;43.37;-40.39;65.74;24.72;-11.43;5.0;35.958717;-83.924736;723.23;NaN;0.0;667.8768;;0 / 2;74009;2022-11-01 17:33:07:340
0.597;1.212;9.7295;1.1581;-3.8032;8.9646;0.4537;1.1378;-1.7094;0.284;-0.2885;0.1096;17.2;-50.01;43.37;-40.39;65.74;24.72;-11.43;5.0;35.958717;-83.924736;723.23;NaN;0.0;667.8768;;0 / 2;74509;2022-11-01 17:33:07:840
2.0728;1.6487;14.5235;1.1581;-3.8032;8.9646;0.4537;1.1378;-1.7094;0.284;-0.2885;0.1096;15.3;-50.01;43.37;-40.39;65.74;24.72;-11.43;5.0;35.958717;-83.924736;723.23;NaN;0.0;667.8768;;0 / 2;75009;2022-11-01 17:33:08:340
2.1682;1.5413;7.0292;1.1581;-3.8032;8.9646;0.4537;1.1378;-1.7094;0.284;-0.2885;0.1096;22.6;-50.01;43.37;-40.39;65.74;24.72;-11.43;5.0;35.958717;-83.924736;723.23;NaN;0.0;667.8768;;0 / 2;75508;2022-11-01 17:33:08:839
3.7062;2.1308;10.6044;1.1581;-3.8032;8.9646;0.4537;1.1378;-1.7094;0.284;-0.2885;0.1096;16.6;-50.01;43.37;-40.39;65.74;24.72;-11.43;5.0;35.958717;-83.924736;723.23;NaN;0.0;667.8768;;0 / 2;76008;2022-11-01 17:33:09:339
2.1742;-0.1448;11.257;1.1581;-3.8032;8.9646;0.4537;1.1378;-1.7094;0.284;-0.2885;0.1096;16.1;-50.01;43.37;-40.39;65.74;24.72;-11.43;5.0;35.958717;-83.924736;723.23;NaN;0.0;667.8768;;0 / 2;76509;2022-11-01 17:33:09:840
-0.5417;2.7018;10.64;1.1581;-3.8032;8.9646;0.4537;1.1378;-1.7094;0.284;-0.2885;0.1096;25.6;-50.01;43.37;-40.39;65.74;24.72;-11.43;5.0;35.958717;-83.924736;723.23;NaN;0.0;667.8768;;0 / 2;77008;2022-11-01 17:33:10:339
2.6234;1.0463;10.7901;1.1581;-3.8032;8.9646;0.4537;1.1378;-1.7094;0.284;-0.2885;0.1096;17.4;-50.01;43.37;-40.39;65.74;24.72;-11.43;5.0;35.958717;-83.924736;723.23;NaN;0.0;667.8768;;0 / 2;77509;2022-11-01 17:33:10:840
2.0321;-0.1352;8.4159;1.1581;-3.8032;8.9646;0.4537;1.1378;-1.7094;0.284;-0.2885;0.1096;20.3;-50.01;43.37;-40.39;65.74;24.72;-11.43;5.0;35.958717;-83.924736;723.23;NaN;0.0;667.8768;;0 / 2;78008;2022-11-01 17:33:11:339
3.1726;0.7651;9.4035;1.1581;-3.8032;8.9646;0.4537;1.1378;-1.7094;0.284;-0.2885;0.1096;20.3;-50.01;43.37;-40.39;65.74;24.72;-11.43;5.0;35.958717;-83.924736;723.23;NaN;0.0;667.8768;;0 / 2;78509;2022-11-01 17:33:11:840
3.0395;1.9367;8.4377;1.1581;-3.8032;8.9646;0.4537;1.1378;-1.7094;0.284;-0.2885;0.1096;23.0;-50.01;43.37;-40.39;65.74;24.72;-11.43;5.0;35.958717;-83.924736;723.23;NaN;0.0;667.8768;;0 / 2;79008;2022-11-01 17:33:12:339
2.0824;-0.8001;9.4107;1.1581;-3.8032;8.9646;0.4537;1.1378;-1.7094;0.284;-0.2885;0.1096;27.1;-50.01;43.37;-40.39;65.74;24.72;-11.43;5.0;35.958717;-83.924736;723.23;NaN;0.0;667.8768;;0 / 2;79509;2022-11-01 17:33:12:840
2.5905;1.5891;11.1518;1.1581;-3.8032;8.9646;0.4537;1.1378;-1.7094;0.284;-0.2885;0.1096;38.5;-50.01;43.37;-40.39;65.74;24.72;-11.43;5.0;35.958717;-83.924736;723.23;NaN;0.0;667.8768;;0 / 2;80008;2022-11-01 17:33:13:339
3.3087;1.7901;8.6916;1.1581;-3.8032;8.9646;0.4537;1.1378;-1.7094;0.284;-0.2885;0.1096;45.5;-50.01;43.37;-40.39;65.74;24.72;-11.43;5.0;35.958717;-83.924736;723.23;NaN;0.0;667.8768;;0 / 2;80509;2022-11-01 17:33:13:840
1.9621;1.3507;8.8011;1.1581;-3.8032;8.9646;0.4537;1.1378;-1.7094;0.284;-0.2885;0.1096;45.5;-50.01;43.37;-40.39;65.74;24.72;-11.43;5.0;35.958717;-83.924736;723.23;NaN;0.0;667.8768;;0 / 2;81008;2022-11-01 17:33:14:339
3.4116;0.1825;8.9429;1.1581;-3.8032;8.9646;0.4537;1.1378;-1.7094;0.284;-0.2885;0.1096;45.5;-50.01;43.37;-40.39;65.74;24.72;-11.43;5.0;35.958717;-83.924736;723.23;NaN;0.0;667.8768;;0 / 2;81509;2022-11-01 17:33:14:840
1.9884;1.0146;8.3569;1.1581;-3.8032;8.9646;0.4537;1.1378;-1.7094;0.284;-0.2885;0.1096;50.9;-50.01;43.37;-40.39;65.74;24.72;-11.43;5.0;35.958717;-83.924736;723.23;NaN;0.0;667.8768;;0 / 2;82009;2022-11-01 17:33:15:340
3.5166;1.6451;9.0864;1.1581;-3.8032;8.9646;0.4537;1.1378;-1.7094;0.284;-0.2885;0.1096;58.5;-50.01;43.37;-40.39;65.74;24.72;-11.43;5.0;35.958717;-83.924736;723.23;NaN;0.0;667.8768;;0 / 2;82508;2022-11-01 17:33:15:839
2.0997;-0.2653;8.8863;1.1581;-3.8032;8.9646;0.4537;1.1378;-1.7094;0.284;-0.2885;0.1096;58.5;-50.01;43.37;-40.39;65.74;24.72;-11.43;5.0;35.958717;-83.924736;723.23;NaN;0.0;667.8768;;0 / 2;83008;2022-11-01 17:33:16:339
0.3003;3.0799;11.3611;1.1581;-3.8032;8.9646;0.4537;1.1378;-1.7094;0.284;-0.2885;0.1096;48.3;-50.01;43.37;-40.39;65.74;24.72;-11.43;5.0;35.958717;-83.924736;723.23;NaN;0.0;667.8768;;0 / 2;83509;2022-11-01 17:33:16:840
1.7725;2.1733;12.1564;1.1581;-3.8032;8.9646;0.4537;1.1378;-1.7094;0.284;-0.2885;0.1096;29.8;-50.01;43.37;-40.39;65.74;24.72;-11.43;5.0;35.958717;-83.924736;723.23;NaN;0.0;667.8768;;0 / 2;84008;2022-11-01 17:33:17:339
1.2655;2.0252;8.5696;1.1581;-3.8032;8.9646;0.4537;1.1378;-1.7094;0.284;-0.2885;0.1096;29.8;-50.01;43.37;-40.39;65.74;24.72;-11.43;5.0;35.958717;-83.924736;723.23;NaN;0.0;667.8768;;0 / 2;84509;2022-11-01 17:33:17:840
1.2024;3.1519;7.075;1.1581;-3.8032;8.9646;0.4537;1.1378;-1.7094;0.284;-0.2885;0.1096;21.5;-50.01;43.37;-40.39;65.74;24.72;-11.43;5.0;35.958717;-83.924736;723.23;NaN;0.0;667.8768;;0 / 2;85008;2022-11-01 17:33:18:339
1.5203;2.7024;10.716;1.1581;-3.8032;8.9646;0.4537;1.1378;-1.7094;0.284;-0.2885;0.1096;21.5;-50.01;43.37;-40.39;65.74;24.72;-11.43;5.0;35.958717;-83.924736;723.23;NaN;0.0;667.8768;;0 / 2;85509;2022-11-01 17:33:18:840
1.4091;1.2185;9.7403;1.1581;-3.8032;8.9646;0.4537;1.1378;-1.7094;0.284;-0.2885;0.1096;25.8;-50.01;43.37;-40.39;65.74;24.72;-11.43;5.0;35.958717;-83.924736;723.23;NaN;0.0;667.8768;;0 / 2;86008;2022-11-01 17:33:19:339
-0.0383;1.9531;8.9761;1.1581;-3.8032;8.9646;0.4537;1.1378;-1.7094;0.284;-0.2885;0.1096;23.2;-50.01;43.37;-40.39;65.74;24.72;-11.43;5.0;35.958717;-83.924736;723.23;NaN;0.0;667.8768;;0 / 2;86509;2022-11-01 17:33:19:840
-0.5856;1.3196;12.6365;1.1581;-3.8032;8.9646;0.4537;1.1378;-1.7094;0.284;-0.2885;0.1096;32.3;-50.01;43.37;-40.39;65.74;24.72;-11.43;5.0;35.958717;-83.924736;723.23;NaN;0.0;667.8768;;0 / 2;87008;2022-11-01 17:33:20:339
-1.1333;-1.7856;7.6702;1.1581;-3.8032;8.9646;0.4537;1.1378;-1.7094;0.284;-0.2885;0.1096;36.7;-50.01;43.37;-40.39;65.74;24.72;-11.43;5.0;35.958717;-83.924736;723.23;NaN;0.0;667.8768;;0 / 2;87509;2022-11-01 17:33:20:840
-1.8482;-2.3674;9.2868;1.1581;-3.8032;8.9646;0.4537;1.1378;-1.7094;0.284;-0.2885;0.1096;41.1;-50.01;43.37;-40.39;65.74;24.72;-11.43;5.0;35.958717;-83.924736;723.23;NaN;0.0;667.8768;;0 / 2;88009;2022-11-01 17:33:21:340
-2.0614;-0.2336;9.7469;1.1581;-3.8032;8.9646;0.4537;1.1378;-1.7094;0.284;-0.2885;0.1096;84.6;-50.01;43.37;-40.39;65.74;24.72;-11.43;5.0;35.958717;-83.924736;723.23;NaN;0.0;667.8768;;0 / 2;88508;2022-11-01 17:33:21:839
-1.3334;1.2287;8.4535;1.1581;-3.8032;8.9646;0.4537;1.1378;-1.7094;0.284;-0.2885;0.1096;75.6;-50.01;43.37;-40.39;65.74;24.72;-11.43;5.0;35.958717;-83.924736;723.23;NaN;0.0;667.8768;;0 / 2;89009;2022-11-01 17:33:22:340
4.0684;1.7013;12.3386;1.1581;-3.8032;8.9646;0.4537;1.1378;-1.7094;0.284;-0.2885;0.1096;56.1;-50.01;43.37;-40.39;65.74;24.72;-11.43;5.0;35.958717;-83.924736;723.23;NaN;0.0;667.8768;;0 / 2;89508;2022-11-01 17:33:22:839
2.3572;1.0155;6.478;1.1581;-3.8032;8.9646;0.4537;1.1378;-1.7094;0.284;-0.2885;0.1096;64.6;-50.01;43.37;-40.39;65.74;24.72;-11.43;5.0;35.958717;-83.924736;723.23;NaN;0.0;667.8768;;0 / 2;90008;2022-11-01 17:33:23:339
-0.2333;1.2209;8.6082;1.1581;-3.8032;8.9646;0.4537;1.1378;-1.7094;0.284;-0.2885;0.1096;77.1;-50.01;43.37;-40.39;65.74;24.72;-11.43;5.0;35.958717;-83.924736;723.23;NaN;0.0;667.8768;;0 / 2;90509;2022-11-01 17:33:23:840
2.0067;1.3603;10.0343;1.1581;-3.8032;8.9646;0.4537;1.1378;-1.7094;0.284;-0.2885;0.1096;96.5;-50.01;43.37;-40.39;65.74;24.72;-11.43;5.0;35.958717;-83.924736;723.23;NaN;0.0;667.8768;;0 / 2;91009;2022-11-01 17:33:24:340
1.777;2.6512;8.8256;1.1581;-3.8032;8.9646;0.4537;1.1378;-1.7094;0.284;-0.2885;0.1096;96.5;-50.01;43.37;-40.39;65.74;24.72;-11.43;5.0;35.958717;-83.924736;723.23;NaN;0.0;667.8768;;0 / 2;91508;2022-11-01 17:33:24:839
-0.4765;0.7848;8.4114;1.1581;-3.8032;8.9646;0.4537;1.1378;-1.7094;0.284;-0.2885;0.1096;108.9;-50.01;43.37;-40.39;65.74;24.72;-11.43;5.0;35.958717;-83.924736;723.23;NaN;0.0;667.8768;;0 / 2;92009;2022-11-01 17:33:25:340
0.4624;0.213;8.6892;1.1581;-3.8032;8.9646;0.4537;1.1378;-1.7094;0.284;-0.2885;0.1096;127.8;-50.01;43.37;-40.39;65.74;24.72;-11.43;5.0;35.958717;-83.924736;723.23;NaN;0.0;667.8768;;0 / 2;92508;2022-11-01 17:33:25:839
-0.6876;0.3945;9.3691;1.1581;-3.8032;8.9646;0.4537;1.1378;-1.7094;0.284;-0.2885;0.1096;145.6;-50.01;43.37;-40.39;65.74;24.72;-11.43;5.0;35.958717;-83.924736;723.23;NaN;0.0;667.8768;;0 / 2;93009;2022-11-01 17:33:26:340
-0.8417;-1.0175;10.6331;1.1581;-3.8032;8.9646;0.4537;1.1378;-1.7094;0.284;-0.2885;0.1096;106.8;-50.01;43.37;-40.39;65.74;24.72;-11.43;5.0;35.958717;-83.924736;723.23;NaN;0.0;667.8768;;0 / 2;93508;2022-11-01 17:33:26:839
-0.396;0.5581;9.9954;1.1581;-3.8032;8.9646;0.4537;1.1378;-1.7094;0.284;-0.2885;0.1096;83.9;-50.01;43.37;-40.39;65.74;24.72;-11.43;5.0;35.958717;-83.924736;723.23;NaN;0.0;667.8768;;0 / 2;94009;2022-11-01 17:33:27:340
-1.025;2.1915;9.0745;1.1581;-3.8032;8.9646;0.4537;1.1378;-1.7094;0.284;-0.2885;0.1096;83.9;-50.01;43.37;-40.39;65.74;24.72;-11.43;5.0;35.958717;-83.924736;723.23;NaN;0.0;667.8768;;0 / 2;94508;2022-11-01 17:33:27:839
2.0411;1.2242;9.9443;1.1581;-3.8032;8.9646;0.4537;1.1378;-1.7094;0.284;-0.2885;0.1096;67.1;-50.01;43.37;-40.39;65.74;24.72;-11.43;5.0;35.958717;-83.924736;723.23;NaN;0.0;667.8768;;0 / 2;95009;2022-11-01 17:33:28:340
2.1371;0.361;8.849;1.1581;-3.8032;8.9646;0.4537;1.1378;-1.7094;0.284;-0.2885;0.1096;70.7;-50.01;43.37;-40.39;65.74;24.72;-11.43;5.0;35.958717;-83.924736;723.23;NaN;0.0;667.8768;;0 / 2;95508;2022-11-01 17:33:28:839
-0.2097;2.8289;7.695;1.1581;-3.8032;8.9646;0.4537;1.1378;-1.7094;0.284;-0.2885;0.1096;69.4;-50.01;43.37;-40.39;65.74;24.72;-11.43;5.0;35.958717;-83.924736;723.23;NaN;0.0;667.8768;;0 / 2;96009;2022-11-01 17:33:29:340
0.1938;2.5223;8.6294;1.1581;-3.8032;8.9646;0.4537;1.1378;-1.7094;0.284;-0.2885;0.1096;69.4;-50.01;43.37;-40.39;65.74;24.72;-11.43;5.0;35.958717;-83.924736;723.23;NaN;0.0;667.8768;;0 / 2;96508;2022-11-01 17:33:29:839
0.5572;1.1303;6.9203;1.1581;-3.8032;8.9646;0.4537;1.1378;-1.7094;0.284;-0.2885;0.1096;43.8;-50.01;43.37;-40.39;65.74;24.72;-11.43;5.0;35.958717;-83.924736;723.23;NaN;0.0;667.8768;;0 / 2;97009;2022-11-01 17:33:30:340
3.9015;-0.3942;9.6957;1.1581;-3.8032;8.9646;0.4537;1.1378;-1.7094;0.284;-0.2885;0.1096;51.1;-50.01;43.37;-40.39;65.74;24.72;-11.43;5.0;35.958717;-83.924736;723.23;NaN;0.0;667.8768;;0 / 2;97508;2022-11-01 17:33:30:839
1.5254;2.2672;8.7921;1.1581;-3.8032;8.9646;0.4537;1.1378;-1.7094;0.284;-0.2885;0.1096;54.8;-50.01;43.37;-40.39;65.74;24.72;-11.43;5.0;35.958717;-83.924736;723.23;NaN;0.0;667.8768;;0 / 2;98009;2022-11-01 17:33:31:340
0.1433;2.2896;11.1096;1.1581;-3.8032;8.9646;0.4537;1.1378;-1.7094;0.284;-0.2885;0.1096;54.8;-50.01;43.37;-40.39;65.74;24.72;-11.43;5.0;35.958717;-83.924736;723.23;NaN;0.0;667.8768;;0 / 2;98508;2022-11-01 17:33:31:839
2.173;0.4074;8.1625;1.1581;-3.8032;8.9646;0.4537;1.1378;-1.7094;0.284;-0.2885;0.1096;39.8;-50.01;43.37;-40.39;65.74;24.72;-11.43;5.0;35.958717;-83.924736;723.23;NaN;0.0;667.8768;;0 / 2;99009;2022-11-01 17:33:32:340
-0.2677;2.7766;11.6752;1.1581;-3.8032;8.9646;0.4537;1.1378;-1.7094;0.284;-0.2885;0.1096;28.8;-50.01;43.37;-40.39;65.74;24.72;-11.43;5.0;35.958717;-83.924736;723.23;NaN;0.0;667.8768;;0 / 2;99508;2022-11-01 17:33:32:839
-0.7995;2.1996;7.9116;1.1581;-3.8032;8.9646;0.4537;1.1378;-1.7094;0.284;-0.2885;0.1096;25.6;-50.01;43.37;-40.39;65.74;24.72;-11.43;5.0;35.958717;-83.924736;723.23;NaN;0.0;667.8768;;0 / 2;100009;2022-11-01 17:33:33:340
-2.0115;1.0519;10.2069;1.1581;-3.8032;8.9646;0.4537;1.1378;-1.7094;0.284;-0.2885;0.1096;25.6;-50.01;43.37;-40.39;65.74;24.72;-11.43;5.0;35.958717;-83.924736;723.23;NaN;0.0;667.8768;;0 / 2;100508;2022-11-01 17:33:33:839
0.4756;1.0418;10.5221;1.1581;-3.8032;8.9646;0.4537;1.1378;-1.7094;0.284;-0.2885;0.1096;20.2;-50.01;43.37;-40.39;65.74;24.72;-11.43;5.0;35.958717;-83.924736;723.23;NaN;0.0;667.8768;;0 / 2;101009;2022-11-01 17:33:34:340
-0.1795;1.7554;8.8633;1.1581;-3.8032;8.9646;0.4537;1.1378;-1.7094;0.284;-0.2885;0.1096;20.2;-50.01;43.37;-40.39;65.74;24.72;-11.43;5.0;35.958717;-83.924736;723.23;NaN;0.0;667.8768;;0 / 2;101508;2022-11-01 17:33:34:839
-3.2369;1.6558;10.762;1.1581;-3.8032;8.9646;0.4537;1.1378;-1.7094;0.284;-0.2885;0.1096;23.1;-50.01;43.37;-40.39;65.74;24.72;-11.43;5.0;35.958717;-83.924736;723.23;NaN;0.0;667.8768;;0 / 2;102008;2022-11-01 17:33:35:339
0.5426;0.9906;12.7983;1.1581;-3.8032;8.9646;0.4537;1.1378;-1.7094;0.284;-0.2885;0.1096;21.0;-50.01;43.37;-40.39;65.74;24.72;-11.43;5.0;35.958717;-83.924736;723.23;NaN;0.0;667.8768;;0 / 2;102508;2022-11-01 17:33:35:839
0.8031;1.9319;6.5204;1.1581;-3.8032;8.9646;0.4537;1.1378;-1.7094;0.284;-0.2885;0.1096;20.9;-50.01;43.37;-40.39;65.74;24.72;-11.43;5.0;35.958717;-83.924736;723.23;NaN;0.0;667.8768;;0 / 2;103008;2022-11-01 17:33:36:339
-0.0843;1.6271;9.3269;1.1581;-3.8032;8.9646;0.4537;1.1378;-1.7094;0.284;-0.2885;0.1096;23.7;-50.01;43.37;-40.39;65.74;24.72;-11.43;5.0;35.958717;-83.924736;723.23;NaN;0.0;667.8768;;0 / 2;103509;2022-11-01 17:33:36:840
0.4759;1.5835;10.0211;1.1581;-3.8032;8.9646;0.4537;1.1378;-1.7094;0.284;-0.2885;0.1096;27.7;-50.01;43.37;-40.39;65.74;24.72;-11.43;5.0;35.958717;-83.924736;723.23;NaN;0.0;667.8768;;0 / 2;104009;2022-11-01 17:33:37:340
1.8775;3.2115;9.722;1.1581;-3.8032;8.9646;0.4537;1.1378;-1.7094;0.284;-0.2885;0.1096;35.6;-50.01;43.37;-40.39;65.74;24.72;-11.43;5.0;35.958717;-83.924736;723.23;NaN;0.0;667.8768;;0 / 2;104509;2022-11-01 17:33:37:840
-0.6449;-0.795;10.445;1.1581;-3.8032;8.9646;0.4537;1.1378;-1.7094;0.284;-0.2885;0.1096;35.6;-50.01;43.37;-40.39;65.74;24.72;-11.43;5.0;35.958717;-83.924736;723.23;NaN;0.0;667.8768;;0 / 2;105008;2022-11-01 17:33:38:339
4.1462;-0.1863;10.0457;1.1581;-3.8032;8.9646;0.4537;1.1378;-1.7094;0.284;-0.2885;0.1096;35.6;-50.01;43.37;-40.39;65.74;24.72;-11.43;5.0;35.958717;-83.924736;723.23;NaN;0.0;667.8768;;0 / 2;105509;2022-11-01 17:33:38:840
0.6081;1.4928;9.0799;1.1581;-3.8032;8.9646;0.4537;1.1378;-1.7094;0.284;-0.2885;0.1096;41.5;-50.01;43.37;-40.39;65.74;24.72;-11.43;5.0;35.958717;-83.924736;723.23;NaN;0.0;667.8768;;0 / 2;106009;2022-11-01 17:33:39:340
2.2792;1.4794;10.73;1.1581;-3.8032;8.9646;0.4537;1.1378;-1.7094;0.284;-0.2885;0.1096;41.5;-50.01;43.37;-40.39;65.74;24.72;-11.43;5.0;35.958717;-83.924736;723.23;NaN;0.0;667.8768;;0 / 2;106508;2022-11-01 17:33:39:839
-0.1681;-0.6628;7.3863;1.1581;-3.8032;8.9646;0.4537;1.1378;-1.7094;0.284;-0.2885;0.1096;41.5;-50.01;43.37;-40.39;65.74;24.72;-11.43;5.0;35.958717;-83.924736;723.23;NaN;0.0;667.8768;;0 / 2;107009;2022-11-01 17:33:40:340
-1.3044;1.6451;12.3263;1.1581;-3.8032;8.9646;0.4537;1.1378;-1.7094;0.284;-0.2885;0.1096;43.8;-50.01;43.37;-40.39;65.74;24.72;-11.43;5.0;35.958717;-83.924736;723.23;NaN;0.0;667.8768;;0 / 2;107508;2022-11-01 17:33:40:839
-0.0048;1.867;10.1447;1.1581;-3.8032;8.9646;0.4537;1.1378;-1.7094;0.284;-0.2885;0.1096;49.0;-50.01;43.37;-40.39;65.74;24.72;-11.43;5.0;35.958717;-83.924736;723.23;NaN;0.0;667.8768;;0 / 2;108009;2022-11-01 17:33:41:340
-1.4495;-2.19;9.3356;1.1581;-3.8032;8.9646;0.4537;1.1378;-1.7094;0.284;-0.2885;0.1096;49.0;-50.01;43.37;-40.39;65.74;24.72;-11.43;5.0;35.958717;-83.924736;723.23;NaN;0.0;667.8768;;0 / 2;108508;2022-11-01 17:33:41:839
-1.1142;0.0631;8.5738;1.1581;-3.8032;8.9646;0.4537;1.1378;-1.7094;0.284;-0.2885;0.1096;21.0;-50.01;43.37;-40.39;65.74;24.72;-11.43;5.0;35.958717;-83.924736;723.23;NaN;0.0;667.8768;;0 / 2;109009;2022-11-01 17:33:42:340
0.7756;1.48;11.394;1.1581;-3.8032;8.9646;0.4537;1.1378;-1.7094;0.284;-0.2885;0.1096;18.3;-50.01;43.37;-40.39;65.74;24.72;-11.43;5.0;35.958717;-83.924736;723.23;NaN;0.0;667.8768;;0 / 2;109508;2022-11-01 17:33:42:839
1.4019;-0.3443;6.9873;1.1581;-3.8032;8.9646;0.4537;1.1378;-1.7094;0.284;-0.2885;0.1096;20.9;-50.01;43.37;-40.39;65.74;24.72;-11.43;5.0;35.958717;-83.924736;723.23;NaN;0.0;667.8768;;0 / 2;110009;2022-11-01 17:33:43:340
3.1439;1.1602;10.6059;1.1581;-3.8032;8.9646;0.4537;1.1378;-1.7094;0.284;-0.2885;0.1096;16.8;-50.01;43.37;-40.39;65.74;24.72;-11.43;5.0;35.958717;-83.924736;723.23;NaN;0.0;667.8768;;0 / 2;110508;2022-11-01 17:33:43:839
2.0498;1.0609;9.1445;1.1581;-3.8032;8.9646;0.4537;1.1378;-1.7094;0.284;-0.2885;0.1096;30.2;-50.01;43.37;-40.39;65.74;24.72;-11.43;5.0;35.958717;-83.924736;723.23;NaN;0.0;667.8768;;0 / 2;111009;2022-11-01 17:33:44:340
0.568;0.4863;9.0383;1.1581;-3.8032;8.9646;0.4537;1.1378;-1.7094;0.284;-0.2885;0.1096;33.0;-50.01;43.37;-40.39;65.74;24.72;-11.43;5.0;35.958717;-83.924736;723.23;NaN;0.0;667.8768;;0 / 2;111509;2022-11-01 17:33:44:840
1.1174;1.0487;11.5795;1.1581;-3.8032;8.9646;0.4537;1.1378;-1.7094;0.284;-0.2885;0.1096;41.0;-50.01;43.37;-40.39;65.74;24.72;-11.43;5.0;35.958717;-83.924736;723.23;NaN;0.0;667.8768;;0 / 2;112008;2022-11-01 17:33:45:339
1.0956;2.1685;7.1091;1.1581;-3.8032;8.9646;0.4537;1.1378;-1.7094;0.284;-0.2885;0.1096;58.5;-50.01;43.37;-40.39;65.74;24.72;-11.43;5.0;35.958717;-83.924736;723.23;NaN;0.0;667.8768;;0 / 2;112508;2022-11-01 17:33:45:839
-0.0479;1.5069;12.1041;1.1581;-3.8032;8.9646;0.4537;1.1378;-1.7094;0.284;-0.2885;0.1096;58.5;-50.01;43.37;-40.39;65.74;24.72;-11.43;5.0;35.958717;-83.924736;723.23;NaN;0.0;667.8768;;0 / 2;113008;2022-11-01 17:33:46:339
1.8544;0.676;10.6965;1.1581;-3.8032;8.9646;0.4537;1.1378;-1.7094;0.284;-0.2885;0.1096;58.5;-50.01;43.37;-40.39;65.74;24.72;-11.43;5.0;35.958717;-83.924736;723.23;NaN;0.0;667.8768;;0 / 2;113509;2022-11-01 17:33:46:840
1.2784;3.3135;7.5912;1.1581;-3.8032;8.9646;0.4537;1.1378;-1.7094;0.284;-0.2885;0.1096;52.9;-50.01;43.37;-40.39;65.74;24.72;-11.43;5.0;35.958717;-83.924736;723.23;NaN;0.0;667.8768;;0 / 2;114008;2022-11-01 17:33:47:339
1.2559;1.4602;11.8508;1.1581;-3.8032;8.9646;0.4537;1.1378;-1.7094;0.284;-0.2885;0.1096;71.0;-50.01;43.37;-40.39;65.74;24.72;-11.43;5.0;35.958717;-83.924736;723.23;NaN;0.0;667.8768;;0 / 2;114509;2022-11-01 17:33:47:840
1.716;0.0724;7.9433;1.1581;-3.8032;8.9646;0.4537;1.1378;-1.7094;0.284;-0.2885;0.1096;84.9;-50.01;43.37;-40.39;65.74;24.72;-11.43;5.0;35.958717;-83.924736;723.23;NaN;0.0;667.8768;;0 / 2;115008;2022-11-01 17:33:48:339
1.1937;1.9158;8.6614;1.1581;-3.8032;8.9646;0.4537;1.1378;-1.7094;0.284;-0.2885;0.1096;123.4;-50.01;43.37;-40.39;65.74;24.72;-11.43;5.0;35.958717;-83.924736;723.23;NaN;0.0;667.8768;;0 / 2;115508;2022-11-01 17:33:48:839
2.7972;1.6002;9.149;1.1581;-3.8032;8.9646;0.4537;1.1378;-1.7094;0.284;-0.2885;0.1096;87.0;-50.01;43.37;-40.39;65.74;24.72;-11.43;5.0;35.958717;-83.924736;723.23;NaN;0.0;667.8768;;0 / 2;116009;2022-11-01 17:33:49:340
1.9358;0.7657;8.0632;1.1581;-3.8032;8.9646;0.4537;1.1378;-1.7094;0.284;-0.2885;0.1096;87.0;-50.01;43.37;-40.39;65.74;24.72;-11.43;5.0;35.958717;-83.924736;723.23;NaN;0.0;667.8768;;0 / 2;116508;2022-11-01 17:33:49:839
3.2635;0.4128;9.6679;1.1581;-3.8032;8.9646;0.4537;1.1378;-1.7094;0.284;-0.2885;0.1096;87.0;-50.01;43.37;-40.39;65.74;24.72;-11.43;5.0;35.958717;-83.924736;723.23;NaN;0.0;667.8768;;0 / 2;117008;2022-11-01 17:33:50:339
1.3235;1.3125;6.8399;1.1581;-3.8032;8.9646;0.4537;1.1378;-1.7094;0.284;-0.2885;0.1096;103.1;-50.01;43.37;-40.39;65.74;24.72;-11.43;5.0;35.958717;-83.924736;723.23;NaN;0.0;667.8768;;0 / 2;117508;2022-11-01 17:33:50:839
2.6034;1.5954;11.4054;1.1581;-3.8032;8.9646;0.4537;1.1378;-1.7094;0.284;-0.2885;0.1096;82.1;-50.01;43.37;-40.39;65.74;24.72;-11.43;5.0;35.958717;-83.924736;723.23;NaN;0.0;667.8768;;0 / 2;118008;2022-11-01 17:33:51:339
4.116;0.1421;8.843;1.1581;-3.8032;8.9646;0.4537;1.1378;-1.7094;0.284;-0.2885;0.1096;79.9;-50.01;43.37;-40.39;65.74;24.72;-11.43;5.0;35.958717;-83.924736;723.23;NaN;0.0;667.8768;;0 / 2;118508;2022-11-01 17:33:51:839
4.4339;1.7255;9.2438;1.1581;-3.8032;8.9646;0.4537;1.1378;-1.7094;0.284;-0.2885;0.1096;155.7;-50.01;43.37;-40.39;65.74;24.72;-11.43;5.0;35.958717;-83.924736;723.23;NaN;0.0;667.8768;;0 / 2;119008;2022-11-01 17:33:52:339
5.4969;-0.6829;7.9588;1.1581;-3.8032;8.9646;0.4537;1.1378;-1.7094;0.284;-0.2885;0.1096;155.7;-50.01;43.37;-40.39;65.74;24.72;-11.43;5.0;35.958717;-83.924736;723.23;NaN;0.0;667.8768;;0 / 2;119508;2022-11-01 17:33:52:839
1.9499;0.1394;8.3252;1.1581;-3.8032;8.9646;0.4537;1.1378;-1.7094;0.284;-0.2885;0.1096;139.7;-50.01;43.37;-40.39;65.74;24.72;-11.43;5.0;35.958717;-83.924736;723.23;NaN;0.0;667.8768;;0 / 2;120009;2022-11-01 17:33:53:340
4.0265;-0.1496;12.4101;1.1581;-3.8032;8.9646;0.4537;1.1378;-1.7094;0.284;-0.2885;0.1096;73.8;-50.01;43.37;-40.39;65.74;24.72;-11.43;5.0;35.958717;-83.924736;723.23;NaN;0.0;667.8768;;0 / 2;120509;2022-11-01 17:33:53:840
0.8183;1.1788;10.2823;1.1581;-3.8032;8.9646;0.4537;1.1378;-1.7094;0.284;-0.2885;0.1096;58.5;-50.01;43.37;-40.39;65.74;24.72;-11.43;5.0;35.958717;-83.924736;723.23;NaN;0.0;667.8768;;0 / 2;121008;2022-11-01 17:33:54:339
-1.223;1.5407;14.7233;1.1581;-3.8032;8.9646;0.4537;1.1378;-1.7094;0.284;-0.2885;0.1096;34.8;-50.01;43.37;-40.39;65.74;24.72;-11.43;5.0;35.958717;-83.924736;723.23;NaN;0.0;667.8768;;0 / 2;121509;2022-11-01 17:33:54:840
3.8345;-0.7848;10.0511;1.1581;-3.8032;8.9646;0.4537;1.1378;-1.7094;0.284;-0.2885;0.1096;30.8;-50.01;43.37;-40.39;65.74;24.72;-11.43;5.0;35.958717;-83.924736;723.23;NaN;0.0;667.8768;;0 / 2;122008;2022-11-01 17:33:55:339
1.7749;1.8837;8.016;1.1581;-3.8032;8.9646;0.4537;1.1378;-1.7094;0.284;-0.2885;0.1096;23.9;-50.01;43.37;-40.39;65.74;24.72;-11.43;5.0;35.958717;-83.924736;723.23;NaN;0.0;667.8768;;0 / 2;122508;2022-11-01 17:33:55:839
2.0264;0.8527;11.8546;1.1581;-3.8032;8.9646;0.4537;1.1378;-1.7094;0.284;-0.2885;0.1096;26.7;-50.01;43.37;-40.39;65.74;24.72;-11.43;5.0;35.958717;-83.924736;723.23;NaN;0.0;667.8768;;0 / 2;123008;2022-11-01 17:33:56:339
1.488;-0.6924;8.1544;1.1581;-3.8032;8.9646;0.4537;1.1378;-1.7094;0.284;-0.2885;0.1096;31.9;-50.01;43.37;-40.39;65.74;24.72;-11.43;5.0;35.958717;-83.924736;723.23;NaN;0.0;667.8768;;0 / 2;123508;2022-11-01 17:33:56:839
1.0669;1.8093;8.1233;1.1581;-3.8032;8.9646;0.4537;1.1378;-1.7094;0.284;-0.2885;0.1096;27.8;-50.01;43.37;-40.39;65.74;24.72;-11.43;5.0;35.958717;-83.924736;723.23;NaN;0.0;667.8768;;0 / 2;124008;2022-11-01 17:33:57:339
1.6104;1.64;10.2003;1.1581;-3.8032;8.9646;0.4537;1.1378;-1.7094;0.284;-0.2885;0.1096;34.6;-50.01;43.37;-40.39;65.74;24.72;-11.43;5.0;35.958717;-83.924736;723.23;NaN;0.0;667.8768;;0 / 2;124509;2022-11-01 17:33:57:840
-0.0102;0.2369;8.2208;1.1581;-3.8032;8.9646;0.4537;1.1378;-1.7094;0.284;-0.2885;0.1096;42.2;-50.01;43.37;-40.39;65.74;24.72;-11.43;5.0;35.958717;-83.924736;723.23;NaN;0.0;667.8768;;0 / 2;125009;2022-11-01 17:33:58:340
0.4406;2.1096;11.8053;1.1581;-3.8032;8.9646;0.4537;1.1378;-1.7094;0.284;-0.2885;0.1096;36.3;-50.01;43.37;-40.39;65.74;24.72;-11.43;5.0;35.958717;-83.924736;723.23;NaN;0.0;667.8768;;0 / 2;125509;2022-11-01 17:33:58:840
-1.1698;2.6258;9.6248;1.1581;-3.8032;8.9646;0.4537;1.1378;-1.7094;0.284;-0.2885;0.1096;44.6;-50.01;43.37;-40.39;65.74;24.72;-11.43;5.0;35.958717;-83.924736;723.23;NaN;0.0;667.8768;;0 / 2;126009;2022-11-01 17:33:59:340
-1.9977;1.7782;9.1789;1.1581;-3.8032;8.9646;0.4537;1.1378;-1.7094;0.284;-0.2885;0.1096;61.0;-50.01;43.37;-40.39;65.74;24.72;-11.43;5.0;35.958717;-83.924736;723.23;NaN;0.0;667.8768;;0 / 2;126508;2022-11-01 17:33:59:839
1.247;-0.3511;10.2694;1.1581;-3.8032;8.9646;0.4537;1.1378;-1.7094;0.284;-0.2885;0.1096;45.0;-50.01;43.37;-40.39;65.74;24.72;-11.43;5.0;35.958717;-83.924736;723.23;NaN;0.0;667.8768;;0 / 2;127008;2022-11-01 17:34:00:339
0.2183;-0.6066;8.9483;1.1581;-3.8032;8.9646;0.4537;1.1378;-1.7094;0.284;-0.2885;0.1096;55.1;-50.01;43.37;-40.39;65.74;24.72;-11.43;5.0;35.958717;-83.924736;723.23;NaN;0.0;667.8768;;0 / 2;127508;2022-11-01 17:34:00:839
-2.6758;1.1937;11.3821;1.1581;-3.8032;8.9646;0.4537;1.1378;-1.7094;0.284;-0.2885;0.1096;60.8;-50.01;43.37;-40.39;65.74;24.72;-11.43;5.0;35.958717;-83.924736;723.23;NaN;0.0;667.8768;;0 / 2;128009;2022-11-01 17:34:01:340
0.1229;-0.7253;9.3658;1.1581;-3.8032;8.9646;0.4537;1.1378;-1.7094;0.284;-0.2885;0.1096;67.2;-50.01;43.37;-40.39;65.74;24.72;-11.43;5.0;35.958717;-83.924736;723.23;NaN;0.0;667.8768;;0 / 2;128508;2022-11-01 17:34:01:839
-0.5755;-0.5665;7.0487;1.1581;-3.8032;8.9646;0.4537;1.1378;-1.7094;0.284;-0.2885;0.1096;59.6;-50.01;43.37;-40.39;65.74;24.72;-11.43;5.0;35.958717;-83.924736;723.23;NaN;0.0;667.8768;;0 / 2;129008;2022-11-01 17:34:02:339
2.2822;-4.0711;11.3527;1.1581;-3.8032;8.9646;0.4537;1.1378;-1.7094;0.284;-0.2885;0.1096;80.5;-50.01;43.37;-40.39;65.74;24.72;-11.43;5.0;35.958717;-83.924736;723.23;NaN;0.0;667.8768;;0 / 2;129509;2022-11-01 17:34:02:840
2.3937;-1.5063;7.8799;1.1581;-3.8032;8.9646;0.4537;1.1378;-1.7094;0.284;-0.2885;0.1096;114.5;-50.01;43.37;-40.39;65.74;24.72;-11.43;5.0;35.958717;-83.924736;723.23;NaN;0.0;667.8768;;0 / 2;130008;2022-11-01 17:34:03:339
4.9505;0.7507;8.6704;1.1581;-3.8032;8.9646;0.4537;1.1378;-1.7094;0.284;-0.2885;0.1096;266.4;-50.01;43.37;-40.39;65.74;24.72;-11.43;5.0;35.958717;-83.924736;723.23;NaN;0.0;667.8768;;0 / 2;130508;2022-11-01 17:34:03:839
5.077;-0.3951;10.1937;1.1581;-3.8032;8.9646;0.4537;1.1378;-1.7094;0.284;-0.2885;0.1096;315.1;-50.01;43.37;-40.39;65.74;24.72;-11.43;5.0;35.958717;-83.924736;723.23;NaN;0.0;667.8768;;0 / 2;131008;2022-11-01 17:34:04:339
5.1386;0.2782;7.1815;1.1581;-3.8032;8.9646;0.4537;1.1378;-1.7094;0.284;-0.2885;0.1096;412.0;-50.01;43.37;-40.39;65.74;24.72;-11.43;5.0;35.958717;-83.924736;723.23;NaN;0.0;667.8768;;0 / 2;131508;2022-11-01 17:34:04:839
3.9389;0.9491;7.2963;1.1581;-3.8032;8.9646;0.4537;1.1378;-1.7094;0.284;-0.2885;0.1096;412.0;-50.01;43.37;-40.39;65.74;24.72;-11.43;5.0;35.958717;-83.924736;723.23;NaN;0.0;667.8768;;0 / 2;132009;2022-11-01 17:34:05:340
0.2671;-1.5269;11.7057;1.1581;-3.8032;8.9646;0.4537;1.1378;-1.7094;0.284;-0.2885;0.1096;244.9;-50.01;43.37;-40.39;65.74;24.72;-11.43;5.0;35.958717;-83.924736;723.23;NaN;0.0;667.8768;;0 / 2;132509;2022-11-01 17:34:05:840
-0.8447;0.1484;12.6362;1.1581;-3.8032;8.9646;0.4537;1.1378;-1.7094;0.284;-0.2885;0.1096;52.8;-50.01;43.37;-40.39;65.74;24.72;-11.43;5.0;35.958717;-83.924736;723.23;NaN;0.0;667.8768;;0 / 2;133009;2022-11-01 17:34:06:340
-0.1388;0.8378;7.8102;1.1581;-3.8032;8.9646;0.4537;1.1378;-1.7094;0.284;-0.2885;0.1096;51.5;-50.01;43.37;-40.39;65.74;24.72;-11.43;5.0;35.958717;-83.924736;723.23;NaN;0.0;667.8768;;0 / 2;133508;2022-11-01 17:34:06:839
-1.7453;-0.1705;7.6606;1.1581;-3.8032;8.9646;0.4537;1.1378;-1.7094;0.284;-0.2885;0.1096;43.2;-50.01;43.37;-40.39;65.74;24.72;-11.43;5.0;35.958717;-83.924736;723.23;NaN;0.0;667.8768;;0 / 2;134009;2022-11-01 17:34:07:340
0.6305;-0.422;11.8451;1.1581;-3.8032;8.9646;0.4537;1.1378;-1.7094;0.284;-0.2885;0.1096;43.2;-50.01;43.37;-40.39;65.74;24.72;-11.43;5.0;35.958717;-83.924736;723.23;NaN;0.0;667.8768;;0 / 2;134509;2022-11-01 17:34:07:840
-0.4672;1.9172;10.3549;1.1581;-3.8032;8.9646;0.4537;1.1378;-1.7094;0.284;-0.2885;0.1096;43.2;-50.01;43.37;-40.39;65.74;24.72;-11.43;5.0;35.958717;-83.924736;723.23;NaN;0.0;667.8768;;0 / 2;135009;2022-11-01 17:34:08:340
-1.0941;0.6027;12.7146;1.1581;-3.8032;8.9646;0.4537;1.1378;-1.7094;0.284;-0.2885;0.1096;53.6;-50.01;43.37;-40.39;65.74;24.72;-11.43;5.0;35.958717;-83.924736;723.23;NaN;0.0;667.8768;;0 / 2;135508;2022-11-01 17:34:08:839
2.2355;1.7731;10.0905;1.1581;-3.8032;8.9646;0.4537;1.1378;-1.7094;0.284;-0.2885;0.1096;33.5;-50.01;43.37;-40.39;65.74;24.72;-11.43;5.0;35.958717;-83.924736;723.23;NaN;0.0;667.8768;;0 / 2;136008;2022-11-01 17:34:09:339
2.167;2.7233;11.1081;1.1581;-3.8032;8.9646;0.4537;1.1378;-1.7094;0.284;-0.2885;0.1096;39.8;-50.01;43.37;-40.39;65.74;24.72;-11.43;5.0;35.958717;-83.924736;723.23;NaN;0.0;667.8768;;0 / 2;136508;2022-11-01 17:34:09:839
2.4443;1.2338;7.0771;1.1581;-3.8032;8.9646;0.4537;1.1378;-1.7094;0.284;-0.2885;0.1096;62.6;-50.01;43.37;-40.39;65.74;24.72;-11.43;5.0;35.958717;-83.924736;723.23;NaN;0.0;667.8768;;0 / 2;137008;2022-11-01 17:34:10:339
2.4284;3.0544;9.6622;1.1581;-3.8032;8.9646;0.4537;1.1378;-1.7094;0.284;-0.2885;0.1096;41.0;-50.01;43.37;-40.39;65.74;24.72;-11.43;5.0;35.958717;-83.924736;723.23;NaN;0.0;667.8768;;0 / 2;137508;2022-11-01 17:34:10:839
1.2314;2.4482;9.2169;1.1581;-3.8032;8.9646;0.4537;1.1378;-1.7094;0.284;-0.2885;0.1096;60.6;-50.01;43.37;-40.39;65.74;24.72;-11.43;5.0;35.958717;-83.924736;723.23;NaN;0.0;667.8768;;0 / 2;138008;2022-11-01 17:34:11:339
-1.6008;1.5284;9.4131;1.1581;-3.8032;8.9646;0.4537;1.1378;-1.7094;0.284;-0.2885;0.1096;104.0;-50.01;43.37;-40.39;65.74;24.72;-11.43;5.0;35.958717;-83.924736;723.23;NaN;0.0;667.8768;;0 / 2;138509;2022-11-01 17:34:11:840
-2.4945;1.2981;12.8859;1.1581;-3.8032;8.9646;0.4537;1.1378;-1.7094;0.284;-0.2885;0.1096;126.4;-50.01;43.37;-40.39;65.74;24.72;-11.43;5.0;35.958717;-83.924736;723.23;NaN;0.0;667.8768;;0 / 2;139008;2022-11-01 17:34:12:339
0.3514;-0.6209;12.1974;1.1581;-3.8032;8.9646;0.4537;1.1378;-1.7094;0.284;-0.2885;0.1096;126.4;-50.01;43.37;-40.39;65.74;24.72;-11.43;5.0;35.958717;-83.924736;723.23;NaN;0.0;667.8768;;0 / 2;139509;2022-11-01 17:34:12:840
-0.1172;-0.7331;7.9364;1.1581;-3.8032;8.9646;0.4537;1.1378;-1.7094;0.284;-0.2885;0.1096;126.4;-50.01;43.37;-40.39;65.74;24.72;-11.43;5.0;35.958717;-83.924736;723.23;NaN;0.0;667.8768;;0 / 2;140008;2022-11-01 17:34:13:339
-1.5437;1.209;10.4554;1.1581;-3.8032;8.9646;0.4537;1.1378;-1.7094;0.284;-0.2885;0.1096;157.4;-50.01;43.37;-40.39;65.74;24.72;-11.43;5.0;35.958717;-83.924736;723.23;NaN;0.0;667.8768;;0 / 2;140509;2022-11-01 17:34:13:840
2.7006;-0.0667;8.8932;1.1581;-3.8032;8.9646;0.4537;1.1378;-1.7094;0.284;-0.2885;0.1096;162.7;-50.01;43.37;-40.39;65.74;24.72;-11.43;5.0;35.958717;-83.924736;723.23;NaN;0.0;667.8768;;0 / 2;141008;2022-11-01 17:34:14:339
1.1859;-2.103;8.3007;1.1581;-3.8032;8.9646;0.4537;1.1378;-1.7094;0.284;-0.2885;0.1096;231.5;-50.01;43.37;-40.39;65.74;24.72;-11.43;5.0;35.958717;-83.924736;723.23;NaN;0.0;667.8768;;0 / 2;141509;2022-11-01 17:34:14:840
2.7236;0.7421;11.4188;1.1581;-3.8032;8.9646;0.4537;1.1378;-1.7094;0.284;-0.2885;0.1096;286.9;-50.01;43.37;-40.39;65.74;24.72;-11.43;5.0;35.958717;-83.924736;723.23;NaN;0.0;667.8768;;0 / 2;142008;2022-11-01 17:34:15:339
1.0074;2.5172;8.3928;1.1581;-3.8032;8.9646;0.4537;1.1378;-1.7094;0.284;-0.2885;0.1096;402.2;-50.01;43.37;-40.39;65.74;24.72;-11.43;5.0;35.958717;-83.924736;723.23;NaN;0.0;667.8768;;0 / 2;142509;2022-11-01 17:34:15:840
-0.0452;0.5626;10.3451;1.1581;-3.8032;8.9646;0.4537;1.1378;-1.7094;0.284;-0.2885;0.1096;402.2;-50.01;43.37;-40.39;65.74;24.72;-11.43;5.0;35.958717;-83.924736;723.23;NaN;0.0;667.8768;;0 / 2;143008;2022-11-01 17:34:16:339
0.4528;3.7798;11.8349;1.1581;-3.8032;8.9646;0.4537;1.1378;-1.7094;0.284;-0.2885;0.1096;464.6;-50.01;43.37;-40.39;65.74;24.72;-11.43;5.0;35.958717;-83.924736;723.23;NaN;0.0;667.8768;;0 / 2;143508;2022-11-01 17:34:16:839
-3.6075;2.688;7.3531;1.1581;-3.8032;8.9646;0.4537;1.1378;-1.7094;0.284;-0.2885;0.1096;393.5;-50.01;43.37;-40.39;65.74;24.72;-11.43;5.0;35.958717;-83.924736;723.23;NaN;0.0;667.8768;;0 / 2;144009;2022-11-01 17:34:17:340
-0.8662;0.9978;8.8639;1.1581;-3.8032;8.9646;0.4537;1.1378;-1.7094;0.284;-0.2885;0.1096;302.1;-50.01;43.37;-40.39;65.74;24.72;-11.43;5.0;35.958717;-83.924736;723.23;NaN;0.0;667.8768;;0 / 2;144509;2022-11-01 17:34:17:840
-1.0839;3.0473;9.3476;1.1581;-3.8032;8.9646;0.4537;1.1378;-1.7094;0.284;-0.2885;0.1096;357.2;-50.01;43.37;-40.39;65.74;24.72;-11.43;5.0;35.958717;-83.924736;723.23;NaN;0.0;667.8768;;0 / 2;145008;2022-11-01 17:34:18:339
-2.5325;3.0114;9.9891;1.1581;-3.8032;8.9646;0.4537;1.1378;-1.7094;0.284;-0.2885;0.1096;245.2;-50.01;43.37;-40.39;65.74;24.72;-11.43;2.0;35.958717;-83.924736;723.23;NaN;0.0;667.8768;;0 / 2;145508;2022-11-01 17:34:18:839
-4.7662;5.4532;7.7004;-3.758;4.4615;7.883;-0.9748;0.6317;0.7916;0.3894;0.6515;0.0115;188.6;-12.58;12.02;-15.71;51.69;-27.06;25.49;2.0;35.958717;-83.924736;723.23;NaN;0.0;667.8768;;0 / 2;146008;2022-11-01 17:34:19:339
-4.0457;5.4987;6.8408;-3.7448;5.3665;7.3039;-0.1388;0.0929;-0.3789;0.1991;0.0836;0.0715;188.6;-12.92;8.04;-6.73;64.7;-32.37;26.7;2.0;35.958717;-83.924736;723.23;NaN;0.0;667.8768;;0 / 2;146508;2022-11-01 17:34:19:839