sep=;
ACCELEROMETER X (m/s²);ACCELEROMETER Y (m/s²);ACCELEROMETER Z (m/s²);GRAVITY X (m/s²);GRAVITY Y (m/s²);GRAVITY Z (m/s²);LINEAR ACCELERATION X (m/s²);LINEAR ACCELERATION Y (m/s²);LINEAR ACCELERATION Z (m/s²);GYROSCOPE X (rad/s);GYROSCOPE Y (rad/s);GYROSCOPE Z (rad/s);LIGHT (lux);MAGNETIC FIELD X (μT);MAGNETIC FIELD Y (μT);MAGNETIC FIELD Z (μT);ORIENTATION Z (azimuth °);ORIENTATION X (pitch °);ORIENTATION Y (roll °);PROXIMITY (i);LOCATION Latitude : ;LOCATION Longitude : ;LOCATION Altitude ( m);LOCATION Altitude-google ( m);LOCATION Speed ( Kmh);LOCATION Accuracy ( m);LOCATION ORIENTATION (°);Satellites in range;Time since start in ms ;YYYY-MO-DD HH-MI-SS_SSS
-1.0636;4.3098;8.709;-0.6171;4.0;8.9325;-0.3579;0.3117;-0.0441;-0.0341;-0.0588;-0.006;37.3;-14.91;-7.71;13.89;133.8;-24.07;3.95;5.0;35.958927;-83.92463;;NaN;;129.03226;;0 / 0;3;2022-10-28 13:48:11:521
0.0781;3.9846;9.3284;-0.6995;3.4266;9.1619;0.8605;0.5765;0.0374;-0.3684;-0.398;-0.1961;37.3;-14.31;-7.91;12.88;133.71;-20.45;4.37;5.0;35.958927;-83.92463;;NaN;;129.03226;;0 / 0;504;2022-10-28 13:48:12:022
0.1531;4.3319;9.5085;-0.4671;3.94;8.9682;0.4814;0.4242;0.6613;0.4438;0.0383;-0.3566;37.3;-9.83;-7.69;10.03;140.29;-22.71;2.86;5.0;35.958927;-83.92463;;NaN;;129.03226;;0 / 0;1003;2022-10-28 13:48:12:521
-1.7288;4.2182;7.6555;-1.749;3.8577;8.8448;0.1468;0.3443;-1.0633;-0.0341;0.1322;-0.3952;28.8;-1.71;-5.76;10.05;174.9;-25.09;6.41;5.0;35.958927;-83.92463;;NaN;;129.03226;;0 / 0;1504;2022-10-28 13:48:13:022
0.3742;0.8782;8.8968;1.0743;1.8119;9.5777;0.5046;-0.7219;0.0026;-0.5763;-1.243;-0.4268;24.5;8.53;-2.62;3.98;245.53;-10.65;-6.4;5.0;35.958927;-83.92463;;NaN;;129.03226;;0 / 0;2004;2022-10-28 13:48:13:522
11.9845;-5.0258;2.7162;8.6518;-4.5054;-1.0091;3.7333;0.2696;4.9456;2.5782;-3.8797;3.8412;26.0;-0.9;-3.0;-4.44;230.87;14.04;-86.89;5.0;35.958927;-83.92463;;NaN;;129.03226;;0 / 0;2504;2022-10-28 13:48:14:022
5.4972;-4.6887;2.6602;8.8346;-4.1495;0.9496;-3.9863;-0.3331;1.4882;-1.5252;1.0013;-1.8561;4.0;-41.93;14.81;26.4;98.42;27.17;-83.98;0.0;35.958927;-83.92463;;NaN;;129.03226;;0 / 0;3004;2022-10-28 13:48:14:522
7.689;-5.8394;2.7096;9.0581;-3.7571;0.0743;-1.1225;-2.1203;3.1931;-0.0829;0.2842;-0.462;0.0;-48.81;5.04;12.51;141.86;23.84;-91.12;0.0;35.958927;-83.92463;;NaN;;129.03226;;0 / 0;3504;2022-10-28 13:48:15:022
9.7017;-7.3152;2.2956;8.8956;-4.0962;-0.5098;2.3398;-0.9807;-0.2334;-0.451;-1.1024;1.3751;0.0;-54.94;-1.11;6.24;173.24;24.69;-93.28;2.0;35.958927;-83.92463;;NaN;;129.03226;;0 / 0;4004;2022-10-28 13:48:15:522
9.0497;-7.1261;-2.7802;7.1457;-6.6219;-1.122;1.7415;-0.5039;-1.8444;-0.1712;0.0706;-0.3887;0.0;-60.79;25.8;23.74;149.33;42.47;-98.92;2.0;35.958927;-83.92463;;NaN;;129.03226;;0 / 0;4503;2022-10-28 13:48:16:021
10.2787;-4.9834;-1.6822;8.5766;-4.7365;-0.4219;0.3051;-0.2187;-1.7612;0.1683;0.0515;-0.1707;0.0;-48.92;3.9;16.18;146.51;28.88;-92.82;2.0;35.958927;-83.92463;;NaN;;129.03226;;0 / 0;5003;2022-10-28 13:48:16:521
7.2805;-4.9609;-1.9579;7.6584;-6.0482;-0.9688;-0.3417;1.1713;-0.9446;0.5829;-0.0074;0.4301;0.0;-54.41;-8.98;1.61;188.43;36.51;-98.29;2.0;35.958927;-83.92463;;NaN;;129.03226;;0 / 0;5504;2022-10-28 13:48:17:022
6.8477;-4.2703;-1.762;9.0242;-3.8384;0.0174;-3.0046;1.1912;-0.9284;0.7744;0.0735;-0.1687;0.0;-53.53;-17.87;-16.01;202.86;23.04;-89.89;2.0;35.958927;-83.92463;;NaN;;129.03226;;0 / 0;6003;2022-10-28 13:48:17:521
5.6198;-4.1441;2.0103;8.5515;-4.4932;1.6889;-2.8973;0.7686;0.7142;-0.0175;-0.0095;0.2044;0.0;-46.48;-33.26;-28.86;201.26;26.54;-79.65;2.0;35.958927;-83.92463;;NaN;;129.03226;;0 / 0;6504;2022-10-28 13:48:18:022
6.7068;-2.6444;2.4305;9.0113;-3.5936;1.4326;-1.0866;0.8209;1.4761;0.7864;0.6546;-0.1816;0.0;-41.59;-36.0;-26.79;201.77;21.5;-80.97;2.0;35.958927;-83.92463;;NaN;;129.03226;;0 / 0;7004;2022-10-28 13:48:18:522
10.5102;-4.5105;1.5837;8.8858;-3.9221;1.3527;1.6312;-0.5443;0.2621;0.3339;0.2725;0.6481;0.0;-34.86;-37.67;-24.94;202.67;21.6;-83.02;0.0;35.958927;-83.92463;;NaN;;129.03226;;0 / 0;7503;2022-10-28 13:48:19:021
9.3503;-6.5647;-3.2303;8.5672;-4.6664;-0.9994;-1.7822;-3.2135;-1.4967;-0.3305;-0.065;-0.8208;0.0;-39.88;-35.87;-16.63;203.44;28.41;-96.65;0.0;35.958927;-83.92463;;NaN;;129.03226;;0 / 0;8004;2022-10-28 13:48:19:522
7.0621;-1.6499;1.8072;9.1505;-3.5147;-0.2924;-2.57;1.2414;2.4433;-1.8485;0.0014;-0.1804;0.0;-37.78;-35.74;-14.46;195.76;21.91;-89.17;0.0;35.958927;-83.92463;;NaN;;129.03226;;0 / 0;8504;2022-10-28 13:48:20:022
6.8234;-2.9336;2.6423;8.809;-4.1692;-1.0904;-2.7584;-4.0126;1.1903;-1.7169;1.5104;0.2183;0.0;-39.82;-12.04;-20.53;224.03;25.16;-97.06;0.0;35.958927;-83.92463;;NaN;;129.03226;;0 / 0;9004;2022-10-28 13:48:20:522
10.2108;-6.8707;-1.5625;8.6899;-3.3741;-3.045;1.4287;-3.549;1.6321;-0.761;0.2159;0.1804;0.0;-42.75;4.01;-11.23;249.68;20.54;-109.57;0.0;35.958927;-83.92463;;NaN;;129.03226;;0 / 0;9504;2022-10-28 13:48:21:022
9.6003;-2.4024;-4.8963;9.0388;-3.2103;-2.0405;0.5905;0.762;-1.5114;-1.0513;0.8486;0.2262;0.0;-42.66;8.42;4.37;221.14;19.43;-103.09;0.0;35.958927;-83.92463;;NaN;;129.03226;;0 / 0;10004;2022-10-28 13:48:21:522
9.3517;-1.7521;-4.4833;7.5833;-5.1042;-3.5513;4.2471;2.1867;4.0807;-0.6841;-3.0149;0.8959;0.0;-38.46;13.28;1.58;201.54;29.8;-97.52;0.0;35.958927;-83.92463;;NaN;;129.03226;;0 / 0;10504;2022-10-28 13:48:22:022
6.725;-3.6027;4.3149;8.8693;-3.9274;1.4427;0.0981;1.4629;6.0958;0.1453;0.1275;-0.0762;0.0;-30.94;20.03;15.38;70.42;23.61;-80.76;0.0;35.958927;-83.92463;;NaN;;129.03226;;0 / 0;11004;2022-10-28 13:48:22:522
13.2036;-3.8225;-2.2292;9.1763;-3.3416;-0.8945;1.846;-0.6114;-1.2521;0.8486;-0.1477;0.3462;0.0;-30.69;16.73;3.66;358.91;17.7;-97.58;0.0;35.958927;-83.92463;;NaN;;129.03226;;0 / 0;11504;2022-10-28 13:48:23:022
8.1658;-4.5449;-2.7039;8.6134;-4.6696;-0.4187;-0.6107;0.5489;-2.1348;0.4512;-0.3683;0.0305;0.0;-25.95;23.06;-3.94;322.28;28.12;-95.3;0.0;35.958927;-83.92463;;NaN;;129.03226;;0 / 0;12003;2022-10-28 13:48:23:521
6.9697;-2.0856;1.4955;9.1444;-3.4741;-0.6934;-2.1186;0.8934;2.3361;-0.1691;-1.8106;-0.3121;0.0;-26.1;24.47;-6.43;336.95;21.88;-88.53;0.0;35.958927;-83.92463;;NaN;;129.03226;;0 / 0;12504;2022-10-28 13:48:24:022
7.6669;-4.1617;0.4068;8.9845;-3.9221;-0.2592;3.0207;-1.3826;-0.3618;-0.1144;0.916;0.6144;0.0;-28.14;23.49;-9.15;315.54;23.57;-91.65;0.0;35.958927;-83.92463;;NaN;;129.03226;;0 / 0;13004;2022-10-28 13:48:24:522
8.1132;-6.5076;2.7108;7.9612;-4.9184;2.9322;-0.1401;-0.0374;-3.9354;0.3828;2.5529;0.3015;0.0;-20.76;27.53;-18.68;316.26;30.1;-69.78;0.0;35.958927;-83.92463;;NaN;;129.03226;;0 / 0;13504;2022-10-28 13:48:25:022
8.292;-3.8498;0.041;8.9286;-3.3776;2.2455;-1.7209;0.5445;-3.8347;0.1088;2.0361;-0.3883;0.0;-16.48;30.41;-20.85;317.18;22.12;-85.14;0.0;35.958927;-83.92463;;NaN;;129.03226;;0 / 0;14003;2022-10-28 13:48:25:521
6.6942;-4.7121;3.5557;8.5572;-4.5933;1.359;-1.577;-0.2589;2.6415;-0.8344;-1.2059;0.0867;0.0;-13.59;33.84;-24.84;315.79;26.93;-75.82;0.0;35.958927;-83.92463;;NaN;;129.03226;;0 / 0;14504;2022-10-28 13:48:26:022
11.2394;-6.2046;3.7104;8.5045;-4.1456;2.5802;1.0674;-0.288;0.4424;-0.1365;-0.1045;-0.7059;0.0;-8.92;40.63;-27.04;322.44;25.01;-73.12;0.0;35.958927;-83.92463;;NaN;;129.03226;;0 / 0;15003;2022-10-28 13:48:26:521
8.639;-2.9728;-0.5907;9.3114;-3.0595;0.3292;-0.8925;0.4581;-1.0185;-0.1558;0.4633;-0.2302;0.0;-8.27;43.09;-33.75;318.42;18.18;-87.98;0.0;35.958927;-83.92463;;NaN;;129.03226;;0 / 0;15505;2022-10-28 13:48:27:023
7.3893;-4.334;1.5057;8.6749;-4.342;1.4362;-1.432;0.3567;0.9207;-0.5049;-0.5708;0.1248;0.0;-3.43;46.09;-37.37;316.16;25.29;-77.85;0.0;35.958927;-83.92463;;NaN;;129.03226;;0 / 0;16004;2022-10-28 13:48:27:522
9.2521;-2.869;1.8335;8.9559;-3.8379;1.11;0.8249;0.5138;0.9828;-0.6169;-0.3406;-0.2257;0.0;7.41;49.97;-37.99;320.01;23.6;-80.45;0.0;35.958927;-83.92463;;NaN;;129.03226;;0 / 0;16505;2022-10-28 13:48:28:023
10.1189;-2.8938;1.5446;9.0634;-2.7744;2.5155;-0.1507;0.415;-0.915;0.1348;0.23;-0.1818;0.0;-3.47;51.66;-30.02;329.01;16.43;-74.49;0.0;35.958927;-83.92463;;NaN;;129.03226;;0 / 0;17003;2022-10-28 13:48:28:521
6.4537;-3.8934;4.3445;8.7478;-3.876;2.1504;-2.6795;-1.5989;3.383;-1.5419;-1.6849;-0.7223;0.0;-11.4;49.93;-15.15;343.49;23.28;-76.19;0.0;35.958927;-83.92463;;NaN;;129.03226;;0 / 0;17504;2022-10-28 13:48:29:022
8.6106;-3.2725;4.1605;9.2701;-3.1992;-0.0033;-0.3594;-0.05;3.0447;-1.3505;1.881;0.2225;0.0;-19.39;49.89;11.76;15.18;17.65;-91.99;0.0;35.958927;-83.92463;;NaN;;129.03226;;0 / 0;18004;2022-10-28 13:48:29:522
10.2691;-3.1612;-5.2959;8.8675;-3.2056;-2.695;1.13;0.1933;-2.7363;-1.0416;0.4461;-0.0105;0.0;-18.28;43.54;31.76;38.88;19.88;-104.77;0.0;35.958927;-83.92463;;NaN;;129.03226;;0 / 0;18504;2022-10-28 13:48:30:022
7.4791;-3.1848;-3.0682;8.5089;-3.82;-3.0292;-1.0715;1.1717;-2.1672;1.0132;-0.5104;-0.4817;0.0;-17.23;27.3;45.84;71.46;22.93;-109.6;0.0;35.958927;-83.92463;;NaN;;129.03226;;0 / 0;19004;2022-10-28 13:48:30:522
7.2251;-3.7696;-0.9452;8.6539;-3.3112;-3.2119;-1.2658;-0.629;2.1801;-1.773;0.5955;0.4222;0.0;-10.14;25.78;48.94;69.88;19.73;-110.36;2.0;35.958927;-83.92463;;NaN;;129.03226;;0 / 0;19504;2022-10-28 13:48:31:022
7.1701;-7.2015;-0.542;8.7816;-4.2829;-0.8433;-0.6459;-2.6163;-0.2473;-0.1267;1.1628;0.8843;0.0;-14.49;15.99;48.83;84.34;22.29;-107.21;2.0;35.958927;-83.92463;;NaN;;129.03226;;0 / 0;20004;2022-10-28 13:48:31:522
9.0138;-6.5115;-1.7803;8.1959;-5.3128;-0.8785;0.6221;-1.217;-0.6352;0.4106;-0.1784;-0.4483;0.0;-22.18;18.69;37.26;88.26;34.07;-96.83;0.0;35.958927;-83.92463;;NaN;;129.03226;;0 / 0;20504;2022-10-28 13:48:32:022
8.2609;-2.2962;-1.8335;9.2362;-3.2226;-0.6908;-0.825;1.0857;-0.1746;-1.1099;0.1042;-0.1505;0.0;-25.41;19.46;23.53;67.45;19.18;-94.28;0.0;35.958927;-83.92463;;NaN;;129.03226;;0 / 0;21004;2022-10-28 13:48:32:522
6.4609;-3.4965;3.6102;8.6183;-4.3864;1.6296;-2.0749;0.0371;2.6056;-0.6207;-0.9286;-0.0445;0.0;-29.91;11.18;16.65;94.96;26.57;-79.29;0.0;35.958927;-83.92463;;NaN;;129.03226;;0 / 0;21504;2022-10-28 13:48:33:022
8.8289;-2.6554;2.1165;9.0145;-3.859;0.1303;1.7344;-0.3064;2.104;-0.4495;-0.8232;-0.178;0.0;-35.61;11.48;13.58;105.3;23.17;-89.17;0.0;35.958927;-83.92463;;NaN;;129.03226;;0 / 0;22004;2022-10-28 13:48:33:522
12.757;-4.6756;-0.0296;9.2192;-3.3251;0.3462;3.6011;-1.5107;-0.5178;1.0128;0.4064;0.2986;0.0;-39.64;7.8;17.55;107.5;18.73;-91.27;0.0;35.958927;-83.92463;;NaN;;129.03226;;0 / 0;22504;2022-10-28 13:48:34:022
8.476;-6.8542;4.3304;8.0142;-4.6788;3.1705;0.0911;-1.1101;-2.2129;0.5965;2.1574;0.1592;0.0;-42.75;15.39;10.03;99.36;28.5;-68.42;0.0;35.958927;-83.92463;;NaN;;129.03226;;0 / 0;23004;2022-10-28 13:48:34:522
8.0489;-3.9547;-0.3485;9.2287;-3.0004;1.4139;-1.3896;0.1303;-1.6998;0.0721;0.783;-0.2794;0.0;-43.89;15.3;5.63;86.75;18.44;-83.41;0.0;35.958927;-83.92463;;NaN;;129.03226;;0 / 0;23504;2022-10-28 13:48:35:022
7.0837;-4.806;-0.2722;8.8152;-4.0463;1.4455;-2.3483;0.7295;1.2708;0.3303;-1.1179;0.3344;0.0;-43.12;12.98;0.45;129.16;24.37;-80.69;0.0;35.958927;-83.92463;;NaN;;129.03226;;0 / 0;24004;2022-10-28 13:48:35:522
8.0542;-2.6692;0.6269;9.2016;-3.3898;-0.105;-1.0228;0.6982;0.7166;0.23;0.261;-0.2203;0.0;-42.0;13.24;-2.64;236.34;20.94;-91.71;0.0;35.958927;-83.92463;;NaN;;129.03226;;0 / 0;24504;2022-10-28 13:48:36:022
12.693;-2.8128;-0.6072;9.2173;-3.3321;0.3302;4.6986;-1.8591;-1.8522;-1.2657;-1.0397;0.395;0.0;-41.85;1.82;-7.18;203.78;19.86;-87.95;0.0;35.958927;-83.92463;;NaN;;129.03226;;0 / 0;25004;2022-10-28 13:48:36:522
7.9893;-3.3179;-3.4337;8.7753;-3.8365;-2.1084;-0.7403;0.2015;1.3582;-2.1847;-0.3729;0.2994;0.0;-44.4;-6.39;-11.91;217.57;23.67;-96.99;0.0;35.958927;-83.92463;;NaN;;129.03226;;0 / 0;25504;2022-10-28 13:48:37:022
6.947;-3.2079;0.175;9.1133;-2.8401;-2.2477;-1.3844;-0.2377;2.6133;-1.2411;0.5111;0.1741;0.0;-45.19;-23.36;-13.44;214.72;16.83;-103.86;0.0;35.958927;-83.92463;;NaN;;129.03226;;0 / 0;26004;2022-10-28 13:48:37:522
7.3256;-8.3833;0.1899;9.0375;-3.7636;-0.5743;-1.6751;-4.8705;0.8557;-0.8007;2.649;0.8582;0.0;-31.72;-27.36;-13.22;207.29;20.16;-99.86;0.0;35.958927;-83.92463;;NaN;;129.03226;;0 / 0;26504;2022-10-28 13:48:38:022
11.549;-7.2694;-4.7886;8.7313;-3.3745;-2.9235;1.0698;-1.8008;-3.874;-0.0291;-0.1183;-0.2806;0.0;-12.62;4.31;4.5;140.3;21.3;-106.54;0.0;35.958927;-83.92463;;NaN;;129.03226;;0 / 0;27004;2022-10-28 13:48:38:522
7.9047;-3.3876;-4.681;8.9968;-3.0919;-2.3807;-0.9881;0.3458;-2.1797;-1.1923;0.2627;0.4425;0.0;-3.22;8.53;19.69;71.83;18.03;-104.53;0.0;35.958927;-83.92463;;NaN;;129.03226;;0 / 0;27504;2022-10-28 13:48:39:022
6.8734;-4.0917;4.1728;8.4751;-4.4003;2.2319;-2.8392;0.8284;2.816;-1.4207;1.2654;-0.5625;0.0;-4.09;7.78;22.01;70.42;26.66;-75.25;0.0;35.958927;-83.92463;;NaN;;129.03226;;0 / 0;28004;2022-10-28 13:48:39:522
8.8654;-6.8806;1.4913;9.0206;-3.5906;1.3809;-3.2073;-1.2772;-3.2444;0.1913;2.982;-1.9386;0.0;2.23;19.71;14.16;33.94;21.48;-81.3;0.0;35.958927;-83.92463;;NaN;;129.03226;;0 / 0;28504;2022-10-28 13:48:40:022
12.472;-3.7576;0.5207;9.4548;-2.5738;0.3898;1.8967;-0.3089;-0.5496;-1.5335;-0.4717;0.2901;0.0;13.05;25.76;15.39;25.51;13.53;-84.44;0.0;35.958927;-83.92463;;NaN;;129.03226;;0 / 0;29004;2022-10-28 13:48:40:522
9.8513;-4.8658;-0.539;8.8495;-4.0081;1.3388;0.7389;-0.1772;-2.2707;-0.1481;0.5713;-0.0225;0.0;11.21;31.11;26.79;36.94;23.91;-83.48;0.0;35.958927;-83.92463;;NaN;;129.03226;;0 / 0;29504;2022-10-28 13:48:41:022
8.4485;-2.2071;-0.3434;9.456;-2.5729;0.3682;-1.9857;0.7715;0.5478;0.1321;-0.2773;-0.2967;0.0;0.36;29.4;27.23;43.67;15.21;-87.77;0.0;35.958927;-83.92463;;NaN;;129.03226;;0 / 0;30004;2022-10-28 13:48:41:522
7.3977;-3.0221;3.1002;8.9698;-3.5465;1.771;-1.4101;-0.3418;3.2028;-0.6373;-0.1381;0.1504;0.0;-7.67;24.99;23.38;47.52;21.2;-78.83;0.0;35.958927;-83.92463;;NaN;;129.03226;;0 / 0;30504;2022-10-28 13:48:42:022
9.2025;-2.0046;1.7465;9.2061;-3.3718;0.2219;0.5516;1.9902;1.653;-0.2991;-0.5342;-0.386;0.0;-9.26;21.94;15.43;41.22;21.5;-89.44;0.0;35.958927;-83.92463;;NaN;;129.03226;;0 / 0;31004;2022-10-28 13:48:42:522
13.6256;-3.2154;0.4983;9.3315;-2.9428;0.658;3.5397;-0.7631;-0.4099;0.5177;0.1188;0.4164;0.0;-10.29;17.31;11.78;42.47;16.36;-86.89;0.0;35.958927;-83.92463;;NaN;;129.03226;;0 / 0;31504;2022-10-28 13:48:43:022
8.6058;-4.5592;0.2183;8.6217;-4.2653;1.9089;0.5081;0.6615;-3.2083;0.6775;1.6391;0.4389;0.0;-8.59;20.4;10.59;39.81;25.78;-77.52;0.0;35.958927;-83.92463;;NaN;;129.03226;;0 / 0;32005;2022-10-28 13:48:43:523
7.6511;-2.0324;0.8459;9.4025;-2.7748;0.2525;-1.3852;0.5484;0.9139;0.0082;-0.2764;-0.338;0.0;-10.35;24.04;10.8;29.06;16.44;-88.46;0.0;35.958927;-83.92463;;NaN;;129.03226;;0 / 0;32503;2022-10-28 13:48:44:021
7.1145;-2.8878;3.2925;9.1277;-3.3959;1.1505;-1.7414;0.6844;3.13;-0.082;0.1569;0.2674;0.0;-9.98;29.63;14.12;30.72;19.42;-82.14;0.0;35.958927;-83.92463;;NaN;;129.03226;;0 / 0;33004;2022-10-28 13:48:44:522
11.9393;-4.7291;0.9697;9.1355;-3.5434;0.3965;3.2606;-1.8413;-0.1206;-0.7442;-0.7719;-0.4047;0.0;-7.95;38.04;16.61;28.42;22.34;-83.84;0.0;35.958927;-83.92463;;NaN;;129.03226;;0 / 0;33504;2022-10-28 13:48:45:022
10.579;-2.1275;-0.9389;9.4492;-2.5759;0.4973;1.3701;0.8106;-0.9328;-0.2915;0.201;0.0178;0.0;-10.14;43.14;23.98;32.0;15.23;-86.99;0.0;35.958927;-83.92463;;NaN;;129.03226;;0 / 0;34003;2022-10-28 13:48:45:521
7.4656;-3.0464;-3.5797;8.8738;-4.1744;0.0068;-1.1559;1.0387;-1.7279;1.0902;1.8398;0.4002;0.0;-6.86;46.69;26.23;33.32;25.19;-89.96;0.0;35.958927;-83.92463;;NaN;;129.03226;;0 / 0;34504;2022-10-28 13:48:46:022
8.2534;-2.6498;0.1161;9.1851;-3.3492;-0.767;-0.4804;0.6364;1.4346;-0.5239;-0.4637;-0.2122;0.0;-9.19;45.83;21.43;27.63;21.12;-92.47;0.0;35.958927;-83.92463;;NaN;;129.03226;;0 / 0;35003;2022-10-28 13:48:46:521
8.0985;-4.7336;-0.0257;9.2905;-3.1011;-0.4902;2.8201;-0.3757;-0.815;0.3706;0.0722;0.4139;0.0;-15.96;36.62;19.86;32.01;16.95;-93.47;0.0;35.958927;-83.92463;;NaN;;129.03226;;0 / 0;35504;2022-10-28 13:48:47:022
7.995;-3.1122;-3.5686;8.9161;-3.7664;-1.5773;-0.9679;0.4922;-1.9971;-0.6171;0.3722;0.1134;0.0;-19.48;34.56;10.86;17.14;22.59;-100.03;0.0;35.958927;-83.92463;;NaN;;129.03226;;0 / 0;36004;2022-10-28 13:48:47:522
8.1269;-2.7987;-1.2523;8.8746;-3.0773;-2.818;-0.6226;-0.2981;2.8847;-1.7338;0.0738;0.1565;0.0;-20.87;26.38;12.69;19.36;18.29;-107.62;0.0;35.958927;-83.92463;;NaN;;129.03226;;0 / 0;36504;2022-10-28 13:48:48:022
6.8883;-5.1802;1.8227;9.0443;-3.4735;-1.5187;-2.5;-1.8623;1.6585;-0.1805;1.9251;0.7333;0.0;-13.61;24.47;22.39;49.99;20.74;-99.53;0.0;35.958927;-83.92463;;NaN;;129.03226;;0 / 0;37003;2022-10-28 13:48:48:521
11.1452;-6.9033;-3.396;9.1173;-3.019;-1.9826;1.7003;-3.7495;-1.7035;-0.6405;0.4391;0.0613;0.0;-9.69;22.59;31.69;60.01;17.87;-103.01;0.0;35.958927;-83.92463;;NaN;;129.03226;;0 / 0;37505;2022-10-28 13:48:49:023
8.5193;-1.9836;-2.1739;9.4386;-2.3419;-1.2646;-0.5395;0.4045;-2.487;-0.7958;1.1543;-0.0073;0.0;-12.71;-4.26;38.04;102.8;13.82;-97.63;0.0;35.958927;-83.92463;;NaN;;129.03226;;0 / 0;38004;2022-10-28 13:48:49:522
6.763;-3.5016;5.2998;8.7165;-4.1401;1.7474;-0.9801;0.7872;3.4551;-0.5794;0.078;0.1822;0.0;-23.42;-27.47;29.4;133.79;24.97;-78.66;0.0;35.958927;-83.92463;;NaN;;129.03226;;0 / 0;38504;2022-10-28 13:48:50:022
10.0241;-2.0282;1.6113;9.0461;-3.6907;-0.8464;3.3303;-2.7243;0.2155;-0.5606;-0.0898;-0.4256;0.0;-28.89;-28.37;30.71;143.38;22.11;-95.35;0.0;35.958927;-83.92463;;NaN;;129.03226;;0 / 0;39004;2022-10-28 13:48:50:522
10.7219;-3.3464;-1.4874;9.3251;-2.9679;-0.6359;1.3905;-0.2717;-0.9608;-0.6263;-0.5337;0.3292;0.0;-21.75;-25.61;29.66;136.45;16.5;-90.69;0.0;35.958927;-83.92463;;NaN;;129.03226;;0 / 0;39504;2022-10-28 13:48:51:022
9.7062;-4.092;-1.1874;8.6715;-4.3829;1.3287;0.3817;0.8985;-3.3399;0.5049;0.9599;0.237;0.0;-25.13;-16.87;22.46;134.12;26.55;-81.29;0.0;35.958927;-83.92463;;NaN;;129.03226;;0 / 0;40005;2022-10-28 13:48:51:523
7.1521;-2.0049;1.0289;9.3721;-2.8673;0.336;-1.8817;0.2796;1.1661;-0.291;-0.335;-0.4014;0.0;-26.74;-11.51;17.25;136.9;17.0;-87.95;0.0;35.958927;-83.92463;;NaN;;129.03226;;0 / 0;40504;2022-10-28 13:48:52:022
6.3927;-3.4672;3.0775;8.7891;-3.9992;1.711;-1.8836;-0.0931;1.8063;-0.4381;0.4644;0.4675;0.0;-24.19;-11.49;13.59;135.36;24.07;-78.98;0.0;35.958927;-83.92463;;NaN;;129.03226;;0 / 0;41003;2022-10-28 13:48:52:521
9.3634;-1.8562;2.0297;9.159;-3.5034;0.0991;0.3092;1.622;1.9314;0.4416;0.0947;-0.3331;0.0;-24.02;-6.21;9.26;149.47;22.22;-90.82;0.0;35.958927;-83.92463;;NaN;;129.03226;;0 / 0;41504;2022-10-28 13:48:53:022
12.1247;-3.4648;0.8046;9.2572;-3.1191;0.8637;3.2905;-0.5266;-0.7369;0.1736;-0.1517;0.2286;0.0;-18.94;-7.76;5.46;153.38;18.55;-84.67;0.0;35.958927;-83.92463;;NaN;;129.03226;;0 / 0;42003;2022-10-28 13:48:53:521
9.8294;-4.0328;-2.3133;9.0059;-3.8556;0.446;0.8782;-0.1959;-3.4133;0.3687;0.6699;-0.0466;0.0;-17.59;-4.46;4.58;155.37;23.2;-90.19;0.0;35.958927;-83.92463;;NaN;;129.03226;;0 / 0;42505;2022-10-28 13:48:54:023
8.5585;-2.9336;-1.5467;9.393;-2.8179;-0.0289;-1.3698;0.5905;-0.4095;-0.1267;0.4891;-0.2718;0.0;-15.73;-1.42;4.14;144.6;16.7;-90.18;0.0;35.958927;-83.92463;;NaN;;129.03226;;0 / 0;43004;2022-10-28 13:48:54:522
7.0092;-3.7256;1.7605;9.0899;-3.5793;0.8565;-1.9688;-0.2342;0.8136;-0.1673;-0.8843;0.2357;0.0;-12.86;3.69;-1.52;185.89;20.45;-81.63;0.0;35.958927;-83.92463;;NaN;;129.03226;;0 / 0;43503;2022-10-28 13:48:55:021
7.3816;-2.633;1.823;9.3247;-2.9835;0.5648;-1.6538;0.6628;1.7653;0.1386;0.6276;-0.282;0.0;-16.72;11.89;-1.35;2.68;18.71;-85.7;0.0;35.958927;-83.92463;;NaN;;129.03226;;0 / 0;44004;2022-10-28 13:48:55:522
8.9862;-5.5786;1.5227;9.1047;-3.571;0.7222;0.9869;-1.7499;0.0882;-0.1245;0.5693;0.5215;0.0;-21.51;16.65;-0.36;7.16;18.92;-87.07;0.0;35.958927;-83.92463;;NaN;;129.03226;;0 / 0;44504;2022-10-28 13:48:56:022
9.2315;-5.8935;1.279;8.5421;-4.6535;1.2443;-0.642;-1.0117;0.8764;-0.8895;-0.2245;-0.5169;0.0;-25.44;20.21;3.08;47.27;28.33;-81.71;0.0;35.958927;-83.92463;;NaN;;129.03226;;0 / 0;45005;2022-10-28 13:48:56:523
8.2217;-1.0334;-2.2513;9.0899;-3.1295;-1.9368;-0.5874;1.3313;1.8296;-1.8234;-0.7293;-0.0999;0.0;-33.99;7.28;4.71;206.99;18.61;-102.03;0.0;35.958927;-83.92463;;NaN;;129.03226;;0 / 0;45503;2022-10-28 13:48:57:021
6.4887;-4.6373;2.0444;9.0242;-3.7279;-0.9147;-1.9379;-2.3094;1.1763;-0.6027;2.1501;0.8731;0.0;-40.91;-8.83;3.13;190.69;20.26;-100.14;0.0;35.958927;-83.92463;;NaN;;129.03226;;0 / 0;46004;2022-10-28 13:48:57:522
10.9292;-6.4418;-4.334;8.9544;-3.2505;-2.3287;0.5905;-2.523;-2.1062;0.0095;-0.2555;-0.0934;0.0;-41.31;-9.64;-0.22;203.94;19.42;-104.19;0.0;35.958927;-83.92463;;NaN;;129.03226;;0 / 0;46504;2022-10-28 13:48:58:022
8.1769;-2.3841;-3.3461;9.0441;-3.0591;-2.2396;-0.7621;0.3132;-1.2307;-1.3366;0.7139;0.4487;0.0;-31.74;-12.24;4.52;187.53;18.18;-103.91;0.0;35.958927;-83.92463;;NaN;;129.03226;;0 / 0;47004;2022-10-28 13:48:58:522
8.3853;-4.2221;2.4577;8.8702;-4.1771;0.2063;-1.0761;0.1411;4.4061;-2.0178;0.4216;-0.1849;0.0;-24.86;-7.2;-8.06;203.5;25.21;-88.67;0.0;35.958927;-83.92463;;NaN;;129.03226;;0 / 0;47503;2022-10-28 13:48:59:021
7.7901;-2.9521;1.9451;9.1602;-3.416;-0.7695;-0.73;-0.1688;2.0994;-0.8459;1.1437;-0.0738;0.0;-26.38;-1.39;-5.08;216.14;21.17;-95.32;0.0;35.958927;-83.92463;;NaN;;129.03226;;0 / 0;48004;2022-10-28 13:48:59:522
12.5865;-2.942;-1.6146;9.2432;-3.1135;-1.0194;3.5726;-0.2373;-1.3853;0.8332;0.7717;0.648;0.0;-33.75;-2.32;1.91;196.23;16.36;-98.99;0.0;35.958927;-83.92463;;NaN;;129.03226;;0 / 0;48503;2022-10-28 13:49:00:021
9.5112;-4.3244;2.956;8.1854;-4.8962;2.2796;0.6861;-0.5968;-2.863;0.3281;1.2559;-0.13;0.0;-41.4;6.38;1.69;137.79;29.95;-74.44;0.0;35.958927;-83.92463;;NaN;;129.03226;;0 / 0;49004;2022-10-28 13:49:00:522
7.9277;-2.5487;0.7558;9.2502;-3.1057;0.9797;-2.2088;0.3175;-0.0093;-0.2089;0.2882;-0.339;0.0;-43.01;4.95;4.58;132.26;18.46;-83.95;0.0;35.958927;-83.92463;;NaN;;129.03226;;0 / 0;49504;2022-10-28 13:49:01:022
7.1474;-3.5623;3.3748;8.8012;-4.0447;1.533;-0.9992;-0.1277;2.3012;-0.125;0.3854;0.4668;3.6;-43.33;4.41;4.78;131.47;22.85;-77.97;0.0;35.958927;-83.92463;;NaN;;129.03226;;0 / 0;50003;2022-10-28 13:49:01:521
11.418;-5.8669;4.4013;8.0167;-4.2635;3.7048;3.0695;-1.2312;0.2488;-0.2863;-0.3438;-0.4369;4.4;-42.09;16.56;-0.92;96.35;26.72;-63.83;0.0;35.958927;-83.92463;;NaN;;129.03226;;0 / 0;50504;2022-10-28 13:49:02:022
9.8539;-2.065;2.2307;9.1297;-2.47;2.5919;-0.3785;0.0788;-0.8983;0.171;0.5802;-0.3326;0.0;-42.0;20.1;0.32;51.33;14.59;-74.15;0.0;35.958927;-83.92463;;NaN;;129.03226;;0 / 0;51004;2022-10-28 13:49:02:522
6.9063;-3.2228;1.7007;8.8544;-3.9736;1.4072;-2.0538;0.8023;1.2501;-0.163;-0.0267;0.3219;0.0;-38.98;26.38;-2.16;27.29;23.9;-80.97;0.0;35.958927;-83.92463;;NaN;;129.03226;;0 / 0;51504;2022-10-28 13:49:03:022
8.3686;-2.5902;2.6103;9.0783;-3.4474;1.3678;0.2967;0.5079;1.8438;-0.0767;-0.5282;-0.248;0.0;-32.12;36.83;-8.21;354.35;21.49;-79.81;0.0;35.958927;-83.92463;;NaN;;129.03226;;0 / 0;52004;2022-10-28 13:49:03:522
10.6977;-2.8364;0.8889;9.2867;-2.5543;1.845;1.4202;0.0224;-0.8325;-0.1311;-0.5695;0.1447;0.0;-33.58;32.08;-6.67;2.87;14.51;-76.52;0.0;35.958927;-83.92463;;NaN;;129.03226;;0 / 0;52504;2022-10-28 13:49:04:022
8.6181;-3.4199;0.9347;8.451;-4.3253;2.4582;-0.1419;0.2543;-1.9549;0.9389;0.5294;0.5169;0.0;-33.84;22.48;-18.56;288.96;26.17;-73.78;0.0;35.958927;-83.92463;;NaN;;129.03226;;0 / 1;53003;2022-10-28 13:49:04:521
8.613;-2.8349;4.3367;8.7791;-3.8937;1.9843;-0.3796;-0.4403;2.739;-0.6665;-1.248;-0.5652;0.0;-29.66;23.06;-22.33;297.0;23.39;-77.26;0.0;35.958927;-83.92463;;NaN;;129.03226;;0 / 1;53505;2022-10-28 13:49:05:023
8.4966;-1.6346;2.0339;8.9399;-2.0991;3.4412;-0.0989;0.4308;-1.5907;0.3774;0.7847;-0.2207;0.0;-37.78;14.61;-16.37;328.13;13.13;-71.72;0.0;35.958927;-83.92463;;NaN;;129.03226;;0 / 1;54003;2022-10-28 13:49:05:521
6.982;-4.5829;3.4406;8.7041;-3.8839;2.3074;-1.5054;-0.7827;1.1945;-0.9486;-0.1059;0.1682;0.0;-30.17;9.36;-31.28;255.38;21.78;-73.67;0.0;35.958927;-83.92463;;NaN;;129.03226;;0 / 1;54504;2022-10-28 13:49:06:022
8.5352;-3.3981;-3.6206;8.9469;-3.9047;-0.936;-0.5558;0.3295;-0.5418;-1.0725;-0.7277;-0.3432;0.0;-37.05;17.08;-28.07;273.79;23.46;-95.97;0.0;35.958927;-83.92463;;NaN;;129.03226;;0 / 1;55004;2022-10-28 13:49:06:522
9.4071;-1.5739;1.3439;9.4278;-2.6992;0.0275;-0.9013;-0.2066;2.6322;-2.4997;-0.2178;-0.4397;0.0;-36.71;9.23;-20.79;265.76;15.98;-89.83;0.0;35.958927;-83.92463;;NaN;;129.03226;;0 / 1;55504;2022-10-28 13:49:07:022
5.7494;-4.4157;6.8079;8.1399;-4.203;3.4996;-0.443;0.134;2.3619;-0.0043;1.0032;0.6412;0.0;-30.66;6.99;-19.58;213.48;25.38;-66.74;0.0;35.958927;-83.92463;;NaN;;129.03226;;0 / 1;56003;2022-10-28 13:49:07:521
9.7146;-5.525;3.6491;8.3528;-4.4138;2.6304;0.9254;-0.892;1.1853;-0.7784;-1.0695;-0.8224;0.0;-26.08;9.06;-25.61;241.21;28.35;-68.57;0.0;35.958927;-83.92463;;NaN;;129.03226;;0 / 1;56504;2022-10-28 13:49:08:022
9.0697;-2.7305;-0.5958;9.2746;-3.0796;0.8171;-0.6285;0.433;-0.2308;-0.7112;0.1442;-0.304;0.0;-32.4;1.01;-16.89;236.0;18.3;-84.97;0.0;35.958927;-83.92463;;NaN;;129.03226;;0 / 2;57004;2022-10-28 13:49:08:522
9.6509;-4.2688;4.0098;8.6129;-3.4781;3.1451;2.5985;-0.1307;1.0647;0.1319;0.4466;0.6391;0.0;-35.68;-5.06;-17.21;190.94;20.77;-69.94;0.0;35.958927;-83.92463;;NaN;;129.03226;;0 / 2;57505;2022-10-28 13:49:09:023
8.3907;-3.7989;0.8195;8.7136;-4.3843;1.0109;-0.4013;0.1743;-1.5395;-0.2252;0.341;-0.018;0.0;-44.21;-7.01;-9.9;190.47;26.56;-83.38;0.0;35.958927;-83.92463;;NaN;;129.03226;;0 / 2;58004;2022-10-28 13:49:09:522
8.356;-3.181;4.005;9.1276;-3.5714;0.3204;-0.6174;0.3196;3.7744;-0.6958;0.2733;-0.3254;0.0;-41.01;-11.47;5.44;165.44;22.61;-87.61;0.0;35.958927;-83.92463;;NaN;;129.03226;;0 / 2;58504;2022-10-28 13:49:10:022
7.8045;-4.4839;4.0866;8.8014;-3.8338;2.002;2.5426;-1.0988;1.1411;0.3527;0.6329;0.8799;0.0;-44.04;-11.83;-4.89;175.44;20.38;-80.76;0.0;35.958927;-83.92463;;NaN;;129.03226;;0 / 2;59003;2022-10-28 13:49:10:521
7.2751;-5.0447;2.8289;7.9148;-5.0877;2.7645;0.3328;0.1618;-1.2247;0.4463;1.683;0.2892;0.0;-45.43;-2.03;-11.62;179.79;30.66;-74.95;0.0;35.958927;-83.92463;;NaN;;129.03226;;0 / 2;59503;2022-10-28 13:49:11:021
7.6146;-2.479;1.9669;8.9822;-3.581;1.6329;-1.2683;0.7274;1.6449;-0.2307;-0.3508;-0.4804;0.0;-45.28;0.41;-13.27;195.57;21.42;-79.7;0.0;35.958927;-83.92463;;NaN;;129.03226;;0 / 2;60005;2022-10-28 13:49:11:523
12.6126;-2.7443;2.158;9.2063;-2.9343;1.6749;3.5938;0.1607;0.5504;0.3321;-0.3685;0.296;0.0;-45.94;-6.73;-13.54;192.93;16.12;-78.55;0.0;35.958927;-83.92463;;NaN;;129.03226;;0 / 2;60503;2022-10-28 13:49:12:021
8.8514;-3.4283;0.0837;8.3774;-4.2676;2.7887;0.2835;0.9201;-3.1905;1.0846;1.0067;0.3056;0.0;-47.38;0.43;-9.9;179.47;25.28;-77.76;0.0;35.958927;-83.92463;;NaN;;129.03226;;0 / 2;61004;2022-10-28 13:49:12:522
7.5305;-2.3991;2.2591;9.0427;-3.148;2.119;-1.0019;1.1306;0.2543;0.2478;0.3006;-0.2931;0.0;-48.41;5.89;-9.13;173.59;20.0;-77.92;0.0;35.958927;-83.92463;;NaN;;129.03226;;0 / 2;61504;2022-10-28 13:49:13:022
12.0356;-3.8204;4.9059;8.9017;-2.5557;3.2246;2.6686;-0.3157;0.8595;0.2517;-0.6202;0.3234;0.0;-46.27;4.95;-7.97;131.29;15.11;-70.09;0.0;35.958927;-83.92463;;NaN;;129.03226;;0 / 3;62004;2022-10-28 13:49:13:522
8.2516;-3.65;1.8766;8.0258;-4.4363;3.475;0.3534;0.6507;-1.3783;0.1787;0.8992;0.4214;0.0;-35.78;20.33;-3.11;73.12;25.76;-70.15;0.0;35.958927;-83.92463;;NaN;;129.03226;;0 / 3;62504;2022-10-28 13:49:14:022
7.5344;-3.0676;1.4856;9.2012;-3.039;1.5075;-1.3344;-0.0117;0.2491;-0.0495;0.0503;-0.378;0.0;-19.72;29.63;1.24;11.32;19.14;-80.19;0.0;35.958927;-83.92463;;NaN;;129.03226;;0 / 3;63004;2022-10-28 13:49:14:522
11.0121;-3.6852;1.9663;9.1873;-3.1033;1.4607;3.7398;-0.188;1.0217;0.2849;-0.4244;0.6106;0.0;-18.26;24.08;0.13;10.75;16.44;-79.05;0.0;35.958927;-83.92463;;NaN;;129.03226;;0 / 3;63503;2022-10-28 13:49:15:021
7.3181;-4.8823;3.8548;7.6097;-4.4568;4.2894;0.4994;1.209;-1.5961;0.647;1.5264;0.7045;0.0;-8.38;26.08;-5.81;356.02;27.03;-60.59;0.0;35.958927;-83.92463;;NaN;;129.03226;;0 / 3;64004;2022-10-28 13:49:15:522
7.7441;-2.8612;2.2983;9.048;-3.1718;2.0602;-0.838;0.8064;0.3809;-0.0673;-0.2469;-0.3834;0.0;-3.0;25.43;-10.87;335.35;18.87;-77.17;0.0;35.958927;-83.92463;;NaN;;129.03226;;0 / 3;64504;2022-10-28 13:49:16:022
8.9303;-4.5607;3.3395;8.9747;-3.0881;2.4674;2.9948;-1.0968;1.3014;0.0086;-0.3023;0.5672;0.1;-3.02;22.29;-7.99;340.62;16.11;-75.01;0.0;35.958927;-83.92463;;NaN;;129.03226;;0 / 3;65004;2022-10-28 13:49:16:522
7.1898;-4.5419;3.9365;7.5061;-4.7029;4.2085;0.0554;0.1995;-0.9754;-0.091;0.7436;0.0018;0.1;1.59;23.85;-6.69;340.75;28.31;-63.95;0.0;35.958927;-83.92463;;NaN;;129.03226;;0 / 4;65503;2022-10-28 13:49:17:021
7.9214;-2.1257;1.3717;9.1001;-3.4998;1.0539;-1.6218;0.292;1.3685;-0.7964;-0.2948;-0.4374;0.0;0.02;20.76;-0.9;357.1;20.91;-83.39;0.0;35.958927;-83.92463;;NaN;;129.03226;;0 / 4;66004;2022-10-28 13:49:17:522
7.8984;-4.1495;1.2114;9.0875;-3.6631;0.4108;-0.9144;-1.2831;-0.1391;-0.6864;0.2019;0.3076;0.0;-8.19;10.09;8.03;52.43;21.93;-87.41;0.0;35.958927;-83.92463;;NaN;;129.03226;;0 / 4;66504;2022-10-28 13:49:18:022
8.3946;-3.7256;-2.8839;8.8782;-4.0416;-1.0068;-0.2464;0.4249;-1.3706;-0.2232;-0.1494;-0.0964;0.0;-15.52;-1.12;11.63;128.14;25.07;-95.6;0.0;35.958927;-83.92463;;NaN;;129.03226;;0 / 4;67004;2022-10-28 13:49:18:522
8.6874;-3.239;2.6348;9.0725;-3.7205;0.1309;-0.0791;0.2613;2.9125;-1.0665;0.0984;-0.3123;0.0;-21.81;-17.12;9.96;156.33;23.32;-88.4;0.0;35.958927;-83.92463;;NaN;;129.03226;;0 / 4;67504;2022-10-28 13:49:19:022
10.3846;-6.623;-1.2912;9.0676;-3.3392;-1.6729;3.1403;-0.1591;-1.7067;-0.5831;0.1889;0.1535;0.0;-33.09;-38.76;-0.84;188.32;19.91;-100.45;0.0;35.958927;-83.92463;;NaN;;129.03226;;0 / 4;68004;2022-10-28 13:49:19:522
8.4556;-3.7439;-2.5448;8.8902;-4.0191;-0.9904;-0.4702;1.4395;-3.0133;0.8456;0.1539;-0.4893;0.0;-40.43;-38.55;-15.02;200.69;24.19;-96.36;0.0;35.958927;-83.92463;;NaN;;129.03226;;0 / 4;68504;2022-10-28 13:49:20:022
9.6694;-1.4782;1.6023;9.5467;-2.1441;0.6593;-0.3327;0.1577;1.4528;-2.6069;0.2925;-1.008;0.0;-31.91;-35.23;-2.59;179.69;14.36;-84.24;0.0;35.958927;-83.92463;;NaN;;129.03226;;0 / 4;69004;2022-10-28 13:49:20:522
9.8764;-4.0881;2.3566;9.0342;-3.277;1.953;1.7206;-0.4416;0.3381;-0.3273;0.5614;0.5932;0.0;-17.98;-20.91;-12.51;201.44;16.34;-81.22;0.0;35.958927;-83.92463;;NaN;;129.03226;;0 / 4;69504;2022-10-28 13:49:21:022
6.3577;-5.9408;4.7578;7.4085;-5.0317;3.9958;-0.1108;0.8374;-5.8146;0.3621;3.3409;0.611;1.3;-7.54;-0.9;-18.39;233.68;30.87;-61.66;0.0;35.958927;-83.92463;;NaN;;129.03226;;0 / 4;70004;2022-10-28 13:49:21:522
7.4764;-3.1786;2.3614;9.1597;-3.1998;1.4256;-1.6325;-0.3195;1.4033;-0.334;-0.0194;-0.3495;9.9;-5.34;-1.78;-19.16;256.1;19.04;-81.15;0.0;35.958927;-83.92463;;NaN;;129.03226;;0 / 4;70504;2022-10-28 13:49:22:022
9.0353;-3.9326;3.1481;9.031;-3.5062;1.5228;0.0208;-0.3404;1.3258;0.1897;-1.1877;0.6671;6.5;-7.86;-3.68;-20.57;248.65;19.75;-80.61;0.0;35.958927;-83.92463;;NaN;;129.03226;;0 / 4;71004;2022-10-28 13:49:22:522
8.0303;-3.9165;2.4616;7.6033;-4.6432;4.0989;0.7687;0.6758;-1.9756;0.4461;1.0553;0.1871;13.2;-12.9;0.45;-17.23;228.63;28.47;-65.83;0.0;35.958927;-83.92463;;NaN;;129.03226;;0 / 4;71503;2022-10-28 13:49:23:021
7.8802;-1.8024;1.6762;9.0927;-2.5149;2.6774;-1.5061;0.6714;-0.6094;0.7063;-0.0361;-0.2586;0.0;-13.67;3.21;-17.79;262.1;14.86;-73.59;0.0;35.958927;-83.92463;;NaN;;129.03226;;0 / 4;72004;2022-10-28 13:49:23:522
7.1623;-3.5022;5.199;8.5853;-3.4296;3.2712;-0.9297;-0.1916;0.4583;-0.2975;0.1865;0.4461;0.0;-12.96;4.63;-15.24;261.33;20.47;-69.14;0.0;35.958927;-83.92463;;NaN;;129.03226;;0 / 4;72504;2022-10-28 13:49:24:022
9.3751;-4.963;5.5481;6.9209;-4.4116;5.3674;-0.758;-1.0747;-0.5394;0.1184;-0.5999;-0.6913;0.0;-4.31;10.76;-16.39;291.39;26.73;-52.21;0.0;35.958927;-83.92463;;NaN;;129.03226;;0 / 4;73003;2022-10-28 13:49:24:521
7.8464;-2.2265;2.5496;8.7173;-2.6455;3.6305;-0.8165;0.4253;-0.9655;-0.283;0.5973;-0.5459;0.0;-1.69;7.95;-15.11;292.56;17.08;-68.97;0.0;35.958927;-83.92463;;NaN;;129.03226;;0 / 4;73504;2022-10-28 13:49:25:022
6.3511;-4.0807;3.9311;8.2286;-3.8807;3.6607;-1.3344;-0.7358;1.4307;-0.6257;-0.0973;0.2663;0.0;-0.04;1.2;-14.64;263.78;23.31;-66.02;0.0;35.958927;-83.92463;;NaN;;129.03226;;0 / 4;74004;2022-10-28 13:49:25:522
9.5513;-5.8834;6.3951;6.778;-4.5019;5.4738;2.7664;-0.6557;-0.5195;-0.2223;-0.283;-0.4817;0.0;5.31;-2.04;-17.01;253.35;27.33;-51.08;0.0;35.958927;-83.92463;;NaN;;129.03226;;0 / 4;74504;2022-10-28 13:49:26:022
8.5786;-2.3498;4.3412;8.4152;-2.4069;4.4229;-0.6798;-0.7341;-1.2723;0.2306;0.8527;-0.4149;0.0;6.56;-10.46;-19.09;242.74;14.21;-62.27;0.0;35.958927;-83.92463;;NaN;;129.03226;;0 / 4;75004;2022-10-28 13:49:26:522
6.5366;-3.2623;3.6224;8.6016;-4.061;2.3856;-2.0111;0.7432;1.3021;-0.6099;-0.6213;0.1771;0.0;5.49;-13.58;-20.06;236.78;23.26;-71.74;0.0;35.958927;-83.92463;;NaN;;129.03226;;0 / 5;75504;2022-10-28 13:49:27:022
9.7472;-5.4718;3.8037;7.3991;-4.2962;4.7923;1.1521;-0.45;-1.0354;0.0534;-0.6127;-0.571;0.0;4.95;-14.49;-20.36;230.31;27.83;-54.43;0.0;35.958927;-83.92463;;NaN;;129.03226;;0 / 5;76003;2022-10-28 13:49:27:521
7.5458;-2.4332;1.9466;9.0242;-3.624;1.2654;-1.602;0.8922;0.8144;-1.1463;-0.6385;-0.2703;0.0;10.07;-10.86;-18.32;248.28;22.17;-78.73;0.0;35.958927;-83.92463;;NaN;;129.03226;;0 / 5;76504;2022-10-28 13:49:28:022
11.5543;-4.4351;-1.4833;9.1925;-3.2856;-0.9347;1.1405;0.4871;-1.5073;-0.7646;-0.2219;0.0283;0.0;13.24;-1.24;-14.79;285.99;19.57;-95.81;0.0;35.958927;-83.92463;;NaN;;129.03226;;0 / 5;77004;2022-10-28 13:49:28:522
7.5897;-4.8691;-0.2907;7.1528;-5.2449;4.1831;0.5688;0.1751;-4.2225;0.9858;2.1476;0.4207;0.0;17.74;-0.36;-6.71;300.24;32.97;-68.22;0.0;35.958927;-83.92463;;NaN;;129.03226;;0 / 5;77504;2022-10-28 13:49:29:022
7.3211;-2.5292;3.4977;8.8414;-3.4368;2.4875;-1.269;1.0056;1.2043;-0.7555;-0.016;-0.4899;0.0;16.37;2.04;7.26;15.31;21.58;-73.78;0.0;35.958927;-83.92463;;NaN;;129.03226;;0 / 5;78003;2022-10-28 13:49:29:521
10.0857;-3.4265;2.6222;9.0858;-2.5199;2.6959;0.4455;-0.4332;-0.0967;-0.9683;-0.1954;-0.0505;0.0;11.91;5.51;14.42;44.83;13.71;-71.66;0.0;35.958927;-83.92463;;NaN;;129.03226;;0 / 7;78504;2022-10-28 13:49:30:022
7.8661;-3.8602;0.0709;8.4896;-4.6658;1.5256;-1.2778;1.7988;0.5118;0.3714;-0.3237;0.4445;0.0;4.56;2.76;20.29;70.49;28.41;-79.81;0.0;35.958927;-83.92463;;NaN;;129.03226;;0 / 7;79003;2022-10-28 13:49:30:521
7.1629;-4.6143;7.2335;8.2851;-3.8267;3.5894;-1.1528;-0.7912;3.5558;-0.8257;-0.274;-0.6855;0.0;-5.62;3.04;17.94;78.73;23.56;-64.01;0.0;35.958927;-83.92463;;NaN;;129.03226;;0 / 7;79504;2022-10-28 13:49:31:022
8.7476;-2.5244;0.3173;9.2043;-3.3332;0.585;-0.8335;0.2389;-0.0062;-0.9303;0.0994;-0.1713;0.0;-14.46;-12.38;13.48;137.92;20.2;-85.02;0.0;35.958927;-83.92463;;NaN;;129.03226;;0 / 7;80004;2022-10-28 13:49:31:522
6.3841;-4.7557;3.7962;8.5983;-4.4597;1.5333;-1.6968;-0.5663;1.611;-0.1725;1.8808;0.5471;0.0;-19.12;-21.58;3.98;169.96;24.7;-87.19;0.0;35.958927;-83.92463;;NaN;;129.03226;;0 / 7;80503;2022-10-28 13:49:32:021
7.902;-5.3671;3.009;7.4253;-5.1411;3.8215;-1.6766;-0.7993;0.7539;0.0089;-0.1764;-0.4449;0.0;-27.56;-16.2;-16.39;182.65;31.62;-62.77;0.0;35.958927;-83.92463;;NaN;;129.03226;;0 / 7;81004;2022-10-28 13:49:32:522
7.3167;-2.3225;3.3891;8.9211;-3.07;2.6757;-1.7002;0.4451;0.6643;0.2778;-0.0314;-0.3664;0.0;-34.05;-19.2;-17.76;194.05;18.24;-73.3;0.0;35.958927;-83.92463;;NaN;;129.03226;;0 / 7;81504;2022-10-28 13:49:33:022
7.465;-4.0496;4.9537;8.5709;-3.3153;3.4233;0.6311;-1.2211;1.4817;0.3095;0.2438;0.9842;0.0;-37.82;-24.58;-13.39;180.01;17.36;-71.13;0.0;35.958927;-83.92463;;NaN;;129.03226;;0 / 7;82004;2022-10-28 13:49:33:522
6.3924;-5.4622;5.4739;7.1744;-4.6414;4.8121;-0.5839;-1.0357;0.4969;-0.3573;-0.2077;-0.4723;0.0;-39.23;-14.87;-16.69;165.85;28.59;-55.12;0.0;35.958317;-83.92473;820.19;NaN;0.0;225.5696;;0 / 7;82503;2022-10-28 13:49:34:021
8.4182;-2.2618;2.1365;9.0396;-2.7391;2.6368;-1.3882;0.4118;-0.1845;0.0054;-0.0938;-0.3595;0.0;-36.56;-14.87;-15.62;191.06;16.22;-73.74;0.0;35.958317;-83.92473;820.19;NaN;0.0;225.5696;;0 / 7;83004;2022-10-28 13:49:34:522
8.2546;-3.6808;2.8681;8.9484;-3.1459;2.4899;1.3423;-1.3658;0.9853;0.1177;0.8185;0.6677;0.0;-35.64;-17.98;-9.21;178.06;18.71;-74.45;0.0;35.958317;-83.92473;820.19;NaN;0.0;225.5696;;3 / 7;83504;2022-10-28 13:49:35:022
7.1955;-5.1538;5.1592;7.4188;-4.5088;4.561;-1.1458;-1.4596;0.8661;-0.1331;0.4253;-0.097;0.0;-32.59;-5.72;-10.33;152.21;28.49;-54.54;0.0;35.958317;-83.92473;820.19;NaN;0.0;225.5696;;3 / 7;84004;2022-10-28 13:49:35:522
7.3241;-2.3982;2.1159;9.0937;-2.8945;2.2578;-1.7252;0.4345;-0.1293;0.2873;0.2006;-0.221;0.0;-28.09;-4.5;-9.06;190.79;18.13;-76.98;0.0;35.958317;-83.92473;820.19;NaN;0.0;225.5696;;3 / 7;84504;2022-10-28 13:49:36:022
8.4703;-3.7998;2.825;9.0165;-3.2751;2.0363;3.0572;-0.9802;1.0905;0.165;-0.6797;0.6829;0.0;-24.88;-8.19;-7.61;188.03;19.51;-77.27;0.0;35.958317;-83.92473;820.19;NaN;0.0;225.5696;;3 / 7;85004;2022-10-28 13:49:36:522
7.5514;-4.727;2.2672;8.0729;-4.7102;2.9686;-0.076;-0.1259;-2.2855;3.0E-4;0.8204;0.0801;0.8;-21.82;-2.64;-7.95;179.65;28.71;-69.81;0.0;35.958317;-83.92473;820.19;NaN;0.0;225.5696;;3 / 7;85504;2022-10-28 13:49:37:022
7.9516;-2.4715;1.7587;9.2363;-3.2221;0.6931;-1.0679;0.7421;1.3261;-0.4439;-0.387;-0.2795;0.2;-16.91;-3.6;-13.54;231.06;20.04;-84.72;0.0;35.958317;-83.92473;820.19;NaN;0.0;225.5696;;3 / 7;86005;2022-10-28 13:49:37:523
12.5348;-3.0658;0.2644;9.2837;-3.1563;0.1469;4.2749;0.0082;0.0406;-0.1212;-0.243;0.2159;1.0;-16.82;-11.64;-12.69;218.13;16.8;-89.64;0.0;35.958317;-83.92473;820.19;NaN;0.0;225.5696;;3 / 7;86503;2022-10-28 13:49:38:021
8.5971;-4.7315;2.9043;8.0556;-4.0967;3.8071;0.5526;0.8787;-3.7425;0.6;2.2552;0.466;0.6;-19.07;-11.17;-10.91;185.45;24.69;-64.7;0.0;35.958317;-83.92473;820.19;NaN;0.0;225.5696;;3 / 7;87004;2022-10-28 13:49:38:522
7.873;-1.9101;0.6721;9.5088;-2.3061;0.6596;-1.3465;0.2404;-0.1036;0.2024;-0.2884;-0.2184;0.0;-10.78;-12.36;-17.7;229.79;13.6;-86.03;0.0;35.958317;-83.92473;820.19;NaN;0.0;225.5696;;3 / 7;87504;2022-10-28 13:49:39:022
9.1687;-3.1454;0.0852;9.3801;-2.8245;-0.4554;-0.5017;-0.5885;-0.0019;1.0664;-0.1612;0.3469;1.3;-10.05;-26.92;-20.31;216.33;15.43;-94.78;0.0;35.958317;-83.92473;820.19;NaN;0.0;225.5696;;3 / 7;88003;2022-10-28 13:49:39:521
9.9712;-5.3581;1.9896;9.1381;-3.3386;1.2324;0.452;-2.455;0.8584;-0.5648;-1.3343;-0.9345;0.1;-27.22;-41.64;-7.78;181.64;22.51;-76.38;0.0;35.958317;-83.92473;820.19;NaN;0.0;225.5696;;3 / 7;88504;2022-10-28 13:49:40:022
9.0987;-2.2726;-0.4935;9.4433;-2.576;-0.5988;-0.5714;0.6513;1.4897;-1.8826;-0.0033;0.0603;0.7;-41.93;-47.51;1.88;180.66;15.23;-93.63;0.0;35.958317;-83.92473;820.19;NaN;0.0;225.5696;;3 / 7;89004;2022-10-28 13:49:40:522
10.5616;-5.4676;-1.1052;9.0417;-3.473;-1.5353;2.5031;-1.1657;-0.6663;-0.3789;2.0427;0.6541;0.0;-47.81;-44.44;-11.59;199.15;20.74;-99.64;0.0;35.958317;-83.92473;820.19;NaN;0.0;225.5696;;3 / 7;89504;2022-10-28 13:49:41:022
8.5463;-3.4178;-3.3126;8.9486;-3.653;-1.658;-0.2632;0.2833;-0.9231;0.0576;-0.2047;-0.2873;0.0;-48.11;-25.89;-14.81;209.07;22.96;-99.87;0.0;35.958317;-83.92473;820.19;NaN;0.0;225.5696;;3 / 7;90004;2022-10-28 13:49:41:522
9.0748;-1.3717;-2.2406;9.0941;-2.8586;-2.3014;0.1739;1.2814;0.2505;-0.9799;0.5952;0.0851;0.0;-38.74;-27.24;4.39;190.41;17.57;-105.95;0.0;35.958317;-83.92473;820.19;NaN;0.0;225.5696;;3 / 7;90504;2022-10-28 13:49:42:022
6.6428;-5.519;2.0462;8.9812;-3.9088;-0.4786;-0.0757;-3.1832;0.5466;-0.3889;1.8028;0.7512;0.0;-32.19;-29.34;7.26;172.37;23.49;-93.05;0.0;35.958317;-83.92473;820.19;NaN;0.0;225.5696;;3 / 7;91003;2022-10-28 13:49:42:521
8.1846;-6.5674;1.7883;8.3391;-4.9173;1.5651;-0.5482;-0.873;0.9487;-0.4384;-0.4606;-0.6234;1.3;-33.13;-13.31;-3.45;173.56;30.09;-79.37;0.0;35.958317;-83.92473;820.19;NaN;0.0;225.5696;;3 / 7;91504;2022-10-28 13:49:43:022
7.8141;-2.4003;0.5868;9.3208;-3.0325;0.3116;-1.5677;0.4816;0.8321;-0.3056;0.6649;-0.3118;2.9;-27.07;-0.47;-4.24;200.26;18.01;-88.09;0.0;35.958317;-83.92473;820.19;NaN;0.0;225.5696;;3 / 7;92004;2022-10-28 13:49:43:522
8.1156;-2.6213;2.6174;9.044;-3.6824;0.9037;-0.8538;1.0409;1.6755;0.0368;-0.0963;0.4723;3.4;-24.41;6.75;-9.88;252.38;20.5;-82.93;0.0;35.958317;-83.92473;820.19;NaN;0.0;225.5696;;3 / 7;92504;2022-10-28 13:49:44:022
9.2803;-4.6409;4.043;8.0423;-4.1667;3.7591;-0.4619;-0.5287;0.0504;0.3809;0.6554;-0.0204;5.5;-17.47;20.76;-13.63;331.13;25.14;-64.95;0.0;35.958317;-83.92473;820.19;NaN;0.0;225.5696;;3 / 7;93003;2022-10-28 13:49:44:521
7.7004;-1.7393;2.2702;9.3087;-2.8328;1.2225;-2.3205;0.3379;1.3695;-0.2999;-0.0366;-0.1606;0.0;-16.22;24.47;-20.53;313.01;17.64;-81.34;0.0;35.958317;-83.92473;820.19;NaN;0.0;225.5696;;0 / 7;93504;2022-10-28 13:49:45:022
8.3414;-3.2357;3.0589;9.0488;-3.1582;2.0774;3.6161;-0.9913;2.1998;-0.1444;-0.5045;0.5721;0.8;-19.41;22.82;-23.78;306.34;18.79;-77.07;0.0;35.958317;-83.92473;820.19;NaN;0.0;225.5696;;0 / 7;94003;2022-10-28 13:49:45:521
7.4148;-4.561;3.6209;7.2849;-4.5136;4.7674;0.2565;-0.1227;-1.0449;0.0783;0.9175;0.0503;0.8;-14.21;27.11;-29.57;300.72;27.95;-58.94;0.0;35.958317;-83.92473;820.19;NaN;0.0;225.5696;;0 / 7;94504;2022-10-28 13:49:46:022
7.3116;-2.4188;2.1344;9.3283;-2.6362;1.4844;-2.0415;-0.1592;0.6639;0.1819;-0.118;-0.3034;0.0;-14.94;25.78;-31.89;303.46;16.55;-80.34;0.0;35.958317;-83.92473;820.19;NaN;0.0;225.5696;;0 / 7;95003;2022-10-28 13:49:46:521
8.9327;-3.8189;2.3013;9.0849;-3.3764;1.495;1.9577;-0.8762;0.9124;0.0236;0.109;0.5673;0.0;-21.71;22.78;-27.41;301.05;17.89;-80.55;0.0;35.958317;-83.92473;820.19;NaN;0.0;225.5696;;0 / 7;95504;2022-10-28 13:49:47:022
8.024;-4.5461;0.9425;8.428;-4.8348;1.3284;-0.2736;0.0613;-1.828;0.9102;1.2815;0.1448;0.0;-19.74;31.74;-23.34;309.8;29.54;-81.04;0.0;35.958317;-83.92473;820.19;NaN;0.0;225.5696;;0 / 7;96004;2022-10-28 13:49:47:522
6.9969;-2.5068;1.3268;9.2626;-3.1819;0.5006;-1.4036;0.8805;0.5619;-0.4735;0.1761;-0.3609;0.0;-21.28;28.54;-31.57;303.07;18.93;-86.91;0.0;35.958317;-83.92473;820.19;NaN;0.0;225.5696;;0 / 7;96504;2022-10-28 13:49:48:022
14.356;-3.2043;1.0373;9.4446;-2.6052;0.4276;3.9889;-1.1169;-0.6758;-0.0094;0.036;0.0718;0.0;-30.86;25.05;-29.59;299.5;14.33;-87.69;0.0;35.958317;-83.92473;820.19;NaN;0.0;225.5696;;0 / 7;97004;2022-10-28 13:49:48:522
8.3067;-3.8136;-1.657;8.9044;-4.0454;0.7187;-0.4409;0.0415;-2.698;1.0184;1.5127;0.2556;0.0;-29.74;24.21;-31.29;288.03;23.56;-91.58;0.0;35.958317;-83.92473;820.19;NaN;0.0;225.5696;;0 / 7;97504;2022-10-28 13:49:49:022
7.386;-2.1897;0.9694;9.3026;-3.0969;0.2007;-1.7784;1.3775;0.3937;-0.4428;-0.0115;-0.3428;0.0;-28.24;18.53;-37.93;283.43;18.41;-88.76;0.0;35.958317;-83.92473;820.19;NaN;0.0;225.5696;;0 / 7;98004;2022-10-28 13:49:49:522
11.4117;-2.1087;1.742;9.0511;-2.1839;3.0787;0.1179;0.5733;-0.7492;-0.7316;0.162;-0.0564;0.0;-38.68;10.82;-42.54;268.81;12.87;-71.21;0.0;35.958317;-83.92473;820.19;NaN;0.0;225.5696;;0 / 7;98504;2022-10-28 13:49:50:022
6.7804;-2.5056;1.7342;8.713;-4.3561;1.1309;-2.4316;1.2035;1.0266;-2.0464;-0.7768;-0.1364;0.0;-38.57;11.83;-42.0;254.11;25.57;-78.04;0.0;35.958317;-83.92473;820.19;NaN;0.0;225.5696;;0 / 7;99004;2022-10-28 13:49:50:522
8.5582;-3.3141;3.4056;9.234;-3.2502;0.5826;-0.8339;-0.5548;3.5217;-0.9389;0.7608;0.1343;0.0;-46.22;14.72;-23.08;268.55;18.4;-87.92;0.0;35.958317;-83.92473;820.19;NaN;0.0;225.5696;;0 / 7;99505;2022-10-28 13:49:51:023
11.2155;-3.5877;2.6824;9.2141;-2.3464;2.4011;0.5679;-0.9492;-1.0489;-0.9317;0.4362;0.236;0.0;-48.92;5.27;-14.49;189.23;13.84;-75.39;0.0;35.958317;-83.92473;820.19;NaN;0.0;225.5696;;0 / 7;100004;2022-10-28 13:49:51:522
7.6427;-4.1204;-0.7349;8.5607;-4.6439;1.1484;-1.459;1.3077;-0.0773;1.7251;0.8388;0.3761;0.0;-49.72;4.01;-7.93;183.59;28.26;-82.36;0.0;35.958317;-83.92473;820.19;NaN;0.0;225.5696;;0 / 7;100505;2022-10-28 13:49:52:023
7.0334;-3.7262;3.3233;8.9744;-3.4628;1.9078;-1.4914;-0.4611;1.852;-0.4681;0.2424;-0.3686;0.0;-48.54;9.3;-6.38;143.89;21.14;-75.17;0.0;35.958317;-83.92473;820.19;NaN;0.0;225.5696;;0 / 7;101004;2022-10-28 13:49:52:522
8.6468;-1.8039;2.1278;8.9258;-2.233;3.3933;0.0557;0.2984;-1.5536;0.4231;1.1877;-0.1287;0.0;-47.94;-1.42;3.06;126.26;14.14;-73.66;0.0;35.958317;-83.92473;820.19;NaN;0.0;225.5696;;1 / 7;101504;2022-10-28 13:49:53:022
6.2441;-3.9927;4.9041;8.2384;-4.2203;3.2385;-2.7094;-0.6988;2.5358;-1.5735;0.1167;-0.3611;0.0;-51.22;-8.51;-1.97;149.81;25.49;-68.54;0.0;35.958317;-83.92473;820.19;NaN;0.0;225.5696;;1 / 7;102003;2022-10-28 13:49:53:521
8.9677;-3.4558;-3.9826;8.7638;-4.2564;-1.1177;0.16;0.8711;0.4058;-0.9987;-0.9206;-0.4113;0.0;-57.13;-21.07;-4.29;194.5;25.72;-97.27;0.0;35.958317;-83.92473;820.19;NaN;0.0;225.5696;;0 / 7;102504;2022-10-28 13:49:54:022
9.8444;-2.3279;-2.7523;9.432;-2.5787;-0.7476;0.679;1.1322;-0.1307;-1.6613;-0.2291;-0.3192;0.0;-54.94;-38.03;9.34;174.04;16.42;-93.69;0.0;35.958317;-83.92473;820.19;NaN;0.0;225.5696;;0 / 7;103004;2022-10-28 13:49:54:522
7.1653;-3.9464;4.4076;8.6465;-4.142;2.062;-1.1968;0.0237;2.4549;-0.9173;0.0409;0.2549;0.0;-52.67;-40.84;-0.54;168.24;23.32;-75.73;0.0;35.958317;-83.92473;820.19;NaN;0.0;225.5696;;0 / 7;103504;2022-10-28 13:49:55:022
10.637;-4.7895;4.0555;7.7172;-4.5239;4.0186;-1.0561;-1.0734;1.5686;-0.2758;-0.9954;-0.7679;0.0;-58.29;-25.01;-5.49;154.55;27.47;-62.49;0.0;35.958317;-83.92473;820.19;NaN;0.0;225.5696;;0 / 7;104003;2022-10-28 13:49:55:521
7.8787;-2.5199;1.6026;9.2472;-3.0809;1.0806;-1.8533;0.4372;0.7551;0.141;0.4517;-0.2388;0.0;-51.62;-21.49;-0.66;172.07;18.31;-83.34;0.0;35.958317;-83.92473;820.19;NaN;0.0;225.5696;;0 / 7;104504;2022-10-28 13:49:56:022
10.8763;-4.0741;3.3488;8.9957;-3.3846;1.9474;3.5713;-1.03;1.8726;0.006;-0.545;0.5883;0.0;-44.74;-19.11;-0.47;162.07;18.38;-76.77;0.0;35.958317;-83.92473;820.19;NaN;0.0;225.5696;;0 / 7;105004;2022-10-28 13:49:56:522
8.6267;-3.4029;-0.2578;8.0684;-4.5947;3.1558;0.6753;1.1611;-3.664;0.8277;0.8133;0.2046;0.0;-44.62;-11.87;-3.15;166.97;27.67;-76.95;0.0;35.958317;-83.92473;820.19;NaN;0.0;225.5696;;0 / 7;105504;2022-10-28 13:49:57:022
6.8985;-2.1885;2.1006;9.1766;-2.9707;1.7709;-1.1857;1.6494;0.1831;-5.0E-4;-0.3091;-0.444;0.0;-45.9;-11.42;-9.86;182.55;17.63;-79.08;0.0;35.958317;-83.92473;820.19;NaN;0.0;225.5696;;0 / 7;106004;2022-10-28 13:49:57:522
11.0973;-4.1109;1.1662;9.2588;-2.7726;1.6608;0.8235;-0.9114;-0.3731;-0.1909;-0.4552;0.1765;0.0;-43.8;-14.25;-8.08;180.23;16.42;-79.83;0.0;35.958317;-83.92473;820.19;NaN;0.0;225.5696;;0 / 7;106504;2022-10-28 13:49:58:022
8.4509;-3.51;0.6455;8.7178;-4.1555;1.7035;-0.5835;0.407;-0.7732;0.2398;0.1908;0.2401;0.0;-45.02;-7.59;-6.54;179.81;24.49;-81.05;0.0;35.958317;-83.92473;820.19;NaN;0.0;225.5696;;0 / 7;107004;2022-10-28 13:49:58:522
8.3584;-1.6795;5.6635;8.8013;-3.3571;2.7273;-0.4495;1.5715;3.1612;-0.132;-1.403;-0.4214;0.0;-50.16;-2.1;-9.66;154.62;21.39;-67.9;0.0;35.958317;-83.92473;820.19;NaN;0.0;225.5696;;0 / 7;107504;2022-10-28 13:49:59:022
9.0996;-1.584;1.4949;9.2907;-2.077;2.3537;-0.0069;0.7783;-0.6627;0.116;0.3625;-0.1224;0.0;-50.08;-0.26;-2.66;138.04;12.23;-75.78;0.0;35.958317;-83.92473;820.19;NaN;0.0;225.5696;;0 / 7;108004;2022-10-28 13:49:59:522
7.2353;-3.0266;3.189;9.0826;-3.3731;1.5164;-1.0962;0.0529;1.8912;-0.3287;-0.2484;0.3358;0.0;-45.43;8.79;-4.43;153.8;20.12;-80.52;0.0;35.958317;-83.92473;820.19;NaN;0.0;225.5696;;0 / 7;108504;2022-10-28 13:50:00:022
7.6675;-4.5787;3.1977;8.1351;-4.208;3.5047;-0.5992;0.0138;-0.1437;0.1843;0.6788;0.0047;0.5;-36.07;25.13;-6.64;47.32;25.41;-66.69;0.0;35.958317;-83.92473;820.19;NaN;0.0;225.5696;;0 / 7;109004;2022-10-28 13:50:00:522
7.8317;-2.6139;2.1191;9.2168;-2.6861;2.0016;-1.2636;0.0617;0.1526;-0.2361;-0.5214;-0.3384;0.0;-32.62;30.17;-17.7;332.84;16.75;-75.8;0.0;35.958317;-83.92473;820.19;NaN;0.0;225.5696;;0 / 7;109504;2022-10-28 13:50:01:022
9.1917;-1.8473;0.3473;9.5066;-2.0633;1.2403;-0.0567;-0.0443;-1.8057;0.3228;0.7756;-0.0793;0.6;-31.61;25.41;-15.47;328.26;12.15;-82.57;0.0;35.958317;-83.92473;820.19;NaN;0.0;225.5696;;0 / 7;110004;2022-10-28 13:50:01:522
9.6239;-4.6229;3.8058;8.9741;-3.0155;2.5577;2.8968;-1.3407;1.9164;0.5865;-0.1939;0.8362;0.5;-32.53;20.85;-20.1;316.12;15.42;-73.7;0.0;35.958317;-83.92473;820.19;NaN;0.0;225.5696;;2 / 8;110504;2022-10-28 13:50:02:022
8.0321;-4.3367;1.9409;8.2082;-4.482;2.9508;0.2395;0.126;-2.7021;0.7181;1.6571;0.2569;0.2;-31.74;17.36;-22.01;258.31;27.2;-70.23;0.0;35.958317;-83.92473;820.19;NaN;0.0;225.5696;;2 / 8;111003;2022-10-28 13:50:02:521
8.4332;-1.7812;1.523;9.2132;-3.1239;1.2361;-0.7254;1.3385;0.2434;-1.0019;-0.4064;-0.514;0.0;-32.64;9.0;-26.34;258.43;19.92;-80.33;0.0;35.958317;-83.92473;820.19;NaN;0.0;225.5696;;0 / 8;111504;2022-10-28 13:50:03:022
8.6495;-1.2763;1.9451;8.959;-1.7951;3.5615;-0.0863;0.6415;-1.9247;-0.0867;0.3903;-0.1351;0.0;-39.92;-10.87;-28.24;209.95;10.55;-68.32;0.0;35.958317;-83.92473;820.19;NaN;0.0;225.5696;;0 / 8;112004;2022-10-28 13:50:03:522
6.2755;-4.0134;4.0316;8.6604;-4.054;2.1755;-2.7175;-0.2309;2.4337;-1.6663;-0.8608;-0.245;0.0;-45.84;-20.78;-33.82;203.1;23.59;-71.35;0.0;35.958317;-83.92473;820.19;NaN;0.0;225.5696;;0 / 8;112503;2022-10-28 13:50:04:021
11.4562;-6.3006;-3.3233;8.983;-3.2674;-2.1908;0.4574;-0.1399;-2.9999;0.3774;-0.3232;-0.3773;0.0;-57.49;-22.99;-26.72;226.28;19.46;-103.71;0.0;35.958317;-83.92473;820.19;NaN;0.0;225.5696;;0 / 8;113004;2022-10-28 13:50:04:522
7.8628;-3.1902;-3.3888;9.1382;-3.0946;-1.7572;-1.1564;-0.242;-1.6934;-0.451;0.4315;0.2001;0.0;-50.04;-18.26;-15.73;219.65;17.89;-101.73;0.0;35.958317;-83.92473;820.19;NaN;0.0;225.5696;;0 / 8;113504;2022-10-28 13:50:05:022
6.6425;-4.1584;3.7869;8.9144;-4.0326;0.6642;-2.2319;-1.7108;2.3915;-0.8145;1.5203;0.4386;0.0;-39.98;-6.77;-25.72;227.43;22.98;-87.78;0.0;35.958317;-83.92473;820.19;NaN;0.0;225.5696;;0 / 8;114004;2022-10-28 13:50:05:522
9.4427;-3.9562;-2.9007;9.2715;-2.937;-1.2583;-0.0746;-0.0648;-1.7692;0.6027;0.2233;-0.5753;0.0;-32.61;-5.59;-35.1;249.84;19.2;-98.99;0.0;35.958317;-83.92473;820.19;NaN;0.0;225.5696;;0 / 8;114503;2022-10-28 13:50:06:021
9.9419;-0.6571;-0.5291;9.4914;-2.3673;0.6933;0.2452;2.3666;1.578;-2.0045;0.4249;-0.3515;0.0;-20.25;-17.59;-26.14;227.1;13.97;-85.82;0.0;35.958317;-83.92473;820.19;NaN;0.0;225.5696;;0 / 8;115004;2022-10-28 13:50:06:522
7.0095;-2.4347;5.3524;8.5382;-3.7723;3.0065;-0.9262;0.5275;1.2542;0.3738;0.7052;0.8866;0.0;-13.16;-8.46;-17.49;219.38;22.62;-70.6;0.0;35.958317;-83.92473;820.19;NaN;0.0;225.5696;;0 / 8;115504;2022-10-28 13:50:07:022
7.838;-5.7323;3.2883;7.6945;-4.6393;3.9297;-0.6041;-0.4258;-0.2537;0.0489;-0.0418;-0.0431;3.7;-13.82;3.66;-2.36;120.55;28.57;-61.94;0.0;35.958317;-83.92473;820.19;NaN;0.0;225.5696;;0 / 8;116004;2022-10-28 13:50:07:522
6.2524;-2.9013;2.1168;9.2515;-2.5921;1.9648;-2.6905;-0.3936;0.1394;-0.1998;0.1275;-0.3258;0.0;-16.03;12.58;3.66;40.62;16.24;-78.39;0.0;35.958317;-83.92473;820.19;NaN;0.0;225.5696;;0 / 8;116504;2022-10-28 13:50:08:022
10.1731;-3.2468;2.3046;9.2832;-2.8249;1.4185;4.6257;-0.1025;1.5164;0.4136;-0.85;0.6573;2.9;-18.47;17.61;5.66;34.96;16.74;-81.31;0.0;35.958317;-83.92473;820.19;NaN;0.0;225.5696;;0 / 8;117004;2022-10-28 13:50:08:522
8.0641;-3.944;1.4614;8.1643;-4.0974;3.5675;0.3337;0.4699;-3.5827;0.3615;2.2038;0.426;2.9;-10.59;32.21;-0.51;8.04;24.7;-66.4;0.0;35.958317;-83.92473;820.19;NaN;0.0;225.5696;;0 / 8;117504;2022-10-28 13:50:09:022
7.4432;-3.143;1.3642;9.1887;-3.0735;1.5141;-1.2516;0.0624;0.1284;-0.4627;-0.3917;-0.4448;0.0;-4.95;40.11;-12.13;342.9;19.17;-79.64;0.0;35.958317;-83.92473;820.19;NaN;0.0;225.5696;;0 / 8;118004;2022-10-28 13:50:09:522
9.6981;-3.5405;1.9741;8.9926;-2.5706;2.9488;0.741;-0.5049;-0.9237;-0.0282;0.3347;0.254;0.0;-6.64;34.63;-16.95;335.44;14.21;-72.94;0.0;35.958317;-83.92473;820.19;NaN;0.0;225.5696;;0 / 8;118503;2022-10-28 13:50:10:021
7.9834;-4.5332;1.753;8.5563;-4.2134;2.2821;-1.5953;0.7647;-0.0086;-0.1219;0.0836;0.1481;0.0;-8.64;20.89;-21.06;305.67;25.45;-75.07;0.0;35.958317;-83.92473;820.19;NaN;0.0;225.5696;;0 / 8;119004;2022-10-28 13:50:10:522
8.5481;-1.6884;3.0081;8.9184;-3.5697;1.972;-0.023;1.2923;3.1797;-0.1874;-0.6824;-0.4625;0.0;-15.56;7.78;-23.72;269.65;21.35;-77.53;0.0;35.958317;-83.92473;820.19;NaN;0.0;225.5696;;3 / 6;119504;2022-10-28 13:50:11:022
10.5266;-2.2708;2.4742;9.0677;-2.4122;2.8512;1.1615;0.5803;-0.4111;0.0526;0.0451;0.1551;0.0;-30.04;1.54;-17.14;226.84;13.15;-70.75;0.0;35.958317;-83.92473;820.19;NaN;0.0;225.5696;;3 / 6;120003;2022-10-28 13:50:11:521
7.4477;-3.5222;1.745;8.4566;-4.4051;2.2915;-1.1909;0.9082;-0.2347;0.6804;-0.4134;0.5568;0.0;-30.75;5.76;-10.93;194.68;25.42;-74.42;0.0;35.958317;-83.92473;820.19;NaN;0.0;225.5696;;0 / 7;120504;2022-10-28 13:50:12:022
8.1452;-2.8983;3.871;8.6865;-3.3845;3.0431;-0.704;0.3768;2.1418;-0.2889;-0.8002;-0.4326;0.0;-30.88;11.08;-13.88;245.18;20.19;-70.69;0.0;35.958317;-83.92473;820.19;NaN;0.0;225.5696;;0 / 7;121004;2022-10-28 13:50:12:522
10.7856;-3.4792;0.7301;9.2131;-2.7294;1.9595;1.1263;0.6992;-0.5762;-0.6144;-0.3743;0.1572;0.0;-29.79;11.74;-10.69;301.07;16.16;-77.99;0.0;35.958317;-83.92473;820.19;NaN;0.0;225.5696;;0 / 9;121504;2022-10-28 13:50:13:022
8.1437;-3.5512;-0.2865;8.9597;-3.9297;0.6725;-0.9562;0.1596;-0.6597;-0.6509;-0.1012;0.1076;0.0;-23.83;18.3;-11.42;306.71;22.95;-86.02;0.0;35.958317;-83.92473;820.19;NaN;0.0;225.5696;;0 / 9;122004;2022-10-28 13:50:13:522
9.2665;-4.8652;0.8384;9.0118;-3.5768;-1.471;0.8012;-1.7184;2.1562;-0.2646;-0.0441;-0.1457;0.0;-21.84;21.11;-10.16;314.12;21.31;-96.43;0.0;35.958317;-83.92473;820.19;NaN;0.0;225.5696;;0 / 9;122504;2022-10-28 13:50:14:022
9.0676;-1.867;-1.8924;9.3302;-2.7762;-1.1879;-0.724;0.3271;-0.9457;-0.8773;0.7733;0.0598;0.0;-26.74;22.09;-10.76;314.17;16.45;-97.26;0.0;35.958317;-83.92473;820.19;NaN;0.0;225.5696;;0 / 9;123004;2022-10-28 13:50:14:522
7.7148;-2.4419;3.5874;9.0862;-3.689;-0.0402;-1.5871;0.1606;3.4291;-1.2587;-0.1838;0.2079;0.0;-36.66;14.25;-5.83;261.36;22.1;-90.25;0.0;35.958317;-83.92473;820.19;NaN;0.0;225.5696;;0 / 9;123504;2022-10-28 13:50:15:022
11.8499;-5.3249;-0.4481;9.0067;-3.6627;-1.2783;2.8626;-2.4143;0.1403;-0.0076;0.2276;0.086;0.0;-44.81;6.81;-1.16;212.56;21.75;-96.89;0.0;35.958317;-83.92473;820.19;NaN;0.0;225.5696;;0 / 9;124004;2022-10-28 13:50:15:522
8.1832;-2.9967;-2.7347;9.1727;-3.2192;-1.2919;-0.8052;0.1074;-1.6216;-0.9624;0.7027;0.3933;0.0;-53.91;-3.32;3.6;193.16;18.28;-99.13;0.0;35.958317;-83.92473;820.19;NaN;0.0;225.5696;;0 / 9;124503;2022-10-28 13:50:16:021
6.0236;-3.8498;5.3773;8.3335;-4.6133;2.3325;-3.4127;-1.3597;3.5326;-0.9593;1.0564;0.264;0.0;-61.52;-10.42;-0.86;156.97;28.06;-74.36;0.0;35.958317;-83.92473;820.19;NaN;0.0;225.5696;;0 / 9;125004;2022-10-28 13:50:16:522
11.2854;-6.9105;3.5291;7.9262;-4.3855;3.7568;0.7719;-2.2533;0.0817;-0.0499;0.4874;-0.2577;0.0;-67.54;-0.32;-12.75;152.39;27.96;-65.4;0.0;35.958317;-83.92473;820.19;NaN;0.0;225.5696;;0 / 9;125503;2022-10-28 13:50:17:021
8.7559;-2.473;-0.4011;9.2605;-3.067;1.0031;-0.1932;1.785;0.8017;-1.1761;-0.1031;-0.5669;0.0;-65.38;-7.27;-5.61;177.81;18.23;-83.82;0.0;35.958317;-83.92473;820.19;NaN;0.0;225.5696;;0 / 9;126004;2022-10-28 13:50:17:522
7.3843;-3.347;3.5249;8.6518;-4.4287;1.3053;-1.1814;1.055;2.2546;-1.3619;-0.0912;0.2084;0.0;-65.53;-13.39;-9.37;174.64;25.41;-78.98;0.0;35.958317;-83.92473;820.19;NaN;0.0;225.5696;;0 / 9;126504;2022-10-28 13:50:18:022
10.2529;-5.9608;3.3048;7.7121;-4.7678;3.7366;0.3216;-1.0044;0.0827;-0.1633;-0.8207;-0.5935;0.0;-67.03;-3.66;-15.6;157.74;29.09;-64.15;0.0;35.958317;-83.92473;820.19;NaN;0.0;225.5696;;0 / 9;127004;2022-10-28 13:50:18:522
8.2537;-3.2031;0.9721;9.1678;-3.1326;1.5192;-0.9793;-0.1815;-0.5238;0.3406;0.3631;-0.2455;0.0;-62.76;-2.96;-12.62;190.32;19.53;-82.28;0.0;35.958317;-83.92473;820.19;NaN;0.0;225.5696;;0 / 9;127504;2022-10-28 13:50:19:022
7.6567;-3.2821;3.868;8.8903;-3.6638;1.9259;-0.7608;0.3053;0.3262;0.2737;0.5988;0.5386;0.0;-54.56;-5.17;-12.51;182.36;21.94;-77.78;0.0;35.958317;-83.92473;820.19;NaN;0.0;225.5696;;0 / 9;128004;2022-10-28 13:50:19:522
7.2939;-5.1589;3.5578;8.1065;-4.2661;3.5007;-0.7019;-0.9912;0.1414;-0.1744;-0.1923;-0.3537;0.0;-44.83;5.18;-15.73;163.15;26.72;-64.28;0.0;35.95836;-83.9245;825.99;NaN;0.0;97.44282;;4 / 10;128503;2022-10-28 13:50:20:021
8.0617;-2.5376;1.462;9.2723;-2.823;1.4916;-1.7071;0.0727;0.3736;0.0992;0.1804;-0.1924;0.0;-38.04;0.15;-21.11;231.34;16.73;-80.86;0.0;35.95836;-83.9245;825.99;NaN;0.0;97.44282;;4 / 10;129004;2022-10-28 13:50:20:522
9.9664;-3.8124;3.291;9.0324;-3.1999;2.085;2.5596;-0.8507;1.3117;0.209;-0.2127;0.5413;0.0;-37.01;-9.45;-21.3;209.48;17.19;-76.38;0.0;35.95836;-83.9245;825.99;NaN;0.0;97.44282;;4 / 10;129503;2022-10-28 13:50:21:021
7.4593;-4.232;3.1896;8.0141;-4.5519;3.3504;0.6123;0.6524;-2.4479;0.3561;1.1072;0.3225;0.0;-40.41;-12.13;-19.18;183.86;27.66;-67.31;0.0;35.95836;-83.9245;825.99;NaN;0.0;97.44282;;4 / 10;130004;2022-10-28 13:50:21:522
7.06;-2.6004;2.2986;9.2222;-2.9463;1.562;-2.1005;0.2898;0.7955;0.1029;-0.0028;-0.3521;0.0;-43.67;-17.85;-16.95;196.09;18.76;-80.13;0.0;35.95836;-83.9245;825.99;NaN;0.0;97.44282;;4 / 10;130504;2022-10-28 13:50:22:022
8.9764;-3.8444;0.9535;9.3126;-2.9313;0.9239;2.9724;-0.1954;1.6031;0.4137;-1.5179;0.6325;0.0;-45.41;-25.99;-10.29;184.87;15.39;-81.42;0.0;35.95836;-83.9245;825.99;NaN;0.0;97.44282;;4 / 10;131004;2022-10-28 13:50:22:522
8.2259;-4.0047;-0.5928;8.0857;-4.4788;3.2761;0.2238;0.2271;-5.1834;0.8362;2.8462;0.4303;0.0;-52.24;-23.51;-3.62;173.08;26.62;-79.63;0.0;35.95836;-83.9245;825.99;NaN;0.0;97.44282;;4 / 10;131504;2022-10-28 13:50:23:022
7.5308;-2.4395;1.0128;9.1959;-3.1192;1.3698;-1.5106;1.2725;0.6504;-0.1022;-0.1977;-0.4129;0.0;-59.01;-27.09;-10.27;181.54;18.55;-81.53;0.0;35.95836;-83.9245;825.99;NaN;0.0;97.44282;;4 / 10;132003;2022-10-28 13:50:23:521
7.5344;-4.4151;2.8642;8.946;-3.4974;1.9768;-0.6357;-2.0454;-0.0723;-0.4285;0.3398;0.3171;0.0;-60.69;-38.85;-12.92;179.54;20.89;-77.54;0.0;35.95836;-83.9245;825.99;NaN;0.0;97.44282;;4 / 10;132504;2022-10-28 13:50:24:022
7.3786;-5.8816;4.0813;8.0413;-4.4682;3.3975;-1.9762;-1.5813;1.4792;-0.0622;-0.0276;-0.3622;0.0;-66.04;-37.11;-24.84;171.81;28.39;-61.54;0.0;35.95836;-83.9245;825.99;NaN;0.0;97.44282;;4 / 10;133004;2022-10-28 13:50:24:522
8.033;-2.4302;2.0859;9.1742;-3.4458;0.3616;-1.1298;0.5965;2.0374;-1.7706;-0.6378;-0.2685;0.0;-60.34;-41.7;-30.6;200.97;21.08;-83.25;0.0;35.95836;-83.9245;825.99;NaN;0.0;97.44282;;4 / 10;133504;2022-10-28 13:50:25:022
10.197;-2.2863;-2.9067;9.1902;-3.2672;-1.0181;0.6252;0.4688;-2.4678;-1.1701;-0.2517;0.1499;0.0;-55.69;-42.47;-42.04;220.25;19.46;-96.32;0.0;35.95836;-83.9245;825.99;NaN;0.0;97.44282;;4 / 10;134004;2022-10-28 13:50:25:522
9.5414;-3.1181;-2.8053;8.4484;-4.9763;-0.1749;1.5144;0.399;0.7484;0.9102;0.1981;0.4886;0.0;-51.88;-31.61;-39.73;217.49;30.49;-91.19;0.0;35.95836;-83.9245;825.99;NaN;0.0;97.44282;;4 / 10;134504;2022-10-28 13:50:26:022
7.9487;-2.8131;4.3753;8.6601;-3.8717;2.4866;-0.1261;0.2236;2.7434;-0.9073;-0.885;-0.7109;0.0;-44.85;-21.36;-41.98;212.39;24.16;-72.54;0.0;35.95836;-83.9245;825.99;NaN;0.0;97.44282;;4 / 10;135003;2022-10-28 13:50:26:521
9.565;-2.2857;2.5845;8.9838;-2.6841;2.8735;0.3879;0.3345;-0.2751;-0.3648;0.0049;-0.1155;0.0;-41.18;-12.94;-45.84;229.03;16.1;-72.27;0.0;35.95836;-83.9245;825.99;NaN;0.0;97.44282;;4 / 10;135504;2022-10-28 13:50:27:022
7.7533;-4.27;0.2734;8.6366;-4.359;1.6059;-1.3207;0.7277;0.0081;0.0647;-0.3864;0.3913;0.0;-40.52;1.05;-50.23;243.16;26.39;-79.47;0.0;35.95836;-83.9245;825.99;NaN;0.0;97.44282;;4 / 10;136004;2022-10-28 13:50:27:522
8.4978;-2.2908;2.9611;8.9869;-3.6964;1.3198;1.1635;0.5445;1.9275;0.2245;0.0484;-0.2983;0.0;-39.96;7.93;-50.61;257.01;22.14;-81.65;0.0;35.95836;-83.9245;825.99;NaN;0.0;97.44282;;4 / 10;136504;2022-10-28 13:50:28:022
8.4799;-1.2835;1.8894;9.1335;-2.2425;2.7786;-0.2332;0.9977;-1.59;0.5151;1.0961;-0.1555;0.0;-48.22;8.93;-44.81;261.5;13.93;-77.06;0.0;35.95836;-83.9245;825.99;NaN;0.0;97.44282;;4 / 10;137004;2022-10-28 13:50:28:522
6.8492;-3.1561;3.7008;8.9538;-3.6866;1.5518;-2.0283;0.5843;2.2007;-0.5569;-0.3273;0.3024;0.0;-47.25;10.56;-48.34;256.17;20.67;-78.65;0.0;35.958286;-83.924446;839.62;NaN;0.0;30.742676;;5 / 14;137503;2022-10-28 13:50:29:021
7.9373;-3.8091;-4.0582;8.8344;-4.147;-0.9618;-0.5112;-0.2292;-0.8335;-0.7277;-0.5931;-0.1426;0.0;-50.64;19.89;-37.52;267.91;25.02;-96.21;0.0;35.958286;-83.924446;839.62;NaN;0.0;30.742676;;5 / 14;138004;2022-10-28 13:50:29:522
9.5668;-3.4379;-0.0476;8.9328;-3.7601;-1.4959;0.7556;-0.0985;2.2106;-0.7738;-0.3304;0.2254;0.0;-51.68;22.31;-28.5;273.83;22.55;-99.51;0.0;35.958286;-83.924446;839.62;NaN;0.0;30.742676;;5 / 14;138504;2022-10-28 13:50:30:022
7.5601;-6.4911;0.3538;8.7254;-4.4646;0.323;-0.9168;-1.3945;-0.0444;-0.6129;0.9687;0.3965;0.0;-37.67;25.14;-20.98;285.85;25.75;-92.18;0.0;35.958286;-83.924446;839.62;NaN;0.0;30.742676;;5 / 14;139004;2022-10-28 13:50:30:522
8.4048;-6.2234;0.0505;8.2382;-5.3128;-0.2766;0.3303;-0.9575;0.3359;-0.0396;-0.4062;0.2588;0.0;-27.6;30.41;-19.39;298.15;32.55;-90.71;0.0;35.958286;-83.924446;839.62;NaN;0.0;30.742676;;5 / 14;139504;2022-10-28 13:50:31:022
7.8311;-7.2132;-0.5545;6.7221;-7.1343;-0.2947;1.2323;0.1861;-1.6481;-0.6812;1.2683;0.2242;0.0;-18.92;39.92;-15.79;310.07;46.68;-92.51;0.0;35.958286;-83.924446;839.62;NaN;0.0;30.742676;;5 / 14;140004;2022-10-28 13:50:31:522
8.0037;-2.2235;0.5566;9.5838;-2.0751;-0.1244;-1.6112;-0.1828;1.3748;0.3912;-0.1067;0.0705;36.2;-21.88;39.94;-11.66;340.39;12.22;-90.74;0.0;35.958286;-83.924446;839.62;NaN;0.0;30.742676;;5 / 14;140505;2022-10-28 13:50:32:023
8.8774;-1.8553;-0.2279;9.4724;-2.5254;-0.2576;-0.5402;0.37;-0.1948;-0.0682;-0.0236;0.0186;40.8;-29.23;32.83;-10.61;334.36;14.91;-91.51;0.0;35.958286;-83.924446;839.62;NaN;0.0;30.742676;;5 / 14;141004;2022-10-28 13:50:32:522
9.571;2.9536;2.2702;8.1534;3.2282;4.3898;1.5169;-0.1703;-2.3962;-1.9572;2.6907;-2.5346;36.3;-32.81;27.34;-13.41;354.53;-13.57;-73.85;2.0;35.958286;-83.924446;839.62;NaN;0.0;30.742676;;5 / 14;141504;2022-10-28 13:50:33:022
-0.5085;3.7262;7.873;0.1951;4.6834;8.6138;-0.4325;-1.1273;0.2996;0.4245;-0.2833;-1.0004;62.7;-30.19;-3.07;-34.74;63.75;-28.53;-1.3;2.0;35.958286;-83.924446;839.62;NaN;0.0;30.742676;;5 / 14;142004;2022-10-28 13:50:33:522
-0.9811;4.7112;8.496;-1.4689;3.7724;8.9321;-0.0291;0.9385;-0.3885;-0.05;0.1815;-0.0463;204.8;-20.38;-10.27;-43.35;74.71;-24.08;8.17;2.0;35.958286;-83.924446;839.62;NaN;0.0;30.742676;;5 / 14;142504;2022-10-28 13:50:34:022
-2.0563;3.7561;9.2776;-1.8057;4.0925;8.7271;-0.5407;-0.7312;-0.0375;0.4227;0.1042;-0.6918;294.8;-15.32;-19.33;-41.53;93.38;-24.67;11.69;2.0;35.958286;-83.924446;839.62;NaN;0.0;30.742676;;5 / 14;143003;2022-10-28 13:50:34:521
-4.0714;4.177;8.0097;-1.49;4.9472;8.3352;-2.6409;-0.7321;-0.235;-0.1962;-1.5126;-0.2574;392.5;-8.31;-33.07;-32.19;129.57;-31.47;14.5;2.0;35.958286;-83.924446;839.62;NaN;0.0;30.742676;;5 / 14;143504;2022-10-28 13:50:35:022
-2.0492;5.316;9.303;-0.7105;5.1477;8.3167;-1.3663;-0.3204;0.5452;0.1536;-1.06;-0.2997;407.3;-6.79;-35.81;-26.98;151.15;-31.66;4.88;2.0;35.958286;-83.924446;839.62;NaN;0.0;30.742676;;5 / 14;144004;2022-10-28 13:50:35:522
-1.1545;4.9669;8.4251;-1.3038;5.3773;8.0966;0.479;-0.7437;0.3837;0.0701;0.3176;-0.4768;276.3;-3.22;-38.7;-20.76;165.35;-32.94;7.31;2.0;35.958286;-83.924446;839.62;NaN;0.0;30.742676;;5 / 14;144504;2022-10-28 13:50:36:022
-1.4378;4.9146;8.0288;-1.2812;5.398;8.0864;-0.2071;-0.1778;-0.0984;0.1704;0.2162;0.002;276.3;2.42;-39.64;-19.41;177.5;-33.4;9.0;2.0;35.958286;-83.924446;839.62;NaN;0.0;30.742676;;5 / 14;145004;2022-10-28 13:50:36:522