sep=;
ACCELEROMETER X (m/s²);ACCELEROMETER Y (m/s²);ACCELEROMETER Z (m/s²);GRAVITY X (m/s²);GRAVITY Y (m/s²);GRAVITY Z (m/s²);LINEAR ACCELERATION X (m/s²);LINEAR ACCELERATION Y (m/s²);LINEAR ACCELERATION Z (m/s²);GYROSCOPE X (rad/s);GYROSCOPE Y (rad/s);GYROSCOPE Z (rad/s);LIGHT (lux);MAGNETIC FIELD X (μT);MAGNETIC FIELD Y (μT);MAGNETIC FIELD Z (μT);ORIENTATION Z (azimuth °);ORIENTATION X (pitch °);ORIENTATION Y (roll °);PROXIMITY (i);LOCATION Latitude : ;LOCATION Longitude : ;LOCATION Altitude ( m);LOCATION Altitude-google ( m);LOCATION Speed ( Kmh);LOCATION Accuracy ( m);LOCATION ORIENTATION (°);Satellites in range;Time since start in ms ;YYYY-MO-DD HH-MI-SS_SSS
1.1163;-2.2726;10.1255;-0.331;-1.129;9.7358;-0.7183;1.2498;1.8132;-0.7612;-1.1827;0.4096;18.6;45.06;-13.93;-2.94;251.75;5.54;5.83;5.0;35.958347;-83.92447;738.44;NaN;0.0;52.66798;;0 / 0;5;2022-11-09 17:16:32:997
-2.9013;0.2222;9.2231;-1.9549;0.2187;9.6073;-0.1466;0.4911;-0.6284;-0.0712;-0.0446;-0.281;16.7;42.17;-15.84;-15.92;248.29;-1.83;10.74;5.0;35.958347;-83.92447;738.44;NaN;0.0;52.66798;;0 / 0;506;2022-11-09 17:16:33:498
-1.8909;0.9021;11.3779;-0.8651;1.7978;9.6016;-0.3603;0.417;1.3018;-0.3846;0.2757;0.4205;16.7;46.16;-17.04;-17.04;253.28;-9.59;3.14;5.0;35.958347;-83.92447;738.44;NaN;0.0;52.66798;;0 / 0;1005;2022-11-09 17:16:33:997
-0.7657;1.3786;9.5988;-0.6979;1.1216;9.7173;-0.9434;0.1251;-0.1108;-0.2619;-0.5046;-0.2789;16.7;41.63;-22.22;-29.03;245.6;-7.31;5.92;5.0;35.958347;-83.92447;738.44;NaN;0.0;52.66798;;0 / 0;1506;2022-11-09 17:16:34:498
-0.4543;0.6194;8.9333;-1.362;0.3788;9.7042;0.5016;0.073;-1.4675;0.1172;-0.466;-0.2341;12.9;40.52;-12.62;-38.48;251.62;-1.94;8.9;5.0;35.958347;-83.92447;738.44;NaN;0.0;52.66798;;0 / 0;2006;2022-11-09 17:16:34:998
-2.3459;1.0816;9.0027;-1.258;1.3999;9.6243;-0.5314;-0.6745;-0.2483;0.0828;0.2954;0.3572;15.2;42.24;-6.71;-35.96;267.79;-7.71;7.28;5.0;35.958347;-83.92447;738.44;NaN;0.0;52.66798;;0 / 0;2506;2022-11-09 17:16:35:498
-2.2642;3.0999;10.6834;-2.1532;2.0954;9.3351;-1.0386;0.4472;2.363;0.0134;-0.604;0.2886;11.5;48.17;-3.82;-24.82;275.4;-12.03;15.3;5.0;35.958347;-83.92447;738.44;NaN;0.0;52.66798;;0 / 0;3006;2022-11-09 17:16:35:998
-0.5764;1.4671;10.736;-0.0586;0.7495;9.7778;-0.5276;0.9792;0.3297;-0.759;0.3696;-0.1284;11.5;65.46;35.93;-23.49;300.19;-5.24;-0.41;5.0;35.958347;-83.92447;738.44;NaN;0.0;52.66798;;0 / 0;3505;2022-11-09 17:16:36:497
-1.29;1.2658;8.275;-0.6719;1.2332;9.7056;-0.6348;0.0207;-1.2235;0.2149;-0.1105;0.0463;17.2;73.78;46.37;-19.56;303.96;-7.22;3.96;5.0;35.958347;-83.92447;738.44;NaN;0.0;52.66798;;0 / 0;4006;2022-11-09 17:16:36:998
1.547;-0.35;10.0872;0.4939;-0.4118;9.7855;1.0847;0.0088;0.2536;-0.4749;-0.2467;-0.3916;15.1;73.09;62.01;-26.59;309.69;1.4;-2.18;5.0;35.958347;-83.92447;738.44;NaN;0.0;52.66798;;0 / 0;4506;2022-11-09 17:16:37:498
3.1654;1.0002;8.7682;3.8399;0.1683;9.022;-1.1068;2.1321;0.0346;0.1657;-1.0647;-0.1473;22.0;52.24;70.07;-39.53;317.89;-0.98;-23.06;5.0;35.958347;-83.92447;738.44;NaN;0.0;52.66798;;0 / 0;5005;2022-11-09 17:16:37:997
9.0407;-9.1388;0.3553;8.4211;-4.516;2.2049;0.9867;-4.3571;-1.6537;-1.0755;-2.8545;2.1013;22.0;8.42;53.91;-51.3;311.57;27.42;-75.33;5.0;35.958347;-83.92447;738.44;NaN;0.0;52.66798;;0 / 0;5506;2022-11-09 17:16:38:498
5.4924;-6.2372;-1.5769;5.3229;-8.0849;-1.572;0.3286;1.9953;0.1907;-0.3858;0.5278;0.2718;9.8;15.0;70.33;-50.23;324.87;55.34;-105.57;5.0;35.958347;-83.92447;738.44;NaN;0.0;52.66798;;0 / 0;6006;2022-11-09 17:16:38:998
4.8437;-6.2157;-0.5521;5.997;-7.7585;0.1088;-1.3076;1.5051;-0.358;0.5302;-0.3225;-1.3086;9.8;-5.94;3.98;-48.36;266.43;52.29;-88.96;5.0;35.958347;-83.92447;738.44;NaN;0.0;52.66798;;0 / 0;6506;2022-11-09 17:16:39:498
6.6559;-6.2109;0.906;6.3434;-7.4723;-0.31;0.1978;1.2991;1.139;-1.4425;2.4503;-0.1693;13.1;3.28;5.81;-38.62;282.12;50.18;-94.15;5.0;35.958347;-83.92447;738.44;NaN;0.0;52.66798;;0 / 0;7006;2022-11-09 17:16:39:998
9.1986;-7.9083;-0.5186;3.4987;-9.1613;0.0065;5.6309;1.1373;-0.1609;0.8953;-0.1887;1.2399;17.5;24.43;13.54;0.56;2.0;69.1;-89.89;5.0;35.958347;-83.92447;738.44;NaN;0.0;52.66798;;0 / 0;7506;2022-11-09 17:16:40:498
4.6857;-6.3544;0.0057;8.1434;-5.464;0.0174;-3.2918;-0.9325;0.0048;-0.3041;0.2139;-0.9108;9.3;3.75;17.48;-21.64;306.28;35.35;-89.89;5.0;35.958347;-83.92447;738.44;NaN;0.0;52.66798;;0 / 0;8005;2022-11-09 17:16:40:997
6.0383;-4.8006;-1.4976;6.3714;-7.4495;0.2832;-0.6087;2.4925;-1.8937;-1.1316;1.1644;0.3188;14.2;-16.86;17.33;-7.07;251.55;49.43;-87.45;5.0;35.958347;-83.92447;738.44;NaN;0.0;52.66798;;0 / 0;8505;2022-11-09 17:16:41:497
2.2319;-9.7851;-1.8903;5.7295;-7.895;1.0056;-2.8232;-2.1187;-2.7958;-1.6369;2.6146;-0.9866;7.0;-25.24;14.83;1.44;155.75;54.95;-80.42;5.0;35.958347;-83.92447;738.44;NaN;0.0;52.66798;;0 / 0;9005;2022-11-09 17:16:41:997
8.3557;-10.5081;-2.3118;3.342;-9.2055;-0.5096;5.0098;-1.7375;-1.8852;0.3183;0.1204;-0.0208;8.3;-24.13;15.75;-1.57;201.22;69.79;-100.45;5.0;35.958347;-83.92447;738.44;NaN;0.0;52.66798;;0 / 0;9505;2022-11-09 17:16:42:497
4.9418;-7.0247;-0.5593;7.182;-6.6755;-0.1679;-2.48;-0.2728;-0.6848;-0.2854;0.3648;0.6071;7.7;-42.07;2.36;4.74;172.15;42.2;-91.78;5.0;35.958347;-83.92447;738.44;NaN;0.0;52.66798;;0 / 0;10006;2022-11-09 17:16:42:998
4.9801;-6.7184;0.4367;6.6564;-7.2015;0.0252;-1.7104;0.9309;0.4116;0.0405;-0.2375;-0.6561;9.2;-35.06;8.94;6.3;163.02;48.46;-89.72;5.0;35.958347;-83.92447;738.44;NaN;0.0;52.66798;;0 / 0;10506;2022-11-09 17:16:43:498
6.0072;-6.1582;-0.3293;6.4784;-7.3603;-0.1625;-0.2726;1.1603;0.0318;0.3819;-0.422;0.2211;6.5;-30.06;14.72;9.64;144.13;48.64;-91.44;5.0;35.958347;-83.92447;738.44;NaN;0.0;52.66798;;0 / 0;11006;2022-11-09 17:16:43:998
6.2037;-7.3768;0.9036;6.1314;-7.6438;-0.3843;0.2352;0.0231;1.1418;0.0162;-0.4788;-0.8644;6.9;-24.07;25.73;9.47;110.66;51.21;-93.59;5.0;35.958347;-83.92447;738.44;NaN;0.0;52.66798;;0 / 0;11506;2022-11-09 17:16:44:498
7.8844;-9.6392;-1.9932;7.5605;-6.2443;-0.1373;0.5669;-3.4868;-1.7728;-0.1633;-0.2204;0.7445;6.8;-31.93;25.58;8.63;92.91;39.55;-91.04;5.0;35.958347;-83.92447;738.44;NaN;0.0;52.66798;;0 / 0;12005;2022-11-09 17:16:44:997
7.9992;-8.0231;-1.1363;6.0825;-7.6873;-0.2809;1.9313;-0.3979;-0.8372;-0.6362;0.6561;0.1636;8.3;-24.6;28.84;19.33;97.22;51.62;-92.64;5.0;35.958347;-83.92447;738.44;NaN;0.0;52.66798;;0 / 0;12505;2022-11-09 17:16:45:497
5.2292;-7.791;0.7528;7.1799;-6.672;0.3214;-2.1452;-0.7407;0.3222;-0.0318;-0.1642;-0.5242;7.0;-22.33;39.58;33.09;65.65;42.87;-87.44;5.0;35.958347;-83.92447;738.44;NaN;0.0;52.66798;;0 / 0;13006;2022-11-09 17:16:45:998
4.3863;-5.3752;0.1229;6.6249;-7.23;-0.09;-2.2002;1.7788;0.2145;-0.1371;0.1992;0.4067;5.7;-16.2;47.34;41.81;64.94;47.5;-90.78;5.0;35.958347;-83.92447;738.44;NaN;0.0;52.66798;;0 / 0;13506;2022-11-09 17:16:46:498
5.6483;-6.5243;0.6042;6.2259;-7.5759;-0.1176;-0.6182;1.2088;0.5795;1.0318;-1.4025;-0.4881;9.7;-1.61;58.82;54.73;57.82;51.36;-90.92;5.0;35.958347;-83.92447;738.44;NaN;0.0;52.66798;;0 / 0;14006;2022-11-09 17:16:46:998
7.0415;-7.36;0.0966;6.7431;-7.1051;-0.4668;0.2104;-0.4498;0.6983;-0.6082;0.9658;0.7336;9.8;3.75;59.63;27.66;33.36;46.43;-93.96;5.0;35.958347;-83.92447;738.44;NaN;0.0;52.66798;;0 / 0;14505;2022-11-09 17:16:47:497
7.8772;-7.7336;-1.366;6.1311;-7.6132;-0.7871;1.8452;-0.2239;-0.6021;0.0916;0.6549;0.7305;10.4;3.04;42.84;30.0;48.46;49.74;-98.48;5.0;35.958347;-83.92447;738.44;NaN;0.0;52.66798;;0 / 0;15006;2022-11-09 17:16:47:998
4.439;-5.5478;-0.1738;7.4761;-6.3446;-0.1567;-2.9832;0.8153;0.054;0.2772;-0.108;-0.0966;9.3;-24.73;23.03;24.28;87.85;40.49;-91.41;5.0;35.958347;-83.92447;738.44;NaN;0.0;52.66798;;0 / 0;15506;2022-11-09 17:16:48:498
5.6291;-6.3855;-2.173;5.9916;-7.7605;-0.2142;-0.1777;1.2199;-1.9198;-0.6636;0.9719;-0.6121;17.9;-31.28;14.04;36.15;117.09;53.0;-92.69;5.0;35.958347;-83.92447;738.44;NaN;0.0;52.66798;;0 / 0;16005;2022-11-09 17:16:48:997
7.9992;-7.1518;-0.7316;4.9639;-8.4567;-0.1219;3.5696;1.6253;-0.3424;-0.4169;1.248;-0.9261;14.5;-49.52;3.47;35.27;142.92;60.91;-92.42;5.0;35.958347;-83.92447;738.44;NaN;0.0;52.66798;;0 / 0;16506;2022-11-09 17:16:49:498
7.1898;-8.6551;-0.7555;7.5587;-6.2476;-0.0563;-0.3297;-2.3886;-0.5928;-0.4749;0.2462;0.3053;9.1;-55.05;-17.01;24.9;153.0;39.57;-90.43;5.0;35.958347;-83.92447;738.44;NaN;0.0;52.66798;;0 / 0;17006;2022-11-09 17:16:49:998
7.0606;-6.1989;0.0105;5.8199;-7.8886;-0.2627;0.824;1.5837;0.2943;0.281;-0.4251;1.0414;14.2;-62.93;-14.08;5.78;176.95;53.55;-92.58;5.0;35.958347;-83.92447;738.44;NaN;0.0;52.66798;;0 / 0;17506;2022-11-09 17:16:50:498
4.4007;-7.5299;0.3721;6.0264;-7.7359;0.0932;-1.5295;0.0737;0.2332;-0.5328;0.4778;-0.1241;9.8;-73.03;-11.02;-5.38;183.44;52.08;-89.11;5.0;35.958347;-83.92447;738.44;NaN;0.0;52.66798;;0 / 0;18006;2022-11-09 17:16:50:998
5.61;-6.9123;-1.6845;5.8642;-7.8592;-0.1191;-0.5905;1.0964;-2.0841;-0.2312;-0.0146;-0.1577;12.1;-72.04;-7.97;5.76;175.85;53.27;-91.16;5.0;35.958347;-83.92447;738.44;NaN;0.0;52.66798;;0 / 0;18505;2022-11-09 17:16:51:497
4.7695;-8.9163;0.1181;5.6912;-7.9863;6.0E-4;-0.2158;-1.1427;0.2259;-0.3689;0.3354;-1.0838;6.9;-55.05;6.73;13.82;161.02;54.53;-89.99;5.0;35.958347;-83.92447;738.44;NaN;0.0;52.66798;;0 / 0;19006;2022-11-09 17:16:51:998
5.0234;-7.6902;0.5372;6.6606;-7.1711;-0.6188;1.1532;-3.7581;-1.2266;-2.3902;1.3922;0.1777;8.4;-44.66;13.61;0.43;190.17;46.99;-95.31;5.0;35.958347;-83.92447;738.44;NaN;0.0;52.66798;;0 / 0;19506;2022-11-09 17:16:52:498
9.0359;-8.9498;0.2788;5.6687;-7.8775;-1.4076;3.0906;-0.3947;1.859;0.0174;0.2676;-0.0783;8.4;-34.69;29.01;-0.94;224.78;53.63;-104.61;0.0;35.958347;-83.92447;738.44;NaN;0.0;52.66798;;0 / 0;20005;2022-11-09 17:16:52:997
7.2571;-9.4143;-0.2264;8.0483;-5.6015;-0.1355;-1.2846;-3.2407;0.0992;0.4691;-0.5369;0.3573;9.9;-63.56;-1.95;-10.59;197.59;34.83;-90.96;0.0;35.958347;-83.92447;738.44;NaN;0.0;52.66798;;0 / 0;20505;2022-11-09 17:16:53:497
5.2388;-5.6865;-0.4011;6.7097;-7.1069;-0.8022;-1.3019;1.1677;0.4239;-0.3789;0.2163;0.2009;8.7;-61.59;9.99;-3.04;195.43;46.44;-96.82;0.0;35.958347;-83.92447;738.44;NaN;0.0;52.66798;;0 / 0;21005;2022-11-09 17:16:53:997
4.4509;-5.7535;0.2572;6.8335;-7.0337;0.0122;-2.2942;1.5221;0.1876;0.2455;0.2218;-0.4863;11.3;-74.18;59.19;-4.71;202.13;45.83;-89.9;0.0;35.958347;-83.92447;738.44;NaN;0.0;52.66798;;0 / 0;21506;2022-11-09 17:16:54:498
6.2157;-6.5964;-0.8058;6.1215;-7.6327;-0.6624;0.2271;1.0434;-0.1744;-0.3465;-0.6114;-0.0166;9.8;-68.33;63.68;-4.91;223.07;50.95;-95.2;0.0;35.958347;-83.92447;738.44;NaN;0.0;52.66798;;0 / 0;22006;2022-11-09 17:16:54:998
6.7735;-7.5132;-0.3939;6.151;-7.6216;-0.497;0.6632;0.1066;0.0816;0.2317;-0.5998;-0.7142;8.2;-62.53;66.26;-5.57;231.71;51.94;-94.28;0.0;35.958347;-83.92447;738.44;NaN;0.0;52.66798;;0 / 0;22506;2022-11-09 17:16:55:498
9.3446;-10.386;-0.545;6.083;-7.6918;-0.0703;2.8075;-3.0799;-0.1987;0.2666;-0.5839;1.3181;9.1;-49.95;63.3;-7.24;292.26;49.47;-90.26;0.0;35.958347;-83.92447;738.44;NaN;0.0;52.66798;;0 / 0;23005;2022-11-09 17:16:55:997
4.8508;-6.1774;-0.9422;7.0989;-6.7523;-0.428;-2.2176;0.4592;-0.5367;-0.1315;0.264;0.3457;9.1;-37.73;73.52;-22.67;318.9;43.12;-93.67;0.0;35.958347;-83.92447;738.44;NaN;0.0;52.66798;;0 / 0;23506;2022-11-09 17:16:56:498
5.653;-6.7161;-0.7292;5.7094;-7.9657;-0.3474;0.3265;0.9776;-0.041;0.4442;-0.1557;-0.4185;10.7;-16.43;67.61;-23.83;318.19;54.32;-93.48;0.0;35.958347;-83.92447;738.44;NaN;0.0;52.66798;;0 / 0;24005;2022-11-09 17:16:56:997
6.6727;-7.0247;0.6233;6.298;-7.5126;-0.2586;-0.1254;0.5588;1.1528;-0.8992;1.7465;0.6273;13.1;-5.76;55.52;-29.17;318.68;49.13;-93.14;0.0;35.958347;-83.92447;738.44;NaN;0.0;52.66798;;0 / 0;24505;2022-11-09 17:16:57:497
9.9359;-9.5626;-2.0124;4.8197;-8.5406;-0.0143;5.2284;-0.8162;-1.9194;-0.4729;0.917;-0.3226;13.1;-11.23;39.58;-22.12;293.47;61.35;-90.11;0.0;35.958347;-83.92447;738.44;NaN;0.0;52.66798;;0 / 0;25006;2022-11-09 17:16:57:998
4.9896;-6.7137;-0.0948;7.7311;-6.0332;-0.006;-2.3773;-0.6215;-0.4582;-0.8661;0.9799;-0.3617;9.0;-44.06;18.32;-2.57;193.26;37.97;-90.04;0.0;35.958347;-83.92447;738.44;NaN;0.0;52.66798;;0 / 0;25505;2022-11-09 17:16:58:497
4.7504;-6.3784;-0.0039;6.6008;-7.2413;-0.4047;-1.861;0.8792;0.0921;-0.8705;0.7985;-0.3476;12.7;-45.37;19.09;-1.57;192.47;48.18;-93.29;0.0;35.958347;-83.92447;738.44;NaN;0.0;52.66798;;0 / 0;26006;2022-11-09 17:16:58:998
4.4031;-8.5499;-0.8058;5.6321;-8.0271;0.1233;-1.287;-0.6095;-1.1633;-1.4356;2.6384;-0.3147;7.0;-47.61;26.66;-7.91;196.2;54.94;-88.75;0.0;35.958347;-83.92447;738.44;NaN;0.0;52.66798;;0 / 0;26505;2022-11-09 17:16:59:497
10.3956;-12.1768;-3.0634;4.5998;-8.632;-0.7076;5.7118;-2.8597;-1.124;-0.3315;0.3947;-0.3422;5.7;-47.16;32.7;-0.11;195.82;61.67;-98.75;0.0;35.958347;-83.92447;738.44;NaN;0.0;52.66798;;0 / 0;27006;2022-11-09 17:16:59:998
6.8022;-7.3528;-1.6654;6.3217;-7.4776;-0.5404;0.8671;-0.1542;-0.7899;-0.0374;-0.2748;0.3689;5.7;-45.75;37.13;-0.43;199.59;49.69;-94.89;0.0;35.958347;-83.92447;738.44;NaN;0.0;52.66798;;0 / 0;27506;2022-11-09 17:17:00:498
6.0981;-8.1763;0.099;7.6635;-6.1168;-0.1599;-1.6493;-1.3156;0.1532;-0.0019;0.0807;-0.6427;5.7;-61.63;34.26;9.64;147.88;39.73;-91.34;0.0;35.958347;-83.92447;738.44;NaN;0.0;52.66798;;0 / 0;28005;2022-11-09 17:17:00:997
5.5908;-4.9493;-0.6598;5.5783;-8.026;-0.7971;0.039;2.9078;0.1865;-0.0904;-0.2528;0.9443;4.9;-63.86;41.01;30.77;145.84;54.93;-98.13;0.0;35.958347;-83.92447;738.44;NaN;0.0;52.66798;;0 / 0;28505;2022-11-09 17:17:01:497
5.9617;-6.0338;0.4152;6.9701;-6.8787;-0.5216;-0.9086;0.7923;0.945;0.4405;-0.2039;-1.2145;7.7;-50.27;54.98;27.26;89.65;46.47;-94.74;0.0;35.958347;-83.92447;738.44;NaN;0.0;52.66798;;0 / 0;29005;2022-11-09 17:17:01:997
8.1787;-7.051;-0.7053;6.9347;-6.9283;-0.2808;1.2211;-0.0281;-0.3857;-0.6405;0.9652;0.9858;6.5;-54.54;48.39;17.72;100.34;42.87;-92.77;0.0;35.958347;-83.92447;738.44;NaN;0.0;52.66798;;0 / 0;29506;2022-11-09 17:17:02:498
7.1731;-7.1061;-0.0589;4.972;-8.4355;-0.5407;2.5196;1.2055;0.5967;0.7327;-0.3047;-0.9237;4.5;-47.98;48.08;21.43;139.73;59.34;-96.21;0.0;35.958347;-83.92447;738.44;NaN;0.0;52.66798;;0 / 0;30006;2022-11-09 17:17:02:998
7.2811;-10.0391;-0.3293;8.1434;-5.461;-0.1825;-0.9341;-4.818;-0.1769;-0.286;-0.5295;1.1422;5.7;-56.79;43.91;10.07;52.95;31.69;-90.08;0.0;35.958347;-83.92447;738.44;NaN;0.0;52.66798;;0 / 0;30506;2022-11-09 17:17:03:498
8.8705;-7.8006;-0.2551;4.6218;-8.5663;-1.195;4.2531;0.731;0.8643;0.0243;0.1907;0.3628;6.1;-51.04;49.61;13.28;180.48;60.87;-104.5;0.0;35.958347;-83.92447;738.44;NaN;0.0;52.66798;;0 / 0;31006;2022-11-09 17:17:03:998
6.431;-9.067;0.4319;8.3779;-5.0855;-0.344;-2.0568;-3.6266;0.5336;0.1016;-0.2174;-1.0838;7.6;-35.38;20.31;34.84;93.04;31.24;-92.35;0.0;35.958347;-83.92447;738.44;NaN;0.0;52.66798;;0 / 0;31506;2022-11-09 17:17:04:498
5.167;-5.1861;-0.4274;6.2074;-7.5609;-0.6875;-1.0319;2.3023;0.2088;-0.744;0.7807;1.0231;5.7;-36.81;29.59;41.27;106.85;48.93;-95.88;0.0;35.958347;-83.92447;738.44;NaN;0.0;52.66798;;0 / 0;32005;2022-11-09 17:17:04:997
5.2053;-5.9641;0.1086;6.6973;-7.1602;-0.2197;-1.4084;1.143;0.3402;0.2349;-0.3371;-1.0759;6.9;-41.46;33.43;45.24;103.08;48.77;-91.82;0.0;35.958347;-83.92447;738.44;NaN;0.0;52.66798;;0 / 0;32505;2022-11-09 17:17:05:497
6.4143;-6.4238;-0.8034;6.6171;-7.2188;-0.5232;0.3726;0.3847;0.0588;-0.3377;0.898;0.2143;6.9;-30.41;37.67;52.28;89.2;47.4;-94.52;0.0;35.958347;-83.92447;738.44;NaN;0.0;52.66798;;0 / 0;33006;2022-11-09 17:17:05:998
6.1869;-8.6958;-0.4131;5.6833;-7.9903;-0.1586;0.5958;-0.8064;-0.272;-0.7029;1.9909;-0.5401;9.8;-32.19;41.42;52.56;96.45;55.37;-93.65;0.0;35.958347;-83.92447;738.44;NaN;0.0;52.66798;;0 / 0;33506;2022-11-09 17:17:06:498
6.7137;-7.0463;0.5348;5.1174;-8.3501;-0.5081;1.8404;1.2266;0.9738;-0.1259;0.1699;1.0518;13.5;-28.13;43.43;46.95;94.39;56.67;-95.45;0.0;35.958347;-83.92447;738.44;NaN;0.0;52.66798;;0 / 0;34006;2022-11-09 17:17:06:998
5.4159;-6.242;-1.0382;6.1919;-7.5955;-0.3732;-0.5396;1.1403;-0.8235;-0.316;0.3153;0.0543;9.0;-19.39;38.72;21.06;65.57;50.76;-93.45;0.0;35.958347;-83.92447;738.44;NaN;0.0;52.66798;;0 / 0;34506;2022-11-09 17:17:07:498
4.5661;-6.5387;-0.6742;7.1492;-6.7123;-0.0689;-2.4908;0.0839;-0.5882;0.4317;-0.7525;-0.5175;9.0;-56.42;10.37;-9.56;197.94;44.12;-90.29;0.0;35.958347;-83.92447;738.44;NaN;0.0;52.66798;;0 / 0;35005;2022-11-09 17:17:07:997
6.4358;-7.6687;-1.1028;5.5658;-8.0652;-0.3802;0.9347;0.3765;-0.6534;-0.0405;1.3849;-0.1742;17.6;-59.25;9.24;-13.89;205.14;55.32;-95.63;0.0;35.958347;-83.92447;738.44;NaN;0.0;52.66798;;0 / 0;35505;2022-11-09 17:17:08:497
10.4937;-11.3533;0.2237;4.0498;-8.9251;-0.3361;6.7056;-1.3031;0.0922;-0.7371;1.5834;-0.873;9.2;-61.63;14.96;-25.76;212.86;65.52;-94.74;0.0;35.958347;-83.92447;738.44;NaN;0.0;52.66798;;0 / 0;36006;2022-11-09 17:17:08:998
4.5996;-10.7166;1.0759;9.1534;-3.5157;0.1613;-4.4021;-7.3905;0.6612;-0.9134;2.1845;-0.5346;6.5;-54.97;-17.49;-29.08;218.08;21.01;-88.99;0.0;35.958347;-83.92447;738.44;NaN;0.0;52.66798;;0 / 0;36505;2022-11-09 17:17:09:497
9.8091;-9.5363;2.1365;3.4966;-8.8487;-2.376;6.3527;-0.7106;4.5275;-0.9496;0.6781;2.7054;11.1;-56.08;17.53;-69.99;266.46;61.42;-118.37;0.0;35.958347;-83.92447;738.44;NaN;0.0;52.66798;;0 / 0;37005;2022-11-09 17:17:09:997
4.8652;-8.9378;-0.1738;8.4351;-4.997;0.2211;-3.3004;-3.7615;-0.5588;-0.6991;1.5162;-1.9488;11.3;-43.27;10.99;-38.36;250.65;30.63;-88.5;0.0;35.958347;-83.92447;738.44;NaN;0.0;52.66798;;0 / 0;37505;2022-11-09 17:17:10:497
5.4613;-5.9115;-0.8656;6.7648;-7.0793;-0.5402;-1.3209;0.9748;-0.3333;-0.5857;0.6427;1.3181;7.7;-47.32;17.53;-34.69;245.26;44.04;-94.44;0.0;35.958347;-83.92447;738.44;NaN;0.0;52.66798;;0 / 0;38006;2022-11-09 17:17:10:998
5.7535;-6.8596;0.9706;6.1703;-7.6222;-0.0182;-0.5242;0.7915;1.0222;0.7913;-1.1252;-1.1999;9.1;-40.56;27.62;-35.48;245.69;53.11;-90.2;0.0;35.958347;-83.92447;738.44;NaN;0.0;52.66798;;0 / 0;38505;2022-11-09 17:17:11:497
4.8604;-7.2595;0.8438;6.8041;-7.0492;-0.4279;-1.9527;-0.0103;1.3112;-0.3296;0.6635;1.2314;6.2;-45.79;17.46;-40.03;247.44;43.94;-93.71;0.0;35.958347;-83.92447;738.44;NaN;0.0;52.66798;;0 / 0;39007;2022-11-09 17:17:11:999
9.553;-10.3023;-0.2623;5.0112;-8.3987;-0.7218;3.7835;-0.3332;0.5233;-0.0031;0.4949;-0.5957;10.5;-48.94;20.31;-44.01;242.92;58.92;-98.2;0.0;35.958347;-83.92447;738.44;NaN;0.0;52.66798;;0 / 0;39505;2022-11-09 17:17:12:497
5.5932;-10.9558;0.1062;7.5592;-6.2432;-0.2273;-1.7359;-5.1744;0.4206;-0.3284;0.5034;0.466;13.6;-39.17;17.89;-40.59;257.57;38.62;-92.07;0.0;35.958347;-83.92447;738.44;NaN;0.0;52.66798;;0 / 0;40005;2022-11-09 17:17:12:997
8.9593;-7.9442;-0.2671;4.2013;-8.8386;-0.632;4.7308;0.9342;0.1971;-0.4169;-0.1911;0.2675;9.7;-28.61;34.33;-37.28;261.44;64.33;-98.55;0.0;35.958347;-83.92447;738.44;NaN;0.0;52.66798;;0 / 0;40505;2022-11-09 17:17:13:497
5.6794;-8.8875;0.6449;7.6286;-6.1504;-0.3839;-1.6526;-2.9966;1.0221;-0.2649;0.11;-0.4509;9.7;-38.08;8.79;-29.06;242.01;39.56;-92.73;0.0;35.958347;-83.92447;738.44;NaN;0.0;52.66798;;0 / 0;41006;2022-11-09 17:17:13:998
5.1622;-5.9234;-0.856;5.596;-8.041;-0.4443;-0.416;2.0629;-0.3174;0.3962;-0.3951;1.1385;15.8;-38.89;19.33;-31.65;241.59;55.08;-94.54;0.0;35.958347;-83.92447;738.44;NaN;0.0;52.66798;;0 / 0;41506;2022-11-09 17:17:14:498
5.3441;-5.9833;-0.2384;6.9114;-6.9565;0.1016;-1.4682;0.9874;-0.302;0.294;-0.59;-0.515;11.5;-27.53;33.17;-22.18;276.66;45.95;-88.83;0.0;35.958347;-83.92447;738.44;NaN;0.0;52.66798;;0 / 0;42006;2022-11-09 17:17:14:998
5.854;-7.1997;0.894;4.8678;-8.5089;-0.2708;1.4514;0.8613;2.1665;-0.0181;1.303;0.3096;24.9;-21.26;42.88;-32.34;278.12;60.19;-93.18;0.0;35.958347;-83.92447;738.44;NaN;0.0;52.66798;;0 / 0;42506;2022-11-09 17:17:15:498
5.7751;-7.3457;0.4199;4.465;-8.7087;-0.6267;1.3279;1.2039;0.9867;-0.9864;2.2444;0.9205;15.8;-16.01;49.22;-21.24;298.09;61.27;-98.26;0.0;35.958347;-83.92447;738.44;NaN;0.0;52.66798;;0 / 0;43005;2022-11-09 17:17:15:997
5.3465;-8.0495;-0.0278;6.3338;-7.4827;-0.2505;-0.9289;-0.7878;0.2634;-0.4268;-0.4416;-1.0031;10.2;-14.96;33.39;-46.72;283.38;49.73;-92.26;0.0;35.958347;-83.92447;738.44;NaN;0.0;52.66798;;0 / 0;43505;2022-11-09 17:17:16:497
5.6937;-6.2994;-0.5306;6.4601;-7.3774;-0.1064;-0.6849;0.8828;-0.5489;-0.825;1.3879;0.5662;13.1;-18.58;32.81;-37.11;283.24;47.87;-91.63;0.0;35.958347;-83.92447;738.44;NaN;0.0;52.66798;;0 / 0;44006;2022-11-09 17:17:16:998
4.3983;-7.7432;-0.5928;3.9984;-8.9285;-0.6824;0.4584;1.0395;0.0562;-0.4126;1.1344;0.2809;9.0;-15.92;41.89;-16.03;287.35;65.25;-99.96;0.0;35.958347;-83.92447;738.44;NaN;0.0;52.66798;;0 / 0;44505;2022-11-09 17:17:17:497
4.4222;-7.791;-2.8098;4.1945;-8.8325;-0.7504;0.5625;0.9669;-1.0769;0.9589;0.5902;-0.6073;7.4;-11.87;45.94;-11.55;308.94;64.25;-100.14;0.0;35.958347;-83.92447;738.44;NaN;0.0;52.66798;;0 / 0;45006;2022-11-09 17:17:17:998
7.3792;-8.0112;0.1878;5.219;-8.2763;-0.6589;2.332;0.1409;0.8091;0.9564;-0.32;-1.1406;8.8;-25.29;52.56;-28.67;287.98;58.97;-100.35;0.0;35.958347;-83.92447;738.44;NaN;0.0;52.66798;;0 / 0;45505;2022-11-09 17:17:18:497
5.7009;-9.5411;0.9849;7.1567;-6.7006;-0.2314;-1.3745;-2.7668;1.3341;-1.1447;-0.7073;1.4996;6.2;-61.52;45.09;-29.44;256.89;40.52;-88.82;0.0;35.958347;-83.92447;738.44;NaN;0.0;52.66798;;0 / 0;46006;2022-11-09 17:17:18:998
8.5786;-9.4143;-0.1738;3.9888;-8.8544;-1.3637;4.6965;-0.512;1.519;0.7907;0.2304;-1.1485;6.9;-49.09;57.38;-32.81;262.19;65.96;-112.31;0.0;35.958347;-83.92447;738.44;NaN;0.0;52.66798;;0 / 0;46506;2022-11-09 17:17:19:498
5.0378;-9.1412;-1.1578;8.6068;-4.7003;-0.0024;-4.155;-4.5822;-1.2578;-0.2287;0.3452;1.0555;8.3;-71.96;34.03;-16.95;259.6;27.67;-90.54;0.0;35.958347;-83.92447;738.44;NaN;0.0;52.66798;;0 / 0;47006;2022-11-09 17:17:19:998
8.6216;-8.2074;-0.2767;4.2695;-8.7753;-0.9676;3.8031;0.7072;0.4359;-0.2991;-0.1655;0.8411;6.2;-65.61;58.88;-16.35;226.22;62.25;-101.03;0.0;35.958347;-83.92447;738.44;NaN;0.0;52.66798;;0 / 0;47505;2022-11-09 17:17:20:497
4.3768;-8.6934;0.087;8.4618;-4.9329;-0.4845;-4.14;-3.5643;0.6711;0.5389;0.2004;-0.8553;8.8;-70.24;59.38;6.23;1.25;32.06;-94.67;0.0;35.958347;-83.92447;738.44;NaN;0.0;52.66798;;0 / 0;48005;2022-11-09 17:17:20:997
6.2157;-5.4302;-0.667;4.4335;-8.7217;-0.6674;1.6328;2.7482;-0.2677;-0.8686;0.9469;0.9339;7.1;-49.71;70.01;8.03;170.93;61.52;-97.08;0.0;35.958347;-83.92447;738.44;NaN;0.0;52.66798;;0 / 0;48505;2022-11-09 17:17:21:497
5.0617;-7.0391;0.6808;7.2508;-6.5981;-0.2477;-2.2048;-0.4693;0.9009;0.6835;-0.4263;-1.4662;7.1;-51.97;58.97;2.91;8.68;44.85;-92.45;0.0;35.958347;-83.92447;738.44;NaN;0.0;52.66798;;0 / 0;49006;2022-11-09 17:17:21:998
8.2217;-7.36;-1.2751;6.1949;-7.5925;-0.3844;2.0656;0.1947;-0.8883;-0.3309;0.5028;1.6737;6.1;-51.86;53.81;-3.51;256.06;47.66;-93.6;0.0;35.958347;-83.92447;738.44;NaN;0.0;52.66798;;0 / 0;49506;2022-11-09 17:17:22:498
6.352;-7.451;-1.3397;5.1392;-8.336;-0.5198;1.2724;1.0495;-0.8893;6.0E-4;0.0685;-0.1736;7.0;-43.12;55.88;-6.19;238.31;58.22;-95.78;0.0;35.958347;-83.92447;738.44;NaN;0.0;52.66798;;0 / 0;50005;2022-11-09 17:17:22:997
5.7392;-6.9625;0.0129;7.9658;-5.6754;0.711;-2.1441;-1.3419;-0.6936;-0.0699;-0.1954;-0.8449;6.9;-51.11;51.45;-13.69;320.64;35.36;-84.9;0.0;35.958347;-83.92447;738.44;NaN;0.0;52.66798;;0 / 0;50505;2022-11-09 17:17:23:497
6.5626;-8.071;1.5165;5.4661;-8.0476;-1.2361;1.7298;-0.5844;2.245;-2.6712;2.5394;0.276;8.4;-38.68;54.64;-6.82;275.48;55.15;-102.74;0.0;35.958347;-83.92447;738.44;NaN;0.0;52.66798;;0 / 0;51006;2022-11-09 17:17:23:998
9.0024;-10.6184;1.8541;4.6666;-8.6228;-0.2004;4.0118;-1.7514;2.1021;-1.1789;-0.9902;0.3151;7.7;-41.42;50.78;-8.08;220.48;61.56;-92.46;0.0;35.958347;-83.92447;738.44;NaN;0.0;52.66798;;0 / 0;51506;2022-11-09 17:17:24:498
6.1702;-9.6679;-0.1834;7.4642;-6.3506;-0.3546;-0.7067;-3.0858;1.3311;0.5445;0.4436;-0.5303;6.9;-45.24;32.7;-11.17;254.56;40.36;-92.72;0.0;35.958347;-83.92447;738.44;NaN;0.0;52.66798;;0 / 0;52006;2022-11-09 17:17:24:998
5.6937;-5.6028;0.1926;5.6859;-7.8986;-1.2052;0.0658;2.3164;1.4424;-0.5023;1.1485;0.2889;12.9;-30.86;30.84;-18.84;263.43;53.65;-101.97;0.0;35.958347;-83.92447;738.44;NaN;0.0;52.66798;;0 / 0;52506;2022-11-09 17:17:25:498
6.2611;-7.4103;-0.4947;6.6533;-7.1927;0.4124;-0.2443;-0.1613;-0.8503;0.1401;0.4301;-1.4821;8.4;-37.5;26.89;-34.99;252.46;47.18;-86.45;0.0;35.958347;-83.92447;738.44;NaN;0.0;52.66798;;0 / 0;53006;2022-11-09 17:17:25:998
6.9529;-8.5977;0.3266;7.2461;-6.6041;-0.2259;0.3205;-2.1069;0.7802;-2.4251;0.4093;1.9364;14.7;-55.56;15.54;-41.49;240.26;38.95;-89.34;0.0;35.958347;-83.92447;738.44;NaN;0.0;52.66798;;0 / 0;53506;2022-11-09 17:17:26:498
7.3959;-7.6137;-1.1387;3.6661;-9.0952;0.0829;3.5966;1.3985;-1.12;0.1196;-0.218;0.0305;7.2;-32.68;45.96;-39.73;251.82;67.66;-89.88;0.0;35.958347;-83.92447;738.44;NaN;0.0;52.66798;;0 / 0;54006;2022-11-09 17:17:26:998
4.791;-8.4685;0.7074;8.0551;-5.5415;-0.7602;-3.4036;-2.7093;1.5262;-0.5602;1.5315;-0.7795;7.2;-65.61;40.24;-8.98;254.14;35.7;-97.57;0.0;35.958347;-83.92447;738.44;NaN;0.0;52.66798;;0 / 0;54505;2022-11-09 17:17:27:497
5.4278;-7.4151;0.2213;4.3412;-8.7912;0.1955;1.4294;1.4129;0.0554;0.2498;-0.8936;1.6566;7.9;-46.14;52.11;-22.2;226.28;63.7;-87.42;0.0;35.958347;-83.92447;738.44;NaN;0.0;52.66798;;0 / 0;55005;2022-11-09 17:17:27:997
4.535;-7.8126;1.095;5.529;-8.0612;0.786;-1.053;0.2331;0.2412;0.5364;-0.3774;-1.5639;8.0;-47.31;52.26;-23.85;229.06;58.24;-82.1;0.0;35.958347;-83.92447;738.44;NaN;0.0;52.66798;;0 / 0;55505;2022-11-09 17:17:28:497
5.8923;-6.5076;-0.6311;7.1816;-6.6777;0.0553;-1.0511;0.3142;-0.6294;0.2554;-0.3298;1.0836;8.3;-69.83;36.02;-14.59;214.08;42.92;-89.56;0.0;35.958347;-83.92447;738.44;NaN;0.0;52.66798;;0 / 0;56005;2022-11-09 17:17:28:997
7.2449;-7.7862;0.5444;3.9345;-8.9775;-0.3081;3.2541;1.001;0.4753;0.5551;-0.896;-0.9561;8.3;-56.77;55.78;-13.67;212.87;66.27;-94.48;0.0;35.958347;-83.92447;738.44;NaN;0.0;52.66798;;0 / 0;56506;2022-11-09 17:17:29:498
6.6248;-7.925;-0.7149;7.9543;-5.7305;0.2471;-1.0188;-2.6336;-0.9765;-0.2493;-0.9829;0.7415;8.9;-68.62;24.04;5.72;150.82;34.26;-86.3;0.0;35.958347;-83.92447;738.44;NaN;0.0;52.66798;;0 / 0;57006;2022-11-09 17:17:29:998
9.2608;-8.2624;0.6257;3.7649;-8.9207;-1.5543;5.5569;0.993;2.3196;0.1426;0.2756;-0.1058;11.6;-60.0;38.79;21.69;183.5;65.46;-112.43;0.0;35.958347;-83.92447;738.44;NaN;0.0;52.66798;;0 / 0;57506;2022-11-09 17:17:30:498
5.6698;-9.8809;-0.3915;8.4674;-4.947;0.0068;-2.5371;-5.0719;-0.408;0.0616;0.3275;-0.6073;9.7;-51.39;28.28;7.97;110.38;31.58;-90.28;0.0;35.958347;-83.92447;738.44;NaN;0.0;52.66798;;0 / 0;58005;2022-11-09 17:17:30:997
7.1324;-5.6172;-1.0478;4.6501;-8.6286;-0.3062;2.1956;2.8666;-0.3048;0.742;-0.3915;1.2809;21.6;-38.74;41.4;14.57;141.55;61.63;-93.77;0.0;35.958347;-83.92447;738.44;NaN;0.0;52.66798;;0 / 0;58505;2022-11-09 17:17:31:497
5.8373;-6.7711;0.5324;7.4534;-6.3683;-0.2499;-1.754;-0.7002;0.8246;0.2286;-0.1685;-0.7148;10.0;-47.27;27.73;22.31;115.39;40.49;-91.92;0.0;35.958347;-83.92447;738.44;NaN;0.0;52.66798;;0 / 0;59006;2022-11-09 17:17:31:998
6.2324;-6.1845;-1.0071;5.9105;-7.8248;-0.0977;0.7464;0.8921;-0.3655;-0.7702;1.4692;1.1465;37.2;-33.9;30.75;32.66;105.3;52.93;-90.95;0.0;35.958347;-83.92447;738.44;NaN;0.0;52.66798;;0 / 0;59506;2022-11-09 17:17:32:498
6.6559;-11.5735;0.4869;5.4768;-8.1169;-0.5399;1.0686;-3.598;1.0231;-1.0462;2.1949;-1.0765;18.6;-29.42;20.19;35.66;115.29;55.86;-95.63;0.0;35.958347;-83.92447;738.44;NaN;0.0;52.66798;;0 / 0;60006;2022-11-09 17:17:32:998
5.9426;-7.1782;1.1285;6.0897;-7.6861;-0.1003;-0.0361;0.318;1.1403;-1.3933;0.8241;0.3225;17.0;-20.25;24.79;-5.76;269.37;51.61;-90.94;0.0;35.958347;-83.92447;738.44;NaN;0.0;52.66798;;0 / 0;60505;2022-11-09 17:17:33:497
7.6376;-6.8237;-3.4202;4.6374;-8.6391;-0.1748;2.9646;1.6836;-3.2905;-0.4562;1.8968;-0.8015;15.1;-13.26;35.85;-25.29;284.19;62.78;-94.15;0.0;35.958347;-83.92447;738.44;NaN;0.0;52.66798;;0 / 0;61005;2022-11-09 17:17:33:997
7.0606;-7.6663;-0.2145;5.1124;-8.3682;-0.0866;2.5625;0.8401;0.2446;-0.7428;1.815;-0.7514;9.8;-13.33;37.16;-46.69;280.37;59.11;-91.14;0.0;35.958347;-83.92447;738.44;NaN;0.0;52.66798;;0 / 0;61506;2022-11-09 17:17:34:498
5.9593;-9.6416;1.5284;6.8323;-7.028;0.3132;-0.8273;-2.835;1.1586;-1.716;0.9664;0.7977;9.8;-7.59;52.97;-64.31;294.62;45.78;-87.38;0.0;35.958347;-83.92447;738.44;NaN;0.0;52.66798;;0 / 0;62006;2022-11-09 17:17:34:998
9.845;-8.6958;-3.8034;3.4948;-9.1315;0.7572;6.3996;0.3419;-4.5258;0.8873;-0.5356;0.3548;8.9;-9.28;45.34;-33.64;272.77;68.61;-77.78;0.0;35.958347;-83.92447;738.44;NaN;0.0;52.66798;;0 / 0;62506;2022-11-09 17:17:35:498
5.8253;-7.5132;1.1812;8.3115;-5.0057;-1.4256;-2.4233;-2.6904;2.7193;-0.6169;0.1302;-1.4137;9.4;-28.76;23.51;0.04;312.55;33.14;-99.66;0.0;35.958347;-83.92447;738.44;NaN;0.0;52.66798;;0 / 0;63006;2022-11-09 17:17:35:998
6.3042;-6.1582;-1.1004;5.9087;-7.8214;-0.288;0.4548;1.5258;-0.866;0.0243;-0.2772;1.7305;8.1;-23.44;29.34;-9.77;267.73;52.9;-92.79;0.0;35.958347;-83.92447;738.44;NaN;0.0;52.66798;;0 / 0;63505;2022-11-09 17:17:36:497
5.5331;-7.0822;1.4064;6.5535;-7.2945;0.1135;-0.975;0.1652;1.2551;0.0405;-0.397;-1.5926;8.9;-24.17;34.95;-17.72;280.25;50.83;-88.49;0.0;35.958347;-83.92447;738.44;NaN;0.0;52.66798;;0 / 0;64005;2022-11-09 17:17:36:997
5.1957;-6.577;-0.047;6.9697;-6.8428;-0.8774;-1.5415;0.0696;0.7788;-0.549;0.953;0.9528;7.4;-45.82;36.06;-11.83;259.42;42.67;-97.6;0.0;35.958347;-83.92447;738.44;NaN;0.0;52.66798;;0 / 0;64505;2022-11-09 17:17:37:497
6.175;-7.305;0.5994;5.0217;-8.417;-0.3274;1.3563;1.0645;0.9357;0.838;-1.5699;-1.793;7.4;-37.99;44.79;-6.86;218.98;62.11;-94.12;0.0;35.958347;-83.92447;738.44;NaN;0.0;52.66798;;0 / 0;65006;2022-11-09 17:17:37:998
5.4781;-7.4366;-0.1235;8.047;-5.6046;0.0742;-2.3387;-2.5164;-0.6004;-0.2107;-0.8893;1.0927;5.6;-40.31;23.63;6.49;116.2;34.86;-89.47;0.0;35.958347;-83.92447;738.44;NaN;0.0;52.66798;;0 / 0;65505;2022-11-09 17:17:38:497
7.6926;-9.1579;0.4774;2.975;-9.343;-0.1673;4.9026;0.7473;0.8933;-0.1129;0.5193;-0.7398;7.1;-24.24;36.45;5.12;166.15;73.86;-94.06;0.0;35.958347;-83.92447;738.44;NaN;0.0;52.66798;;0 / 0;66006;2022-11-09 17:17:38:998
4.9131;-11.0877;1.325;8.412;-5.0003;0.6366;-3.6463;-6.1406;0.354;-1.0705;1.0495;0.0946;7.4;-20.72;24.75;-4.46;347.31;30.66;-85.67;0.0;35.958347;-83.92447;738.44;NaN;0.0;52.66798;;0 / 0;66505;2022-11-09 17:17:39:497
7.6831;-7.4581;-0.0876;3.5761;-9.1193;-0.4695;3.497;2.4695;0.106;-0.6381;0.4026;0.5332;7.1;-13.78;22.63;-8.96;252.64;68.42;-97.48;0.0;35.958347;-83.92447;738.44;NaN;0.0;52.66798;;0 / 0;67006;2022-11-09 17:17:39:998
4.8939;-5.9498;-0.0996;7.7965;-5.9469;0.136;-2.7673;-0.2963;-0.3575;0.3968;-0.171;-0.7368;9.4;-16.48;23.21;-12.32;303.77;38.61;-89.38;0.0;35.958347;-83.92447;738.44;NaN;0.0;52.66798;;0 / 0;67506;2022-11-09 17:17:40:498
6.3544;-6.6371;0.6281;5.0604;-8.3972;-0.2223;1.3303;1.3812;1.0413;-0.9851;2.1247;1.1178;7.7;-14.36;18.9;-12.11;265.96;56.75;-92.26;0.0;35.958347;-83.92447;738.44;NaN;0.0;52.66798;;0 / 0;68005;2022-11-09 17:17:40:997
5.5044;-6.5339;-0.4397;5.6951;-7.9828;-0.1102;-0.0922;1.2913;-0.3296;-0.5035;1.1228;0.4898;7.7;-11.08;16.59;-8.78;278.69;53.72;-91.82;0.0;35.958347;-83.92447;738.44;NaN;0.0;52.66798;;0 / 0;68505;2022-11-09 17:17:41:497
5.8636;-8.1978;-0.4178;6.1394;-7.5914;0.9209;-0.4259;-0.4653;-1.2606;-0.2387;-0.648;-0.1271;6.9;-12.69;3.64;-5.76;204.71;50.72;-80.44;0.0;35.958347;-83.92447;738.44;NaN;0.0;52.66798;;0 / 0;69006;2022-11-09 17:17:41:998
4.5159;-6.0242;-3.0108;4.5753;-8.6673;0.3388;0.0461;2.5818;-3.2136;0.8368;0.7386;-0.4271;7.7;-16.65;-1.01;-15.64;226.04;63.09;-90.34;0.0;35.958347;-83.92447;738.44;NaN;0.0;52.66798;;0 / 0;69506;2022-11-09 17:17:42:498
7.6137;-8.3417;-0.4322;5.6185;-8.0376;-8.0E-4;2.2317;-0.5609;-0.0542;1.2829;-1.2199;-0.8846;5.6;-35.7;-4.8;-18.53;210.42;55.05;-90.01;0.0;35.958347;-83.92447;738.44;NaN;0.0;52.66798;;0 / 0;70006;2022-11-09 17:17:42:998
6.2731;-9.3087;-0.0589;8.0717;-5.5662;0.1883;-1.7324;-3.7674;-0.2107;-0.4954;0.2585;1.009;9.3;-38.87;0.15;-17.74;217.37;34.58;-88.66;0.0;35.958347;-83.92447;738.44;NaN;0.0;52.66798;;0 / 0;70506;2022-11-09 17:17:43:498
4.7169;-6.5004;1.1501;6.0778;-7.6402;-0.9264;-1.1428;0.9085;2.0883;-1.1098;1.1851;0.747;13.3;-40.14;14.31;-25.03;238.4;50.45;-98.36;0.0;35.958347;-83.92447;738.44;NaN;0.0;52.66798;;0 / 0;71005;2022-11-09 17:17:43:997
4.6068;-7.0056;-0.2384;5.8902;-7.7787;-0.9832;-1.27;0.5481;0.6684;-0.5677;1.3995;-0.4442;7.7;-17.46;40.86;-25.8;297.9;52.49;-99.48;0.0;35.958347;-83.92447;738.44;NaN;0.0;52.66798;;0 / 0;71505;2022-11-09 17:17:44:497
6.1893;-6.862;-2.3189;5.3129;-8.2212;-0.5954;0.9025;1.4348;-1.8279;0.6467;0.1241;0.7238;6.5;-16.8;51.6;-29.31;298.81;56.96;-96.39;0.0;35.958347;-83.92447;738.44;NaN;0.0;52.66798;;0 / 0;72006;2022-11-09 17:17:44:998
8.0566;-8.5522;-0.2264;4.4874;-8.6578;-1.0373;3.5081;0.0631;0.5046;-0.1963;0.4936;-0.1931;7.7;-25.67;45.83;-47.08;279.44;61.99;-103.02;0.0;35.958347;-83.92447;738.44;NaN;0.0;52.66798;;0 / 0;72505;2022-11-09 17:17:45:497
3.6514;-8.9641;-0.358;8.9444;-4.0205;0.0545;-5.1951;-4.9945;-0.3856;-0.0549;0.4637;-0.7667;7.7;-66.15;16.74;-21.71;240.32;25.36;-90.45;0.0;35.958347;-83.92447;738.44;NaN;0.0;52.66798;;0 / 0;73005;2022-11-09 17:17:45:997
7.4797;-5.7464;-0.9374;3.0066;-9.2982;-0.8207;4.3146;3.6119;0.009;-0.3035;1.2108;0.6175;7.7;-54.17;49.99;-31.52;240.5;71.47;-105.27;0.0;35.958347;-83.92447;738.44;NaN;0.0;52.66798;;0 / 0;73505;2022-11-09 17:17:46:497
5.5355;-6.7137;0.4965;7.3104;-6.5345;0.1661;-1.7572;-0.2707;0.3259;0.947;-1.0201;-1.2903;9.3;-64.95;31.31;-21.82;221.16;43.99;-88.51;0.0;35.958347;-83.92447;738.44;NaN;0.0;52.66798;;0 / 0;74006;2022-11-09 17:17:46:998
7.8171;-7.183;-1.0454;5.7698;-7.9227;-0.3323;1.9604;0.3554;-0.2039;0.3433;-0.4031;1.2051;8.3;-57.77;32.46;-3.38;193.4;51.63;-93.02;0.0;35.958347;-83.92447;738.44;NaN;0.0;52.66798;;0 / 0;74505;2022-11-09 17:17:47:497
7.5012;-7.7504;-0.2192;4.3359;-8.7948;0.1496;3.2175;0.7016;-0.406;0.2511;-0.3231;-0.8284;8.9;-47.04;36.47;-8.78;196.22;64.88;-88.76;0.0;35.958347;-83.92447;738.44;NaN;0.0;52.66798;;0 / 0;75005;2022-11-09 17:17:47:997
7.0463;-9.912;0.5922;7.9709;-5.6661;-0.7284;-1.3664;-3.7283;2.0221;0.2112;0.435;0.1117;8.9;-41.66;29.12;-12.73;271.26;35.23;-96.01;0.0;35.958347;-83.92447;738.44;NaN;0.0;52.66798;;0 / 0;75506;2022-11-09 17:17:48:498
6.4837;-7.3576;0.7696;5.9003;-7.7485;-1.1481;0.2958;0.9332;1.876;-0.7154;0.3757;1.4385;15.9;-35.42;35.59;-13.69;261.74;52.2;-101.01;0.0;35.958347;-83.92447;738.44;NaN;0.0;52.66798;;0 / 0;76006;2022-11-09 17:17:48:998
4.8126;-5.9952;0.1567;7.0706;-6.7943;-0.1186;-2.0311;0.5284;0.2041;0.8879;-0.6065;-1.0997;11.4;-37.87;34.63;-18.6;267.48;43.85;-90.96;0.0;35.958347;-83.92447;738.44;NaN;0.0;52.66798;;0 / 0;76506;2022-11-09 17:17:49:498
7.317;-7.494;-0.2408;5.8175;-7.8904;0.2628;1.689;0.4995;-0.5014;-0.0499;0.369;1.6566;29.9;-39.37;32.81;-19.05;241.7;50.28;-87.86;0.0;35.958347;-83.92447;738.44;NaN;0.0;52.66798;;0 / 0;77006;2022-11-09 17:17:49:998
7.4342;-8.9952;0.5922;5.284;-8.245;-0.5195;1.9703;-0.6216;1.0562;-0.0979;0.3464;-0.2426;25.8;-27.39;37.52;-19.58;269.05;57.22;-95.61;0.0;35.958347;-83.92447;738.44;NaN;0.0;52.66798;;0 / 0;77506;2022-11-09 17:17:50:498
6.7041;-5.4446;2.2825;7.232;-6.6229;0.0754;-0.754;0.8687;2.0222;-0.9322;1.1784;1.2595;8.9;-23.68;34.11;-46.18;282.77;40.29;-90.02;0.0;35.958347;-83.92447;738.44;NaN;0.0;52.66798;;0 / 0;78006;2022-11-09 17:17:50:998
2.7945;-7.6184;-2.6276;7.2072;-6.5721;-1.0169;-4.4829;-1.2031;-1.5576;-2.26;1.2389;-0.4045;29.0;-38.79;30.39;-52.82;271.33;42.08;-98.03;0.0;35.958347;-83.92447;738.44;NaN;0.0;52.66798;;0 / 0;78506;2022-11-09 17:17:51:498
8.8322;-9.7947;-1.3875;6.6135;-7.1585;-1.0901;1.9993;-1.8134;-0.5093;-1.0051;1.4954;0.4177;26.6;-43.8;19.74;-61.33;260.91;46.88;-99.36;0.0;35.958347;-83.92447;738.44;NaN;0.0;52.66798;;0 / 0;79005;2022-11-09 17:17:51:997
5.3345;-7.0128;-0.7316;6.8912;-6.9717;-0.2783;-1.3177;-0.2113;-0.4997;-0.7895;0.8149;-0.6176;16.5;-39.32;15.47;-45.34;251.18;45.31;-92.31;0.0;35.958347;-83.92447;738.44;NaN;0.0;52.66798;;0 / 0;79506;2022-11-09 17:17:52:498
2.6937;-5.6219;-0.4397;7.2933;-6.5556;-0.0404;-4.7491;0.9799;-0.2179;-1.3409;1.4899;-0.0019;15.5;-35.51;29.96;-41.18;267.81;42.2;-90.76;0.0;35.958347;-83.92447;738.44;NaN;0.0;52.66798;;0 / 0;80006;2022-11-09 17:17:52:998
3.4576;-7.9753;-2.0267;4.9646;-8.4361;-0.5968;-1.243;0.1992;-1.2642;-0.5029;0.9047;-0.6262;10.1;-28.69;39.32;-35.98;268.27;59.34;-96.85;0.0;35.958347;-83.92447;738.44;NaN;0.0;52.66798;;0 / 0;80505;2022-11-09 17:17:53:497
5.0426;-7.075;-3.0132;4.032;-8.8711;-1.1031;0.9467;1.7815;-2.0193;0.2922;1.3843;-0.2346;11.2;-29.66;43.24;-31.8;273.78;64.45;-109.48;0.0;35.958347;-83.92447;738.44;NaN;0.0;52.66798;;0 / 0;81006;2022-11-09 17:17:53:998
7.2449;-10.1372;1.969;5.2576;-8.2544;-0.6276;1.9653;-2.5034;2.8698;1.2087;0.0239;0.0683;8.6;-45.9;40.11;-10.63;231.91;57.1;-99.95;0.0;35.958347;-83.92447;738.44;NaN;0.0;52.66798;;0 / 0;81506;2022-11-09 17:17:54:498
5.447;-12.6772;0.9969;7.8387;-5.8925;0.066;-1.4843;-6.7411;0.9754;-0.7596;0.5468;2.6114;8.7;-47.51;47.03;1.46;9.13;36.93;-89.52;0.0;35.958347;-83.92447;738.44;NaN;0.0;52.66798;;0 / 1;82006;2022-11-09 17:17:54:998
6.6272;-7.075;-0.6263;3.1927;-9.1698;-1.3753;3.5693;2.2103;0.8937;-0.1222;0.3953;-0.6775;8.7;-31.31;51.26;7.73;203.76;70.21;-114.3;0.0;35.958347;-83.92447;738.44;NaN;0.0;52.66798;;0 / 1;82505;2022-11-09 17:17:55:497
4.0681;-7.2763;-0.4828;7.081;-6.7837;-0.11;-3.1381;-0.7136;-0.4091;0.3115;0.0325;-1.0465;12.6;-39.24;57.15;5.25;17.27;43.77;-90.89;0.0;35.958347;-83.92447;738.44;NaN;0.0;52.66798;;0 / 1;83006;2022-11-09 17:17:55:998
5.9163;-5.8205;-1.3062;4.9468;-8.4637;-0.255;0.8469;2.8956;-0.6693;0.6093;-1.0317;0.4159;5.8;-32.48;62.72;8.06;58.51;59.66;-92.95;0.0;35.958347;-83.92447;738.44;NaN;0.0;52.66798;;0 / 1;83506;2022-11-09 17:17:56:498
6.5291;-8.016;0.9586;5.9065;-7.8145;-0.4653;0.5366;-0.3865;1.4807;0.9252;-0.9755;-0.3214;11.5;-33.17;61.8;16.16;52.52;52.83;-94.5;0.0;35.958347;-83.92447;738.44;NaN;0.0;52.66798;;0 / 2;84006;2022-11-09 17:17:56:998
7.185;-10.0798;-0.236;7.7435;-5.9901;-0.5729;-0.5891;-3.9675;0.3061;-0.0325;0.4833;0.8313;6.7;-39.71;63.08;4.09;1.09;36.13;-94.97;0.0;35.958347;-83.92447;738.44;NaN;0.0;52.66798;;0 / 2;84506;2022-11-09 17:17:57:498
7.6328;-8.1356;-0.0613;4.1451;-8.8831;-0.2822;3.6184;0.541;0.1325;-0.0437;0.278;0.1471;4.9;-14.44;65.06;9.3;29.26;64.93;-93.9;0.0;35.958347;-83.92447;738.44;NaN;0.0;52.66798;;0 / 2;85006;2022-11-09 17:17:57:998
4.317;-8.1021;0.4534;8.1282;-5.4864;0.0472;-3.7273;-2.6112;0.3935;-0.4094;0.4918;-1.0416;8.8;-34.78;58.67;-1.63;355.78;35.94;-90.01;0.0;35.958347;-83.92447;738.44;NaN;0.0;52.66798;;0 / 2;85506;2022-11-09 17:17:58:498
4.7216;-5.6459;-0.8943;5.3039;-8.2303;-0.5489;-0.3595;2.438;-0.2551;-0.929;0.9872;1.0579;6.9;-22.29;57.04;6.3;16.45;55.42;-94.9;0.0;35.958347;-83.92447;738.44;NaN;0.0;52.66798;;0 / 2;86006;2022-11-09 17:17:58:998
4.791;-8.6839;-0.1594;5.4444;-8.1557;-0.1145;-0.6919;-0.5419;0.1344;0.1769;-0.4965;-0.9426;6.9;-22.42;53.1;13.31;48.96;56.27;-91.2;0.0;35.958347;-83.92447;738.44;NaN;0.0;52.66798;;0 / 3;86506;2022-11-09 17:17:59:498
5.9258;-8.38;0.1376;6.5508;-7.2936;-0.2461;-0.6862;-1.0502;0.2889;-0.7048;0.8687;0.9987;8.8;-9.39;37.74;-8.19;337.37;46.22;-92.25;0.0;35.958347;-83.92447;738.44;NaN;0.0;52.66798;;0 / 3;87006;2022-11-09 17:17:59:998
5.0617;-6.8285;-0.4899;4.3608;-8.7633;-0.5991;0.7529;1.8062;0.087;-0.6655;1.6451;0.1038;6.5;-8.04;34.41;-0.39;352.04;63.43;-98.16;0.0;35.958347;-83.92447;738.44;NaN;0.0;52.66798;;0 / 3;87505;2022-11-09 17:18:00:497
3.9006;-7.1061;-2.1706;6.0249;-7.6794;-0.9469;-2.0561;0.4383;0.0479;0.9832;-3.1049;0.0323;7.5;-38.19;17.46;-25.22;239.71;51.66;-96.27;0.0;35.958347;-83.92447;738.44;NaN;0.0;52.66798;;0 / 4;88005;2022-11-09 17:18:00:997
4.4728;-7.36;0.463;6.1601;-7.5051;-1.3776;-1.9662;0.0232;1.9128;-0.1415;0.4765;1.5637;4.7;-49.97;0.9;-22.91;225.91;47.84;-102.15;0.0;35.958347;-83.92447;738.44;NaN;0.0;52.66798;;0 / 4;88505;2022-11-09 17:18:01:497
7.2329;-9.0335;-2.3572;4.6718;-8.6223;-0.0094;2.5764;-0.441;-2.2905;-0.4954;1.4618;-0.4142;9.7;-36.64;19.89;-36.47;239.46;62.2;-92.3;0.0;35.958347;-83.92447;738.44;NaN;0.0;52.66798;;0 / 4;89005;2022-11-09 17:18:01:997
4.6881;-6.5435;-0.2934;7.3453;-6.4146;-1.0347;-2.4603;-0.1015;0.6712;-0.7035;0.1106;-0.3996;7.6;-39.54;5.87;-47.46;250.78;41.7;-97.19;0.0;35.958347;-83.92447;738.44;NaN;0.0;52.66798;;0 / 4;89506;2022-11-09 17:18:02:498
6.9386;-5.5573;0.2477;5.0624;-7.9926;-2.5807;1.7954;1.9494;2.6461;0.3776;0.3269;0.5143;8.3;-14.96;33.0;-49.2;297.91;53.52;-116.96;0.0;35.958347;-83.92447;738.44;NaN;0.0;52.66798;;0 / 5;90007;2022-11-09 17:18:02:999
8.1141;-10.4124;0.4869;4.5972;-8.6404;-0.6156;3.9242;-2.0798;0.6318;0.405;-0.2412;0.3084;8.3;-35.61;12.66;-75.32;258.75;61.34;-98.09;0.0;35.958347;-83.92447;738.44;NaN;0.0;52.66798;;0 / 5;90506;2022-11-09 17:18:03:498
-0.1576;-12.8569;-0.4636;8.5122;-4.8684;0.1085;-8.4212;-7.9211;-0.8156;-0.9247;2.2621;0.557;7.8;-42.62;-32.57;-30.34;213.21;30.54;-93.17;0.0;35.958347;-83.92447;738.44;NaN;0.0;52.66798;;0 / 5;91006;2022-11-09 17:18:03:998
7.8939;-7.7145;0.1062;2.9092;-9.2426;-1.5103;4.8991;1.4428;1.7978;-0.2424;0.5859;0.5515;9.1;-33.23;20.19;-47.32;268.48;69.99;-116.18;0.0;35.958347;-83.92447;738.44;NaN;0.0;52.66798;;0 / 5;91506;2022-11-09 17:18:04:498
5.9665;-8.016;1.1764;7.1026;-6.7583;0.2181;-1.1821;-1.4033;1.0239;0.5894;-0.8844;-1.242;9.1;-31.52;-4.84;-36.49;232.95;43.56;-88.24;0.0;35.958347;-83.92447;738.44;NaN;0.0;52.66798;;0 / 5;92006;2022-11-09 17:18:04:998
5.9713;-6.6491;-0.9541;5.4132;-8.1766;-0.0988;0.7335;1.4416;-1.3101;-1.0898;0.989;1.1807;9.1;-32.91;1.76;-31.57;231.13;54.46;-89.89;0.0;35.958347;-83.92447;738.44;NaN;0.0;52.66798;;0 / 5;92506;2022-11-09 17:18:05:498
6.3353;-8.0016;1.0639;5.048;-8.4073;-0.0789;0.8854;0.0999;1.2993;0.6056;-0.9052;-1.4747;10.3;-27.97;15.62;-37.28;247.81;59.02;-90.9;0.0;35.958347;-83.92447;738.44;NaN;0.0;52.66798;;0 / 5;93005;2022-11-09 17:18:05:997
6.5507;-9.9335;-0.6694;7.764;-5.9722;0.4725;-1.1585;-4.1905;-1.1791;-0.0611;-0.284;1.8069;10.3;-34.63;-0.02;-22.09;221.92;37.52;-86.52;0.0;35.958347;-83.92447;738.44;NaN;0.0;52.66798;;0 / 5;93506;2022-11-09 17:18:06:498
7.6974;-7.8102;-0.6311;4.1728;-8.8349;-0.8385;3.6091;0.8309;0.2034;-0.0038;0.2597;-0.1082;12.2;-34.33;20.96;-25.63;243.14;64.28;-101.36;0.0;35.958347;-83.92447;738.44;NaN;0.0;52.66798;;0 / 8;94006;2022-11-09 17:18:06:998
5.6961;-7.4079;0.9897;7.8066;-5.9135;-0.5073;-2.0808;-1.2624;1.4051;-0.1253;-0.2504;-1.0923;9.7;-33.3;5.93;-5.27;205.61;37.09;-93.72;0.0;35.958347;-83.92447;738.44;NaN;0.0;52.66798;;0 / 8;94505;2022-11-09 17:18:07:497
5.8445;-5.9234;-0.3389;4.5223;-8.6837;-0.5587;1.3193;2.6709;0.1674;-0.8356;0.4778;0.8905;39.7;-24.94;22.2;3.69;170.73;61.02;-94.87;0.0;35.958347;-83.92447;738.44;NaN;0.0;52.66798;;0 / 10;95006;2022-11-09 17:18:07:998
5.8325;-7.171;-0.2647;6.7936;-7.0723;0.0079;-0.8586;-0.0736;-0.3782;1.4356;-1.642;-0.752;21.4;-13.91;25.33;2.94;24.49;47.41;-89.95;0.0;35.958347;-83.92447;738.44;NaN;0.0;52.66798;;0 / 10;95506;2022-11-09 17:18:08:498
8.4159;-9.0215;-1.22;7.0111;-6.854;-0.193;1.7246;-2.1736;-0.9336;0.2217;-1.3219;1.8448;47.8;-15.09;14.08;-19.58;269.77;44.34;-91.58;0.0;35.958347;-83.92447;738.44;NaN;0.0;52.66798;;0 / 11;96006;2022-11-09 17:18:08:998
7.1755;-8.7389;-2.5271;6.2895;-7.3976;-1.3743;0.9892;-0.6074;-1.3661;-0.5047;-0.2772;-0.545;47.8;-14.29;16.73;-27.99;280.0;48.97;-102.33;0.0;35.958347;-83.92447;738.44;NaN;0.0;52.66798;;0 / 11;96505;2022-11-09 17:18:09:497
5.2579;-5.5693;-1.6798;8.7739;-4.3805;-0.0274;-3.1494;-1.2008;-1.9374;-0.8923;1.0422;-0.7881;12.8;-29.55;-1.93;-38.08;248.26;27.77;-91.16;0.0;35.958347;-83.92447;738.44;NaN;0.0;52.66798;;0 / 11;97006;2022-11-09 17:18:09:998
7.7477;-6.8118;9.1107;6.792;-4.6785;5.3057;0.9554;-2.194;3.8633;-0.5334;0.8064;-1.6097;59.3;13.41;15.15;-41.57;277.94;28.49;-52.0;0.0;35.958347;-83.92447;738.44;NaN;0.0;52.66798;;0 / 11;97505;2022-11-09 17:18:10:497
2.4185;-1.1952;12.1223;2.84;-2.1149;9.145;-0.1617;0.4438;2.8898;0.5975;0.8779;-0.0343;59.3;15.38;15.45;-45.92;280.83;13.49;-18.94;0.0;35.958347;-83.92447;738.44;NaN;0.0;52.66798;;0 / 13;98006;2022-11-09 17:18:10:998
-0.5477;0.9212;8.7754;-0.5175;2.6243;9.4348;-0.1124;-1.3729;-2.8517;-1.1011;2.5132;0.2803;48.8;19.95;11.98;-47.47;324.53;-15.52;3.14;0.0;35.958347;-83.92447;738.44;NaN;0.0;52.66798;;0 / 13;98505;2022-11-09 17:18:11:497
-1.072;2.5636;7.9756;-0.9259;2.0879;9.537;-0.1469;0.505;-1.4807;0.4891;-0.2296;-0.5602;56.4;16.01;27.94;-37.35;340.83;-12.29;5.55;0.0;35.958347;-83.92447;738.44;NaN;0.0;52.66798;;0 / 13;99006;2022-11-09 17:18:11:998
-2.4655;3.0185;10.0298;-1.0382;2.223;9.4948;-0.3362;0.518;0.3445;0.3108;0.0526;0.0958;50.9;12.81;32.85;-34.56;347.27;-13.1;6.24;0.0;35.958347;-83.92447;738.44;NaN;0.0;52.66798;;0 / 13;99505;2022-11-09 17:18:12:497
-2.9946;3.0449;8.9118;-1.0382;2.223;9.4948;-0.3362;0.518;0.3445;0.3108;0.0526;0.0958;38.5;12.81;32.85;-34.56;347.27;-13.1;6.24;0.0;35.958347;-83.92447;738.44;NaN;0.0;52.66798;;0 / 13;100006;2022-11-09 17:18:12:998
-1.0337;3.6123;8.8496;-1.0382;2.223;9.4948;-0.3362;0.518;0.3445;0.3108;0.0526;0.0958;32.0;12.81;32.85;-34.56;347.27;-13.1;6.24;0.0;35.958347;-83.92447;738.44;NaN;0.0;52.66798;;0 / 13;100505;2022-11-09 17:18:13:497
-5.0844;3.5668;8.4951;-4.1414;2.9301;8.3925;0.7155;0.415;-0.4911;-1.0759;1.6772;-0.2399;27.7;-45.36;58.78;-8.04;40.59;-20.11;21.58;2.0;35.958347;-83.92447;738.44;NaN;0.0;52.66798;;0 / 13;101005;2022-11-09 17:18:13:997