time,seconds_elapsed,z,y,x
1667710504309961000,0.0219609375,0.9307365430355071,-0.4023778545975685,-0.31967699423097073
1667710504320011800,0.03201171875,1.0438538036495446,-0.4152193621225655,0.05745126829780638
1667710504330062800,0.042062744140625,1.333820500075817,-0.40979149185493585,0.34086905453726646
1667710504340113000,0.05211279296875,1.724587411856651,-0.4136309238873422,0.42592488053217525
1667710504350164000,0.0621640625,2.0608850668251515,-0.4220945085890591,0.40088045564666386
1667710504360215000,0.072215087890625,2.4027210666984318,-0.40721448097378016,0.40693179157488046
1667710504370265900,0.082265869140625,2.7962755633711813,-0.40772900636717674,0.4751294217493385
1667710504380316000,0.09231591796875,3.149206373232603,-0.40170141664072867,0.5102762845847756
1667710504390367000,0.102366943359375,3.2748248035013674,-0.4039022876858711,0.49402942559570073
1667710504400417800,0.112417724609375,3.1926012783229347,-0.44358957042992114,0.45921617862880226
1667710504410468900,0.12246875,3.1169279054403303,-0.4111353076793253,0.5137013636626303
1667710504420519000,0.132518798828125,3.1664059298366305,-0.36008725748732684,0.5838393142499029
1667710504430570000,0.142570068359375,3.368189900419116,-0.29706089247092604,0.5831811426021158
1667710504440620800,0.152620849609375,3.418129112586379,-0.27448125026375053,0.4063311222679913
1667710504450671900,0.162671875,3.1623738978415727,-0.39786461495682596,0.12391579106934368
1667710504460723000,0.172722900390625,2.8009137445658445,-0.5033661398701369,0.02072279882673174
1667710504470773000,0.18277294921875,2.432860768896341,-0.48404842206835746,0.09352229677345603
1667710504480824000,0.192823974609375,2.111529796913266,-0.4253101096346974,0.17897126853810622
1667710504490875000,0.202875,1.8740414757430552,-0.40560046990588305,0.3133835931751877
1667710504500926000,0.212926025390625,1.6107593726247549,-0.4457192759349942,0.5113053719041869
1667710504510975700,0.222975830078125,1.2315613180845975,-0.5868818968161941,0.7093093490239233
1667710504521026800,0.23302685546875,0.8171931659638881,-0.7940599815271794,0.8589602506566792
1667710504531078000,0.243077880859375,0.35719840417802334,-1.0138089401282369,0.8920634788352996
1667710504541129000,0.25312890625,-0.13461013049781323,-1.2684826432466507,0.7851699881069362
1667710504551179800,0.2631796875,-0.6020125381916761,-1.5330056863367556,0.47364411509502674
1667710504561229800,0.273229736328125,-0.9697428577780723,-1.7441216950185596,0.02391739361695945
1667710504571281000,0.283281005859375,-1.2940174819976091,-1.8496920473843812,-0.4691748972591012
1667710504581332000,0.29333203125,-1.6612527115434408,-1.8393775741189717,-0.993070834134519
1667710504591383000,0.303383056640625,-2.0503350312381983,-1.6754807049907743,-1.3437630712889135
1667710504601432800,0.313432861328125,-2.629628372621536,-1.4392024902626872,-1.3335919520169495
1667710504611484000,0.32348388671875,-3.320335093310475,-1.2356171693466602,-1.1014543442249298
1667710504621534700,0.33353466796875,-3.9150364317059516,-1.0991928290337323,-0.7038156469784677
1667710504631585800,0.343585693359375,-4.335016578489542,-1.042164389257878,-0.2512986919936724
1667710504641636900,0.353636962890625,-4.505438027080893,-1.0285551122307777,0.11918722817748785
1667710504651687000,0.36368701171875,-4.509025822439789,-1.0613438676327467,0.46511743856184184
1667710504661738000,0.373738037109375,-4.339903181487322,-1.0507271965503693,0.6256567408904433
1667710504671789000,0.3837890625,-3.9407805292934177,-0.9607570027679204,0.6457432511076331
1667710504681839900,0.39383984375,-3.5670056688457725,-0.7448350551091134,0.595751687698625
1667710504691890000,0.403889892578125,-3.341258638873696,-0.4046427307896316,0.8009113087266683
1667710504701941000,0.41394091796875,-3.337740401619673,-0.025549013406783342,1.1510549720875918
1667710504711992000,0.423991943359375,-3.585684650352597,0.47989115625843404,1.4860891829915344
1667710504722043000,0.43404296875,-3.8232133035331963,1.1481041594579815,1.7269214077621697
1667710504732093000,0.444093017578125,-3.9253421371430157,1.8978918685384094,1.9319196642160414
1667710504742143700,0.454143798828125,-3.769466515776515,2.5376643746733665,2.168170990937203
1667710504752194800,0.46419482421875,-3.296553235706687,2.9081583137542006,2.2861088035754857
1667710504762245400,0.474245361328125,-2.6070529681980608,2.9957877896293996,2.2153180881679058
1667710504772296400,0.48429638671875,-1.863502546072006,2.8815058691501614,1.9712784456580876
1667710504782346500,0.494346435546875,-1.0543407108724117,2.6135122273400424,1.6414865193217991
1667710504792397600,0.5043974609375,-0.3432441131055355,2.250680639580637,1.432143511661887
1667710504802448400,0.514448486328125,0.1589542981594801,1.8466503416009246,1.2918962520599364
1667710504812499500,0.52449951171875,0.5315238744705915,1.4191346847459674,1.0054573644336313
1667710504822549500,0.534549560546875,0.7110264551401138,1.0197370150029659,0.6366534242663532
1667710504832600600,0.5446005859375,0.7625438764095306,0.7099445051223039,0.22811799688711762
1667710504842651600,0.554651611328125,0.8480617669582367,0.45944984125420446,-0.042997430205345154
1667710504852702700,0.56470263671875,1.0340946261793373,0.2722926541782915,-0.13038703291006384
1667710504862753300,0.574753173828125,1.2601783407598732,0.19012772731930017,-0.07211546120531856
1667710504872803300,0.58480322265625,1.4546148711889981,0.22016996049210427,0.13512151408605277
1667710504882854400,0.5948544921875,1.6182734015166758,0.2929327066250145,0.35921865795925256
1667710504892905500,0.604905517578125,1.771518674379587,0.34089068184718485,0.3883313551969826
1667710504902956500,0.61495654296875,1.5598820028245448,0.34204277449175713,-0.08146832289695739
1667710504913006600,0.625006591796875,-0.10235913523435593,-0.006483516800403595,-2.0259289042562245
1667710504923057700,0.6350576171875,1.2390811921954155,-0.6525901943929493,-0.9620029842410236
1667710504933108500,0.6451083984375,2.849667546340823,-1.315668465052545,0.8747273633047938
1667710504943159600,0.65515966796875,3.35505218642652,-1.2780936444178224,0.7432939631469547
1667710504953210600,0.665210693359375,3.331939021864533,-0.8529385792143642,0.16742153612300753
1667710504963260400,0.675260498046875,3.451996895396709,-0.42542204557657237,-0.1079264139726758
1667710504973311500,0.6853115234375,2.958917025610804,-0.024434184032678604,-0.627706586092338
1667710504983362600,0.695362548828125,2.842186835196614,0.13724837004691362,-0.7196596973203122
1667710504993413400,0.705413330078125,2.707268661662936,-0.05218991370350122,-0.6986083606589585
1667710505003463400,0.71546337890625,2.542521751576662,-0.3105537035115063,-0.5996621026080101
1667710505013514500,0.725514404296875,2.3348744419187306,-0.5185448581710458,-0.5316084109488874
1667710505023565600,0.735565673828125,2.0113906758159397,-0.7776026215925812,-0.5518591352844611
1667710505033616600,0.74561669921875,2.158723509764671,-0.8688526260524988,-0.3155320764459669
1667710505043667500,0.75566748046875,2.6448382167130706,-0.6992310956671833,0.32764008206464346
1667710505053717500,0.765717529296875,3.1830157038539646,-0.30493367167264224,0.7782907499872147
1667710505063768300,0.775768310546875,3.480628531119227,0.23376608577668664,1.1659459594883024
1667710505073819400,0.7858193359375,3.253896581763029,0.599644055494666,1.2653950524948536
1667710505083870500,0.795870361328125,3.0808079597890377,0.33503684125244615,1.282533526561409
1667710505093920500,0.80592041015625,3.1411370485454797,-0.1036322239100933,1.174382363922149
1667710505103971600,0.8159716796875,2.3329759148210285,0.056066755136847495,0.5202948801761493
1667710505114022400,0.8260224609375,1.8616718235135077,0.0592708118751645,0.22882921389639377
1667710505124073500,0.836073486328125,1.6391525234162807,-0.03209522017985582,0.08410294571686536
1667710505134124500,0.84612451171875,1.7577607826620338,-0.12077449736893177,0.29033739290218796
1667710505144174600,0.856174560546875,2.19652921654582,-0.28857553432881833,0.62681453262344
1667710505154225700,0.8662255859375,2.716836700475216,-0.5323772764295339,0.9418842522546649
1667710505164276500,0.8762763671875,2.909398084682226,-0.7601812389314174,1.0349451055288315
1667710505174327600,0.88632763671875,2.892627567145228,-0.8148106547415256,0.8612041571259498
1667710505184377300,0.89637744140625,2.463335986658931,-0.7881681470096111,0.3924463162351399
1667710505194428400,0.906428466796875,1.4692308410406112,-0.9066004651665687,-0.19457257789894938
1667710505204479500,0.9164794921875,-0.2851379610955715,-1.2986290674462915,-1.0949591369867324
1667710505214530600,0.926530517578125,-2.77477509470284,-1.7896175179108977,-1.8818705619335174
1667710505224581400,0.936581298828125,-4.33509431990087,-2.167573463435471,-1.542809579731524
1667710505234631400,0.94663134765625,-4.245895110490918,-2.352544538643956,-0.6567435877453536
1667710505244682500,0.9566826171875,-3.80526497438848,-2.5025761101573702,-0.06309826120883226
1667710505254733600,0.966733642578125,-3.9040380678296085,-2.6318101005747914,0.24519173515439033
1667710505264784600,0.97678466796875,-4.486293181627989,-2.534858377341926,0.31466333078742026
1667710505274834400,0.98683447265625,-5.076846752694249,-2.116378990510106,0.18996771445199845
1667710505284885500,0.996885498046875,-5.437514294287562,-1.3874030371814965,0.5134380365513265
1667710505294936300,1.006936279296875,-5.850103161776065,-0.8344786472856998,0.04673895482122898
1667710505304987400,1.0169873046875,-5.688693287158012,-0.30421704783588643,-0.670260729509592
1667710505315038500,1.02703857421875,-5.04258441760838,-0.031919571352005,-0.9679166652642189
1667710505325088500,1.037088623046875,-4.712735792648792,0.0638330052241683,-0.6310036548763513
1667710505335139600,1.0471396484375,-4.112903521105647,0.6017956805706024,-0.7835704439558089
1667710505345190400,1.0571904296875,-2.9831022033184764,1.283224869826436,-1.2867130042031407
1667710505355241500,1.067241455078125,-2.039344850668311,1.4389835868149996,-1.260671384973824
1667710505365292500,1.07729248046875,-1.5383078843981026,1.3723358164310455,-0.9067237992852926
1667710505375342600,1.087342529296875,-1.2866875775009392,1.0906035721257328,-0.3849935890763998
1667710505385393400,1.097393310546875,-0.9488836096227169,0.5653396348327397,0.11813552716746925
1667710505395444500,1.107444580078125,-0.6431476816564798,0.24660715491026639,0.7685340567350387
1667710505405495300,1.117495361328125,-0.4384264885783195,0.15817045430541038,1.1285203380659221
1667710505415545300,1.12754541015625,-0.2764145564138889,0.16390110691189766,1.1723328840464353
1667710505425596400,1.137596435546875,-0.028335867646336554,0.6633689241692423,1.0832027943499385
1667710505435647500,1.1476474609375,0.07842530193924903,0.9489251106768846,0.9883324074357748
1667710505445698600,1.157698486328125,-0.24575579877793788,1.0064242367044092,1.3439469034232199
1667710505455748600,1.16774853515625,-0.4735252744883299,1.1570695562019944,1.5333385715529322
1667710505465799700,1.177799560546875,-0.15159166043698788,1.3813149494394659,1.4989396044753491
1667710505475850500,1.1878505859375,0.43833413411974903,1.7120760130688548,1.5693192548640071
1667710505485901600,1.197901611328125,0.9495464574456214,1.8421563911825418,1.540179523488879
1667710505495952600,1.20795263671875,1.4680816710054874,1.7012515444546936,1.4893055146895349
1667710505506002400,1.21800244140625,2.049466431710124,1.5506076862618325,1.3762617577031253
1667710505516053500,1.228053466796875,2.744362420782447,1.4914645924195646,1.2995105264559388
1667710505526104600,1.2381044921875,3.4104350509524344,1.3080527293518185,1.078572796461731
1667710505536155400,1.2481552734375,3.807594294118881,1.0894427116528154,0.8506175889208912
1667710505546206500,1.25820654296875,4.162977757829427,1.048383263772726,0.7630252301856875
1667710505556256500,1.268256591796875,4.293189361107349,1.0681488714724778,0.4811012627005577
1667710505566307600,1.2783076171875,4.069112894695997,0.9894915143430233,0.1777143820784986
1667710505576358700,1.288358642578125,3.703879068100452,0.8698118264734744,0.0037954467602074144
1667710505586409500,1.298409423828125,3.3851977338433263,0.8339908637687563,-0.06863536400459706
1667710505596459300,1.308459228515625,3.122762602943182,0.8910285097643732,-0.21569113457761704
1667710505606510300,1.31851025390625,2.8880940153688193,1.0097890369623899,-0.11456300244294106
1667710505616561400,1.3285615234375,2.6508085232943297,1.0344953159347177,-0.15891016675680875
1667710505626612500,1.338612548828125,2.6224714866042134,0.9355418974906206,-0.33604185357652605
1667710505636663600,1.34866357421875,2.798952089104056,0.791187787091732,-0.45175344153270125
1667710505646713600,1.358713623046875,2.927488452646136,0.6014893911004066,-0.5466880527894944
1667710505656764400,1.368764404296875,2.88059518404603,0.325309227964282,-0.31858211166635153
1667710505666815500,1.3788154296875,2.58627847571671,0.11014321323931217,-0.04153221649099141
1667710505676866600,1.388866455078125,2.0553245100885627,0.1607230613976717,-0.1813484642645344
1667710505686916600,1.39891650390625,1.8699995068758726,0.05867459954768419,-0.8161266327109188
1667710505696967700,1.4089677734375,1.9502666372895239,-0.3229597422286868,-1.180598169697076
1667710505707018500,1.4190185546875,1.8105805187016724,-0.5127694896399975,-1.1352554915398358
1667710505717069300,1.4290693359375,1.4836872364163398,-0.6821902367562055,-1.0624075513415039
1667710505727120400,1.439120361328125,1.0958207222521303,-0.937575741405785,-1.0296893769577145
1667710505737170400,1.44917041015625,0.9901678061693906,-1.0130699583292007,-0.9017449879594147
1667710505747221500,1.459221435546875,1.1528420016348362,-1.1312851266041397,-0.6800020790621638
1667710505757272800,1.46927294921875,1.4613719442337751,-1.4117176864877343,-0.630001272900775
1667710505767324000,1.479323974609375,1.6602046637952326,-1.4370964578941463,-0.47425220052339134
1667710505777374000,1.4893740234375,1.5098668028116224,-1.26873544896394,-0.23674057154282926
1667710505787425000,1.499425048828125,0.7833037558436393,-1.0639853220522404,-0.0565251664288342
1667710505797476000,1.50947607421875,-0.3195195386469364,-0.9144207835286855,0.031120895254984498
1667710505807527200,1.519527099609375,-1.4992705899953842,-0.8414756665661931,-0.09347272201068699
1667710505817578000,1.529577880859375,-2.4415210452139378,-0.836052472473681,-0.04654905827231705
1667710505827628000,1.5396279296875,-2.952927429807186,-0.9994646268248557,0.06495623710043728
1667710505837679000,1.54967919921875,-2.9120570747584105,-1.2024714172005653,0.7087855443455279
1667710505847730200,1.559730224609375,-2.5506296547085046,-1.3753858516514301,1.7383960108481347
1667710505857781000,1.569781005859375,-2.2213012542307378,-1.489076820500195,2.6646558468610047
1667710505867831000,1.5798310546875,-1.9830296737283466,-1.6259771077618002,3.362939432545006
1667710505877882000,1.589882080078125,-1.9818027622818946,-1.7029799756824968,3.6057547939568755
1667710505887933000,1.599932861328125,-2.2605706038236617,-1.6398285229817031,3.561740295663476
1667710505897984000,1.60998388671875,-2.6602807005167004,-1.3353650991693138,3.5500244311675426
1667710505908035000,1.62003515625,-3.042152942702174,-0.7426243933223188,3.692059158708155
1667710505918085000,1.630085205078125,-3.4102632015168663,-0.31264673026800155,3.593683832412958
1667710505928136200,1.64013623046875,-3.7693139555633066,-0.11628420021235943,3.3198812120631334
1667710505938187000,1.65018701171875,-4.0003485705494874,0.1418840670235455,3.131790251268446
1667710505948238000,1.660238037109375,-3.895947115832567,0.45818464362397787,2.956184970298409
1667710505958288000,1.670287841796875,-3.3082769912481305,0.7184484218344092,2.828212085857987
1667710505968339000,1.6803388671875,-2.5534528954356905,0.9649057930104434,2.729754634237289
1667710505978390000,1.69039013671875,-1.7885177399754524,1.1964487959101795,2.776533628807962
1667710505988441000,1.700441162109375,-1.0253957714170217,1.4170837435655295,2.9791470359519123
1667710505998492000,1.710491943359375,-0.22656419157385824,1.651408486138284,3.09594707673192
1667710506008542000,1.7205419921875,0.45940790180861946,1.9164102526560425,2.9893109948307273
1667710506018593000,1.730593017578125,0.8921692042320967,1.9419366158396005,2.802162283322215
1667710506028644000,1.74064404296875,1.2941168507188558,1.822244945271313,2.3583377350926398
1667710506038695200,1.750695068359375,1.7976970717310905,1.7432438892707227,1.8589941287368534
1667710506048745200,1.7607451171875,2.179817151197791,1.6592776120781898,1.5093936323419213
1667710506058796000,1.770796142578125,2.3566917214512824,1.432007610322535,1.148811723205447
1667710506068846800,1.780846923828125,2.3239251778811214,1.1451662063099444,0.6943773720256984
1667710506078898000,1.79089794921875,2.1932588165730236,0.808802281172201,0.3649605626121163
1667710506088949000,1.800948974609375,2.0443670627444983,0.5400111323088407,0.27085955263525247
1667710506098999000,1.8109990234375,1.960637809178233,0.24259466786589473,-0.009271832344681024
1667710506109050000,1.821050048828125,2.12996795540154,-0.1444851894326508,-0.46365284590199585
1667710506119101000,1.831100830078125,2.640274269798398,-0.3741822356721386,-0.9049686261810361
1667710506129152000,1.841152099609375,3.190736068972945,-0.371959810382314,-1.2904787864774465
1667710506139202000,1.8512021484375,3.5017917306572195,-0.2960081685476005,-1.548454599881172
1667710506149253000,1.861253173828125,3.5250352436006067,-0.31350626970678563,-1.7213010836623608
1667710506159304200,1.87130419921875,3.4755081193655726,-0.23015644391216336,-1.5868170637622474
1667710506169355300,1.881355224609375,3.326924408572912,-0.07583112072758376,-1.4899122484110294
1667710506179405800,1.89140576171875,3.1094583002120255,-0.016120456130430103,-1.6973216576598584
1667710506189456000,1.901455810546875,2.939732432669401,0.1402807965453714,-1.9247459731943903
1667710506199507000,1.9115068359375,2.7243191651850935,0.2696681508935988,-2.1188716841086745
1667710506209558000,1.92155810546875,2.581362062102556,0.2789011125326156,-2.2471391675814987
1667710506219609000,1.931609130859375,2.416709844562411,0.3604339520331472,-2.1899153513640166
1667710506229659100,1.9416591796875,2.1824358092635867,0.3978651994787156,-2.181323317977041
1667710506239710200,1.951710205078125,1.962320063176751,0.3928437911201268,-2.3607287218824027
1667710506249761000,1.961760986328125,1.7198773344695568,0.4117551931433379,-2.493287472808361
1667710506259812000,1.97181201171875,1.5141022484242914,0.41661330069899555,-2.4526877513945102
1667710506269863200,1.98186328125,1.239003450784087,0.39845249784737824,-2.380678453977406
1667710506279913000,1.991912841796875,0.8642425019085407,0.3567554827161133,-2.7709721952885387
1667710506289964000,2.001964111328125,0.7208931846380233,0.5394722031265496,-3.1520769602328538
1667710506300014800,2.012014892578125,0.5968523789495229,0.6005848434761166,-3.2649177419930693
1667710506310066000,2.02206591796875,0.5815151090860367,0.5295294857829809,-3.040004532496631
1667710506320116000,2.032115966796875,0.48135436067879195,0.39673049636036156,-2.8125153350323435
1667710506330167000,2.0421669921875,0.3157113785356283,0.3268110838945955,-2.544138539123535
1667710506340218000,2.052218017578125,0.10568214217722416,0.3473027408465743,-2.3324092208489775
1667710506350269200,2.062269287109375,-0.20137363621592522,0.32060536112226545,-2.2684952593430876
1667710506360320000,2.072320068359375,-0.7167921790599823,0.4159824554495513,-2.3864340948946774
1667710506370370000,2.0823701171875,-1.2944020974010229,0.5540694682776928,-2.6428917588204146
1667710506380420900,2.0924208984375,-1.6065174972712992,0.5257274631515145,-2.867905506081879
1667710506390472000,2.102471923828125,-1.9071715919286012,0.31517529889754947,-2.805093952859938
1667710506400523000,2.11252294921875,-2.3981840077906846,-0.14624343127682804,-2.3638889394789935
1667710506410573000,2.122572998046875,-2.916841386425495,-0.5737544119566679,-1.4378358780846
1667710506420624100,2.1326240234375,-3.418553475478291,-0.9740227270543574,-0.7326777304559946
1667710506430675000,2.142675048828125,-3.6581986824214456,-1.2330740607351065,0.15674334411174057
1667710506440726000,2.15272607421875,-3.5348972969233987,-1.719234944912791,0.46453971173912284
1667710506450777000,2.162777099609375,-3.127029028216004,-2.2220403821602464,-0.1701554911315441
1667710506460827100,2.1728271484375,-2.379656417453289,-2.248620199919492,-0.9037336775586009
1667710506470878200,2.182878173828125,-1.9565584309101103,-1.8477755462385712,-1.2715882080465555
1667710506480929000,2.192928955078125,-2.428082886970043,-1.1657570127874612,-1.6232944445490836
1667710506490980000,2.20297998046875,-1.761751898124814,0.2146945978209376,-2.3838231817439195
1667710506501030000,2.21302978515625,3.1043706216841933,1.6395488292574882,-2.3145929936513303
1667710506511081000,2.2230810546875,4.2954888702213765,1.0082647500045596,-0.3894485226586461
1667710506521132000,2.233132080078125,0.6992015773117541,0.34099531126543875,1.9970719353452324
1667710506531183000,2.24318310546875,-1.1641373026311397,0.13285115800127387,3.3868671283602714
1667710506541234000,2.25323388671875,-2.017593037587404,0.2041676508486271,2.5767998687535525
1667710506551284000,2.263283935546875,-2.3318606470555068,1.1653954859986901,1.0549617653802037
1667710506561335000,2.2733349609375,-2.2750994799137114,1.6324882432214916,-0.08705167598724364
1667710506571386000,2.28338623046875,-2.826183794900775,1.9156198329307137,-0.27448680322170255
1667710506581437200,2.293437255859375,-5.092517784556746,2.612871591348946,0.3614946400672197
1667710506591487000,2.303487060546875,-3.2164053477585313,2.653990075939894,-1.664115115237236
1667710506601538000,2.3135380859375,-1.1052607507705687,2.4303309581577777,-3.0004484749168157
1667710506611588900,2.3235888671875,0.31748657151460646,2.46361655716598,-2.3635732976585624
1667710506621640000,2.333639892578125,2.197321828228235,3.055226651547849,-2.1119617585897443
1667710506631691000,2.34369091796875,4.597726434677839,3.689075174461305,-1.727103778591752
1667710506641741000,2.353740966796875,7.330045950967073,4.048980207249522,-1.1536784524589776
1667710506651792100,2.363792236328125,9.977395858240127,4.587705099140107,-1.763827535355091
1667710506661843000,2.373843017578125,11.529525931763649,5.16091795156598,-3.3880379257053135
1667710506671894000,2.38389404296875,11.943016716527938,4.717907642328739,-4.958448336806893
1667710506681945000,2.393945068359375,11.515469349360465,4.394909613916278,-5.648475258538126
1667710506691995100,2.4039951171875,10.697678802025317,4.695948031716048,-5.467980159699916
1667710506702046200,2.414046142578125,10.039380897510052,5.157230787485838,-4.884863460636138
1667710506712097000,2.424096923828125,9.713022452753782,5.591691295042634,-4.159531416767836
1667710506722147800,2.43414794921875,9.217590466883777,5.868309849596023,-3.004215718495846
1667710506732198000,2.444197998046875,8.29023070680499,5.832096380442381,-2.287594219827652
1667710506742249000,2.4542490234375,7.288825467306375,5.466996409359574,-1.913494365209341
1667710506752300000,2.464300048828125,7.057098778402805,5.29087236521244,-1.7407582099348307
1667710506762350800,2.474350830078125,6.595195552647113,5.020180278098583,-1.508176365506649
1667710506772402000,2.48440185546875,5.024430921280384,4.780860942108929,-0.7409229962319135
1667710506782452000,2.494451904296875,3.727398475375771,4.92732780687809,-0.2808814726948738
1667710506792502800,2.504502685546875,3.2626784386336802,5.415981092393398,-0.12681085492372512
1667710506802553900,2.514553955078125,2.9899726736098526,5.666236540678143,0.06173311033546924
1667710506812605000,2.52460498046875,2.3226257857203483,5.645199597868323,0.022691724279522894
1667710506822655000,2.534655029296875,1.0117875903684646,5.360778260609507,0.27341654364168644
1667710506832706000,2.5447060546875,-0.4965479112226516,4.912995914664864,1.2388164037793874
1667710506842756900,2.5547568359375,-0.8204327324070035,4.491402487465739,2.0272961009562014
1667710506852807700,2.5648076171875,-0.5695794643595814,4.556876537895202,3.2259991055339574
1667710506862858800,2.574858642578125,-0.883544876010716,4.672311427801847,4.475998582106828
1667710506872908800,2.58490869140625,-1.7290644111402331,4.95817478056252,4.8178427652865645
1667710506882960000,2.5949599609375,-2.0421695527002215,5.426435266390443,4.432364607563614
1667710506893011000,2.605010986328125,-2.0796268844351173,5.75718054792881,4.015157432624697
1667710506903061800,2.615061767578125,-2.1004677201509474,6.212110427540541,3.5421266636550426
1667710506913112800,2.62511279296875,-1.9130489595293998,6.598557722556591,3.3505607202261682
1667710506923163000,2.635162841796875,-1.7442109807372093,6.933477074909209,3.505392385497689
1667710506933214000,2.6452138671875,-1.76473383654505,7.295815180063247,3.7861458478987213
1667710506943265000,2.65526513671875,-2.067315684394538,7.789106062251329,4.198014292158186
1667710506953316000,2.665316162109375,-2.375394229964167,8.100053002864122,4.329915163697302
1667710506963366000,2.675365966796875,-2.3236884465157983,8.21544580719471,4.395361449337005
1667710506973416700,2.685416748046875,-2.4242528072878717,8.192987891671061,4.520314401434361
1667710506983467800,2.6954677734375,-2.4436861142933366,8.12594147735834,4.723955105799436
1667710506993518800,2.705518798828125,-2.1543232289791105,8.039356249839066,5.179155034524202
1667710507003570000,2.71556982421875,-2.0288696338832377,7.707927662211656,5.766961937230825
1667710507013620000,2.725619873046875,-1.796533142518252,7.363187173068523,6.053592767232656
1667710507023670800,2.7356708984375,-1.3675707939863204,6.84915862327814,5.959065056276321
1667710507033721900,2.745721923828125,-0.7861141370892524,6.265928526967763,6.169337453740835
1667710507043773000,2.75577294921875,-0.641489393055439,5.510900433015823,6.925810485804081
1667710507053822700,2.76582275390625,-1.7006722832620143,3.8242332942306994,7.589301867309212
1667710507063873800,2.775873779296875,-3.052699471157789,2.6572166367709635,9.268890446010232
1667710507073924900,2.7859248046875,-4.343583331304789,1.7437445322692393,11.606183639508485
1667710507083975700,2.7959755859375,-5.03900422103405,0.11131401058435439,13.411728502130508
1667710507094026800,2.80602685546875,-4.477606601825356,-1.4339362402975557,14.547259303480386
1667710507104076800,2.816076904296875,-2.7814684548616406,-2.607742704027891,15.530803892117738
1667710507114128000,2.8261279296875,-1.0061889666438102,-2.6119997769504786,16.893283500444888
1667710507124179000,2.836178955078125,0.8422985272563993,-1.9051491461902856,17.78514115450978
1667710507134230000,2.84622998046875,1.9363526782274245,-1.8251380363643168,16.78999965158105
1667710507144280000,2.856280029296875,2.789131536835432,-1.3921639679729938,15.022299074184893
1667710507154331000,2.866330810546875,3.779868959586322,-0.22634674943089483,12.614521308618784
1667710507164382000,2.8763818359375,4.3967274769932025,0.941699251076579,9.811168354207277
1667710507174433000,2.88643310546875,4.533274713033437,1.8236241246700287,7.251438278198242
1667710507184483800,2.89648388671875,3.8842540476903316,2.3217186077475547,4.964041626769304
1667710507194534000,2.906533935546875,3.2993796913042663,2.9876451074451205,3.470231640267372
1667710507204585000,2.9165849609375,2.709297829402983,3.0527842268317937,2.1225665931038558
1667710507214635800,2.9266357421875,2.0744971203312277,2.7031092038959263,1.2511341796912252
1667710507224686800,2.936686767578125,1.435983820477128,2.5688024402588603,1.040563529932499
1667710507234738000,2.946738037109375,0.8873603426456451,2.534752286618948,0.39158085851222274
1667710507244788000,2.9567880859375,0.6618436142981052,2.3690169500172136,-1.2470040941491722
1667710507254839000,2.966839111328125,1.5371829720214008,1.2830986130982636,-2.1100664463624357
1667710507264889900,2.976889892578125,7.664145803630351,0.4587701884269714,-1.7302730562776325
1667710507274941000,2.98694091796875,12.38195992245674,-0.39378070664405823,-2.0318051028132436
1667710507284992000,2.996991943359375,9.407599243998527,-1.8318711440116167,-1.1581330937802792
1667710507295041800,3.007041748046875,7.791838117563724,-2.14848677791059,-0.12529022122770547
1667710507305092900,3.0170927734375,5.365201337748766,-2.3801298801839352,-1.468186884945631
1667710507315144000,3.02714404296875,4.375549956668913,-2.1663129419803617,-3.104744131171703
1667710507325194800,3.03719482421875,3.9344223924383517,-2.229972636464238,-2.861176782348752
1667710507335244800,3.047244873046875,2.737593365038931,-2.58415256960392,-2.9899089607238767
1667710507345296000,3.0572958984375,1.3765633709982037,-2.7411434587359427,-3.6663825733989475
1667710507355347000,3.067346923828125,-0.14692133053839207,-2.962204961240291,-3.6346027027785777
1667710507365398000,3.07739794921875,-1.398357269655168,-3.3531752866387365,-2.5893402013748883
1667710507375448800,3.08744873046875,-2.506737906011939,-4.222916970485449,-1.2031482935488222
1667710507385499000,3.097498779296875,-2.7916853129714725,-4.4807326248914,-1.3454250131517649
1667710507395549700,3.1075498046875,-3.104879155728221,-4.2878725499987596,-1.3314888422578572
1667710507405600800,3.117600830078125,-4.267616528433561,-4.201661416488886,-0.7085416525870561
1667710507415651800,3.12765185546875,-4.432790139499306,-3.5361604487270113,-1.5160358468353747
1667710507425702000,3.137701904296875,-3.078250676521659,-2.539865684109926,-2.1646704354703425
1667710507435753000,3.1477529296875,-1.7029513341099023,-0.8162965093851089,-2.556218268495798
1667710507445803800,3.1578037109375,-0.4879074355840683,0.794074740704894,-5.833240289780497
1667710507455854800,3.167854736328125,0.8150293389935046,2.634380535584688,-6.307192265248299
1667710507465906000,3.177906005859375,-1.4535399354338645,3.082711163061857,-2.44975988124907
1667710507475956000,3.1879560546875,-3.9835640244871375,2.66645558975935,-2.6558932792127132
1667710507486007000,3.198007080078125,-1.4993021541774272,3.538593228831887,-2.581070970201492
1667710507496058000,3.20805810546875,1.1883587206959725,4.745617487031221,-1.1376876871228216
1667710507506108700,3.218108642578125,5.022243055847287,5.7182548972070215,0.6816518920958041
1667710507516159700,3.22815966796875,5.635784703791141,3.994579924020171,3.268051948365569
1667710507526209800,3.238209716796875,4.702863217931985,1.614028019031882,4.135111261260509
1667710507536260900,3.2482607421875,4.595310021185875,0.3223866185158491,4.027670292717218
1667710507546312000,3.25831201171875,3.906055837392807,-1.27965519464612,4.211345775157213
1667710507556362800,3.26836279296875,4.332798902440071,-2.3214169944524765,3.2114445104807614
1667710507566412800,3.278412841796875,4.845875850594044,-1.7897592644691467,1.8339725002050398
1667710507576464000,3.2884638671875,3.4069209053516385,-0.2816828522056341,0.7148527354300022
1667710507586515000,3.298514892578125,-0.18977906001210212,1.3709715423405169,-0.1632616399645805
1667710507596566000,3.30856591796875,-2.951668369656801,3.639152036646008,-2.3209563912034032
1667710507606617000,3.3186171875,-2.594797882258892,5.527872026082873,-4.266458006048202
1667710507616667000,3.3286669921875,-1.5483412026345729,5.412691987720131,-3.6543414224714037
1667710507626717700,3.3387177734375,0.41711832761168477,5.0031765363276,-2.7171336375951767
1667710507636768800,3.348768798828125,3.4706326222836967,4.672617132750153,-2.5091373683691023
1667710507646819800,3.35881982421875,2.787875983816385,3.507116140550375,-0.22947861771583555
1667710507656871000,3.368870849609375,-1.1667173822522163,4.2760500102579595,1.8541472732275723
1667710507666921000,3.3789208984375,-3.3318332234025,6.984508758488297,1.057592990666628
1667710507676972000,3.388971923828125,-5.638999574184417,6.1431625635206695,-0.2924275335818529
1667710507687022800,3.39902294921875,-5.773645360517501,1.5667501350283621,-0.02972761426568031
1667710507697074000,3.409073974609375,-4.22962961986661,-1.1014607739657163,0.40572190432846544
1667710507707123700,3.419123779296875,-4.326988754856586,-1.2464677953153849,-1.457507670021057
1667710507717174800,3.4291748046875,-3.2011902429699894,0.019615970095992086,-0.43646483311653134
1667710507727225900,3.439225830078125,-3.370168507015705,0.44638183149695393,0.793379159656167
1667710507737276700,3.449276611328125,-3.259260154622793,-0.7145873624920844,1.0932079094052314
1667710507747327700,3.45932763671875,-3.3052631963849066,-1.565487567746639,2.0655811156868933
1667710507757377800,3.469377685546875,-6.086290337219834,0.5634989754021168,2.90650002515316
1667710507767428900,3.479428955078125,-4.175471913221478,2.242759637323022,2.944801406496763
1667710507777480000,3.48947998046875,-3.3789503638863563,1.5476321775823831,1.5303168856441973
1667710507787531000,3.499531005859375,-2.779625457343459,1.170173660185933,-0.2712824542224407
1667710507797581800,3.509581787109375,-1.4535902043163775,1.0577151557415723,-1.1196855819642544
1667710507807632000,3.5196318359375,-0.3093185356933623,0.5207885454446077,-1.6600392441004514
1667710507817683000,3.529682861328125,0.6679753219861537,-0.32330256431698795,-2.024796100834012
1667710507827734000,3.539734130859375,1.2560586304813623,-1.2169956171154974,-2.6821698762416837
1667710507837785000,3.54978515625,1.308668084771186,-2.0629531052708625,-3.471287286800146
1667710507847835000,3.5598349609375,1.6520583283491432,-2.01092422734797,-4.395769445616007
1667710507857886000,3.569885986328125,2.282442390022427,-1.5945774686306715,-4.691621108427643
1667710507867936800,3.579936767578125,1.3025731288969515,-2.249972637441754,-3.3564421794801946
1667710507877987800,3.58998779296875,-1.1683743556790054,-2.637827168907225,-2.8143343671530485
1667710507888039000,3.600038818359375,-0.9025349692933261,-1.357955701161921,-4.847196870064735
1667710507898089000,3.6100888671875,-0.9812665607027709,-0.3056485419437289,-5.5474096702456475
1667710507908140000,3.62014013671875,-0.5807327265366912,-0.05097235460728407,-7.193929507559537
1667710507918190800,3.63019091796875,0.39352556283921003,0.3739107617869973,-8.478625618982315
1667710507928242000,3.640241943359375,1.155717849332094,1.1407765930488705,-7.772650602012872
1667710507938293000,3.65029296875,2.2718843172594902,1.0470283420324324,-5.787666871607303
1667710507948342800,3.6603427734375,2.7436799914762378,-0.42861499639898537,-3.868570448607206
1667710507958393900,3.670393798828125,3.077777798312902,-1.6849100659847258,-2.7944904335200786
1667710507968445000,3.68044482421875,2.94922682172358,-2.2305431298285723,-2.4129402628958223
1667710507978495700,3.690495849609375,2.190514486300945,-2.491118896597624,-2.4631845954895017
1667710507988546800,3.700546875,0.5944511630266904,-3.515921962818503,-1.7834686398923396
1667710507998596900,3.710596923828125,2.494199034695327,-3.2778175555765627,-0.8928811518937348
1667710508008648000,3.72064794921875,3.210447316136956,-3.3555312021151185,0.4883505031764507
1667710508018699000,3.730698974609375,1.757201102952659,-3.1537428476184606,1.2459411410927772
1667710508028749800,3.740749755859375,0.1408250594899058,-1.9227271807178854,1.865147975191474
1667710508038800100,3.750800048828125,0.6992278807967901,-0.49434097576290364,3.023514293205738
1667710508048851000,3.760850830078125,0.9519754381582141,0.621869331306219,4.38778136947155
1667710508058902000,3.770902099609375,1.7408564096122978,1.0558622213512658,5.273105822375417
1667710508068952800,3.780952880859375,2.5329496211111544,0.7205044775813818,5.379485883688926
1667710508079004000,3.79100390625,3.3535853287443516,0.016424480578303337,4.684343226379156
1667710508089054000,3.801053955078125,2.5366326935380696,-0.17240940753817557,3.849273042941093
1667710508099104800,3.811104736328125,2.2517799791246653,0.3422667925059795,3.951615811562538
1667710508109155800,3.82115576171875,2.7440079082563518,-0.5277338345378637,3.419249641048908
1667710508119207000,3.83120703125,3.7258936237707734,-2.637593652412295,1.5527917523026467
1667710508129258000,3.841258056640625,3.732924545320868,-3.3360715916246173,0.6216168178498744
1667710508139308000,3.85130810546875,0.5566676680773496,-1.8825246419280766,2.283352928996086
1667710508149359000,3.861359130859375,2.248169679673016,-0.11965572247207164,3.692446988981962
1667710508159410000,3.871409912109375,7.38006991880834,2.4016905546069145,5.88957650950849
1667710508169461000,3.8814609375,8.82783711605966,4.26797308678627,7.457510301363468
1667710508179512000,3.891511962890625,5.589433286982774,4.075273170891404,6.487686779564618
1667710508189561900,3.901561767578125,3.5675802538633343,2.1350614791482685,4.812869068527221
1667710508199613000,3.911613037109375,3.0077690270632504,0.5081354000985622,3.3379835627257823
1667710508209663700,3.921663818359375,3.010971622496843,-0.5075374342054129,2.708753639523685
1667710508219714800,3.93171484375,2.3965211891449987,-1.176470129981637,3.1647283520132303
1667710508229764900,3.941764892578125,1.5711984927393494,-2.002141201433539,4.537321358075737
1667710508239816000,3.95181591796875,0.8761831150710582,-3.2657460095107553,6.405142351868748
1667710508249867000,3.961866943359375,0.15503332532346248,-2.6979332625627515,6.393586938631534
1667710508259918000,3.97191796875,-0.521636686706543,-2.1553063947975635,5.641744488978386
1667710508269969000,3.981968994140625,-0.9608815059304237,-2.1824755567520855,4.816296412627398
1667710508280018700,3.992018798828125,-0.8377057195734232,-2.4754548789978026,3.7500972139179702
1667710508290069800,4.00206982421875,-0.3834627262473106,-2.4490648847222327,2.869485468749702
1667710508300120800,4.012120849609375,-0.43395021994709965,-2.896930817297101,2.0252096500709653
1667710508310172000,4.022171875,-0.6145259828060865,-3.0756787802070376,1.5123866766780614
1667710508320223000,4.032222900390625,-0.40000001955032344,-3.018760376676917,0.997727354703471
1667710508330273000,4.04227294921875,0.8436649933040141,-1.3505173678547142,0.48312889607064424
1667710508340323800,4.05232373046875,3.204922999757528,2.302222464638948,0.3989489761274308
1667710508350375000,4.062375,4.2174902692615985,9.018367286700009,1.3696189586877823
1667710508360426000,4.072426025390625,2.3759854738555846,20.178015949976444,-0.3182193427685648
1667710508370477000,4.08247705078125,0.7395395790494979,27.85778017849922,-4.763988133241236
1667710508380527000,4.092527099609375,0.40401203167065974,29.176459223544597,-5.450398325780034
1667710508390578000,4.102577880859375,-0.7524632118999958,22.179056496691704,-1.6779826048091053
1667710508400628700,4.112628662109375,-1.7380153409674763,9.548654897373915,4.5164702932268375
1667710508410679800,4.1226796875,-3.612368659138679,0.3073801880419254,3.9364553595706817
1667710508420729900,4.132729736328125,-5.476018504726887,-3.772927469885349,-1.211520985096693
1667710508430781000,4.142781005859375,-5.3239656565189355,-4.884815529841184,-3.575494095727801
1667710508440832000,4.15283203125,-4.832542029507458,-5.044564193248749,-4.502210589466989
1667710508450882800,4.1628828125,-4.973725985437631,-5.505604080173373,-5.652936914122105
1667710508460934000,4.172933837890625,-5.262137853637338,-5.799245081198215,-6.049279580208659
1667710508470984000,4.18298388671875,-5.368211625480652,-5.654295342993736,-5.1887189816832535
1667710508481035000,4.193034912109375,-5.27709050809741,-5.331327709719538,-4.217869623968005
1667710508491086000,4.203086181640625,-5.17624879168868,-5.077677942821383,-3.5763813999563454
1667710508501137000,4.213136962890625,-5.095387202513217,-5.289233365833759,-2.814105819094181
1667710508511188000,4.22318798828125,-5.419314036208391,-5.643012316957115,-2.951961799645424
1667710508521237800,4.23323779296875,-5.991190379333496,-5.803994321551919,-3.669100892446935
1667710508531288800,4.243288818359375,-6.335607043349743,-6.036645139563083,-3.9387665591225027
1667710508541340000,4.25333984375,-6.135639766800403,-6.32746231533885,-3.8526638544231653
1667710508551391000,4.263390869140625,-5.626231862547994,-6.366196242880821,-3.5246088348820805
1667710508561441000,4.27344091796875,-5.324668836352229,-6.390325891008973,-3.0783409851536154
1667710508571491800,4.283491943359375,-4.832198330636322,-6.491189234727621,-3.1025591883480548
1667710508581543000,4.29354296875,-3.811404792317748,-6.30194793485403,-3.1458298825368285
1667710508591594000,4.303593994140625,-2.361291324201226,-5.620034761473536,-2.8773803136527536
1667710508601645000,4.31364501953125,-0.40548517296314235,-4.5983857753694055,-2.642439338877797
1667710508611694800,4.32369482421875,3.5579207373753188,-2.9752339541614052,-2.214996893389523
1667710508621746000,4.333745849609375,7.760604190388322,-1.044416113707423,-0.6879390095412731
1667710508631796700,4.343796630859375,9.796786193111538,2.468139003026485,2.9837951540186998
1667710508641847800,4.353847900390625,11.828305464720726,9.130311996403336,5.7611120421588415
1667710508651899000,4.36389892578125,12.352637966382503,15.272825156104563,6.053803195112943
1667710508661949000,4.373948974609375,7.978258514797687,13.842133012294768,4.831047699296474
1667710508672000000,4.384,4.72411526479721,5.3144595770269625,3.411345443795621
1667710508682050800,4.39405078125,2.4896719126597047,-1.6743308043032883,2.9538889683157206
1667710508692102000,4.404101806640625,1.728763820758462,-4.439041016587614,2.367955166004598
1667710508702153000,4.414153076171875,3.5109488505810496,-4.309872200360894,0.5158838953334838
1667710508712203000,4.424203125,5.533798493522405,-3.824095347064733,-1.0813521980471907
1667710508722253800,4.43425390625,6.260905730369687,-1.0938538060933352,-1.066272556206584
1667710508732305000,4.444304931640625,6.2933145465433595,4.084243828332424,-1.4347104395404457
1667710508742355700,4.454355712890625,6.330369142696261,11.013467921972275,-1.7006687761306762
1667710508752405800,4.46440576171875,-2.327935582566261,14.218667985105514,-0.558923630310595
1667710508762456300,4.474456298828125,-14.619479321038723,8.275496079009772,-4.029521181280911
1667710508772507400,4.48450732421875,-12.127390118104218,-1.958009798762202,-4.922298580539226
1667710508782558500,4.494558349609375,-5.815287868982553,-10.077902059084176,-1.9433412219405173
1667710508792609500,4.504609619140625,1.575279186181724,-10.017865815794467,-7.336462247750163
1667710508802659600,4.51465966796875,-3.758912096275389,-10.209151773238181,-4.272293872594833
1667710508812710400,4.52471044921875,-15.85329630909562,-8.380860241279006,0.1082809264987707
1667710508822761500,4.534761474609375,-16.08558180092573,-4.512347660338879,-3.721684773904085
1667710508832812500,4.5448125,-11.279684909498691,-0.36666298261582847,-8.771168303376436
1667710508842863600,4.554863525390625,-6.724882839789986,3.1982062587231397,-9.133170308443903
1667710508852913700,4.56491357421875,-3.072917791061103,6.620643297636509,-6.678497520712018
1667710508862964500,4.574964599609375,-2.4149670925483107,10.07390392935872,-3.238562234508991
1667710508873015300,4.585015380859375,-3.9940523930147287,12.59675418125987,0.8343503447309136
1667710508883066400,4.59506640625,-5.643341402781009,12.90863869498372,3.732432377889752
1667710508893116400,4.605116455078125,-5.888431431126595,11.110379313194752,4.778168926545978
1667710508903167500,4.61516748046875,-3.85436101372987,6.5974646666228765,2.653239257572591
1667710508913218600,4.625218505859375,-1.7396520022585986,2.0301795474380255,-0.29364940352700647
1667710508923269600,4.63526953125,-1.2725136523284017,-0.8606225578457116,-1.167118948790431
1667710508933320400,4.645320556640625,-2.0032887640334667,-2.725150939834118,-1.9205331778049468
1667710508943370500,4.65537060546875,-3.1596283985257148,-2.6437100894659755,-3.064807257580757
1667710508953421600,4.665421630859375,-2.8958664029359817,-3.1948177853286266,-2.841194609288871
1667710508963472600,4.67547265625,-1.6872317869305609,-3.6416543748557566,-2.500268417736888
1667710508973523700,4.685523681640625,-0.04950082074999809,-4.071377332496643,-2.179414123354852
1667710508983574300,4.69557421875,0.8918518088459968,-4.176896393066644,-1.8819013954631982
1667710508993624600,4.70562451171875,1.2394973717808724,-3.961702905812859,-1.590217519855499
1667710509003675400,4.71567529296875,0.8969809884279966,-3.518430146247148,-1.1032610283207147
1667710509013726500,4.7257265625,0.3160240977466106,-2.843514868929982,-0.4395674022417515
1667710509023777500,4.735777587890625,0.03095978640913963,-1.6725345685362816,0.3575391804397106
1667710509033828600,4.74582861328125,0.6569809036325663,-0.3071381959795952,0.9033869099475443
1667710509043878700,4.755878662109375,2.0677409240692852,0.68412149707973,0.8305009758263826
1667710509053929500,4.765929443359375,3.4462954688847063,1.1979378654241561,1.1084219912804663
1667710509063980500,4.77598046875,4.234113487282395,1.3638333610236644,1.469375948599726
1667710509074031600,4.786031494140625,4.120355590677261,0.906421016946435,1.937195704922825
1667710509084082700,4.796082763671875,3.440388875189423,-0.08095102102458476,2.459678048673272
1667710509094132500,4.806132568359375,2.9418203448593614,-0.9792448456168175,2.797559173440933
1667710509104183600,4.81618359375,2.719464126369357,-1.2901853564888237,2.7190006005108356
1667710509114234400,4.826234375,2.747895855605602,-1.0383370860546828,2.2762965807437894
1667710509124285400,4.836285400390625,2.9578093566298485,-0.6876952639132737,1.8907237304747104
1667710509134335500,4.84633544921875,3.114703799650073,-0.4274707947999239,1.7600580998189745
1667710509144386600,4.856386474609375,2.9888311023592946,-0.1717547430217266,2.042390209713578
1667710509154437600,4.866437744140625,2.283999702467024,0.016864041039347646,2.566048173114657
1667710509164488400,4.876488525390625,1.1429004533350466,0.4708317976206541,3.000024696546793
1667710509174539500,4.88653955078125,0.23663316564559936,1.1524176387429237,3.18863821991086
1667710509184589300,4.89658935546875,0.2972051232472062,1.546487099200487,3.2613942440420387
1667710509194640400,4.906640380859375,1.1650661079138516,1.6442969005674122,3.6868227193593976
1667710509204691500,4.91669140625,2.6133891854822635,1.7082202144235372,4.474527925032377
1667710509214742500,4.926742431640625,4.1765109008803964,1.9960849701344965,5.43319058586955
1667710509224793300,4.93679345703125,4.6940047886937855,3.0053046827763317,5.60727172601223
1667710509234843400,4.946843505859375,4.183272650100291,4.141509437865019,4.519704745103419
1667710509244894500,4.95689453125,3.82920202255398,4.554246773913502,2.698959975261986
1667710509254945500,4.966945556640625,4.06857601134032,4.487011559030413,0.7236682023093104
1667710509264996600,4.97699658203125,4.7807358544245355,4.2071003926724195,-1.2599746348813174
1667710509275047400,4.98704736328125,5.756061773031949,3.7785862262994048,-2.8482740461558103
1667710509285097500,4.997097412109375,6.437508497944473,3.4677275484919545,-3.4614746255770323
1667710509295148500,5.0071484375,6.537934619289636,4.108454725003242,-1.9535633407473563
1667710509305199400,5.017199462890625,6.115740303587913,6.201320153456926,1.3913850925549864
1667710509315250400,5.02725048828125,5.239083725786209,7.595757911580801,3.4696596855983137
1667710509325301500,5.037301513671875,4.4495618260800835,7.93573220923543,4.875012805490195
1667710509335351600,5.0473515625,3.9596640934616323,7.796568653216958,6.538695666790008
1667710509345402400,5.05740234375,2.764574603205919,6.728178958725929,7.896039081272482
1667710509355453400,5.067453369140625,0.5854191307872534,5.172065953046083,8.163081413707136
1667710509365504500,5.07750439453125,-0.8877730150997638,3.5893911036550996,6.6376996463775635
1667710509375554600,5.087554443359375,-0.34062180177792906,2.213946799814701,3.792547823895514
1667710509385605600,5.097605712890625,1.9764030951954423,1.8485750260531901,1.5560981003716587
1667710509395656700,5.10765673828125,2.5735855828821657,2.7173294524282214,0.43552989035397766
1667710509405707500,5.11770751953125,-0.5562484928172081,4.00038071925342,-0.532446980664879
1667710509415758600,5.127758544921875,-3.711923258346319,5.054100667878985,-1.8041487320885061
1667710509425808400,5.137808349609375,-5.137801279872655,5.92422872069478,-2.477604458247125
1667710509435859500,5.147859375,-5.35596238476038,6.315013168132305,-2.7702845052853227
1667710509445910500,5.15791064453125,-4.800754267841577,6.358741835221648,-2.910073791986704
1667710509455961300,5.16796142578125,-3.9048739341318606,6.252340146598219,-3.1135254035204647
1667710509466012400,5.178012451171875,-3.1471745751440525,5.891470360431075,-3.1832419138252734
1667710509476062500,5.1880625,-2.33653506860733,5.327977814769745,-3.068742258942127
1667710509486113500,5.198113525390625,-1.3890180711627005,4.747931024670601,-2.7275875193312764
1667710509496164600,5.20816455078125,-0.536266173626855,4.203533055579662,-2.415782646714896
1667710509506215700,5.218215576171875,-0.18312851608172057,3.3884313089370726,-2.4520988455906507
1667710509516266500,5.2282666015625,-0.7099826451756059,2.3931600421488284,-2.609257784765959
1667710509526316300,5.23831640625,-1.7368660248018801,1.404662799540162,-2.7854563554540275
1667710509536367400,5.248367431640625,-2.813423389787972,0.4044458930432796,-2.638541454656422
1667710509546418400,5.25841845703125,-3.6258702380076047,-0.4761468551635742,-2.2079344076573846
1667710509556469500,5.268469482421875,-4.033265336245298,-1.1633183874636888,-1.707614357484877
1667710509566519600,5.27851953125,-4.160346532543003,-1.6336510033905505,-1.7565587133958935
1667710509576570600,5.288570556640625,-4.373239926160871,-2.4574954439371823,-2.386535947833955
1667710509586621400,5.298621337890625,-4.623977605004608,-3.368055460384488,-2.3193185608685014
1667710509596672500,5.308672607421875,-4.757991523174941,-4.221880028653144,-2.2195912354424596
1667710509606723600,5.3187236328125,-4.930972300860286,-4.976057058733701,-2.192609705014527
1667710509616773600,5.328773681640625,-5.019395849722623,-5.5143567109495395,-2.158968132175505
1667710509626824700,5.33882470703125,-5.085202493107318,-5.863394020503759,-2.1187638398200273
1667710509636875300,5.348875244140625,-5.04789889062941,-6.062185823532938,-2.16585906073302
1667710509646926300,5.35892626953125,-4.90106640741825,-6.1283729906678195,-2.1861013460338112
1667710509656977400,5.368977294921875,-4.782851823665202,-5.999131693726778,-2.238283660952747
1667710509667027500,5.37902734375,-4.873714874634146,-5.732921720463037,-2.2864050100430844
1667710509677078500,5.38907861328125,-5.076057648143172,-5.405406506887078,-2.15762519313395
1667710509687129600,5.399129638671875,-5.176279771348834,-5.126124286082387,-1.9298434424638746
1667710509697180400,5.409180419921875,-5.164325129660964,-4.961790048450231,-1.6115490616977215
1667710509707231500,5.4192314453125,-4.901138011349738,-4.741221297898888,-1.077039157153666
1667710509717281500,5.429281494140625,-4.298213911271095,-4.402017400094866,-0.4878954528853297
1667710509727332600,5.43933251953125,-3.2482594526588913,-4.030801576480269,-0.08250482633784413
1667710509737383700,5.4493837890625,-1.510908420819044,-3.602289163672924,0.6645797612637281
1667710509747434500,5.4594345703125,1.1382920827567578,-2.9896278056949375,1.5944132179796695
1667710509757485300,5.4694853515625,3.663751640373468,-1.9608581739306448,2.0008166748315093
1667710509767535600,5.47953564453125,4.237067953173816,-0.14721300696134568,2.1095652188420293
1667710509777586700,5.489586669921875,4.26505369220823,2.080232741373777,0.9240574305977671
1667710509787637800,5.4996376953125,5.673238528394699,2.9064053326070307,-0.9878712196648121
1667710509797688800,5.509688720703125,5.509034639143944,1.401316996243596,-0.1000630236538127
1667710509807739600,5.51973974609375,3.9065392369955774,-0.6201338858157396,1.1308104948297142
1667710509817789400,5.52978955078125,3.0186721138715744,-2.176478946685791,1.8698317490935326
1667710509827840500,5.539840576171875,2.814824196496606,-3.0853122854709625,2.486095807738602
1667710509837891600,5.5498916015625,3.2139374963402747,-3.6300539534330367,2.2043870904393494
1667710509847942700,5.559942626953125,4.546363911709189,-3.7199119190126657,1.5712698044098912
1667710509857992700,5.56999267578125,5.233514401221275,-2.9972254212170837,2.383160333921015
1667710509868043800,5.580043701171875,-2.1463243391796945,-2.801532168725133,3.5744416640654206
1667710509878094600,5.590094482421875,-13.143515956872701,-3.4124171646803614,0.76831478796117
1667710509888145700,5.600145751953125,-10.489691885149478,-2.679782688844204,-5.564353206261992
1667710509898196700,5.61019677734375,-3.135132547433674,2.3346569997757673,-12.702150492233038
1667710509908246500,5.62024658203125,2.0979346945419906,8.982998451676965,-17.201403693199158
1667710509918297600,5.630297607421875,6.9570683783769605,14.171263259851932,-10.96707325054407
1667710509928348400,5.640348388671875,-0.43268502231687306,11.360166559445858,-8.316951540470123
1667710509938399500,5.6503994140625,-9.484996956455706,2.516000824397802,-5.4038119311720125
1667710509948450600,5.660450439453125,-10.177475362992286,-2.3353742081344127,-3.8353015084728597
1667710509958500600,5.67050048828125,-8.858808008384704,-3.636442777687311,-5.017754512256384
1667710509968551700,5.6805517578125,-7.215153497374057,-2.4877567266881466,-5.866168161392212
1667710509978602800,5.690602783203125,-6.384310576242208,-0.21899697118997571,-4.618082994008064
1667710509988653600,5.700653564453125,-5.97743657926917,2.4042805711001156,-2.7688518421337007
1667710509998704600,5.71070458984375,-4.878851068478823,4.861071081638336,-1.7867632975235581
1667710510008754700,5.720754638671875,-3.900912044763565,6.877450651782751,-0.7864004797499626
1667710510018805800,5.7308056640625,-4.278334321802855,8.70626065465808,1.1910496402803807
1667710510028856600,5.740856689453125,-5.373432574999332,9.180108585229515,3.8644574603304265
1667710510038907600,5.75090771484375,-5.281169301843643,8.362043897128105,6.091447573852538
1667710510048958500,5.76095849609375,-3.1593045733988285,6.529524518340826,6.82484075910151
1667710510059008500,5.771008544921875,-0.15645780516862867,4.275951810580492,6.412165382373333
1667710510069059600,5.7810595703125,1.277410046067834,1.9166426001071928,5.21858571215868
1667710510079110700,5.791110595703125,1.1828601232796907,0.16960311794579028,4.094139783924818
1667710510089161700,5.80116162109375,0.8477022859960794,-1.4137906933695077,3.9022646284162996
1667710510099212500,5.811212646484375,0.5910732840914279,-2.9496570298343894,4.135319351053238
1667710510109262600,5.8212626953125,0.9174053522974253,-4.232103316503763,3.5212902118533846
1667710510119313700,5.831313720703125,1.8944073874235152,-4.491391966071725,1.6076469396926463
1667710510129364700,5.84136474609375,3.459998415544629,-3.3900779071003195,-0.8970365180075168
1667710510139415800,5.851415771484375,5.208839394170045,-1.50677585105896,-2.5565567066699266
1667710510149465600,5.861465576171875,6.174256205442547,-0.2942202622175217,-2.654427006052434
1667710510159516700,5.8715166015625,6.938850584641099,-0.23179215535521505,-1.5446005548015236
1667710510169567500,5.8815673828125,8.150856138384341,-0.8021072405129671,-0.6871070887617766
1667710510179618600,5.89161865234375,9.251981396785379,-1.676619792023301,0.1219534780204296
1667710510189669600,5.901669677734375,9.366011680591106,-2.418742811694741,1.4005571177870035
1667710510199720700,5.911720703125,8.646563434064388,-2.920478281623125,2.68052649294883
1667710510209770800,5.921770751953125,7.918807962441444,-3.1642507976293563,3.7201112409770487
1667710510219821600,5.931821533203125,7.519236397436261,-3.036077422180772,4.53619907604754
1667710510229872600,5.94187255859375,7.549464362439513,-2.5521178474396464,5.01343431096971
1667710510239923700,5.951923828125,7.639905096343159,-1.7515210114896296,5.594615073534846
1667710510249973500,5.961973388671875,7.627396912425756,-0.9607821372091769,6.136012107244134
1667710510260024600,5.972024658203125,7.5272197974056,-0.3635468964219093,6.723935914328694
1667710510270075600,5.98207568359375,7.194862404495478,0.2015706200927496,7.48896868494451
1667710510280126500,5.99212646484375,6.444074432331323,0.8043763544887303,8.269645014894008
1667710510290177500,6.002177490234375,5.183590386623144,1.3746294803261756,8.67076790099442
1667710510300227600,6.0122275390625,3.8923821168273687,1.9352151986300945,8.13746824902296
1667710510310278700,6.022278564453125,3.8065643665492535,2.379758124262094,6.60881608172059
1667710510320329700,6.032329833984375,5.952964985835552,2.6237077504009005,4.636426752211153
1667710510330380800,6.042380859375,9.092811994570493,2.9829958203345535,3.5288676613703367
1667710510340431600,6.052431640625,10.50602693387866,3.881060512346029,4.735113044151664
1667710510350481400,6.0624814453125,10.105969631183147,5.312998272302746,5.811544590801001
1667710510360532500,6.072532470703125,9.10346724409759,7.620405446103215,5.971875438010692
1667710510370583600,6.08258349609375,6.8118813242852685,11.064831029462814,3.7782413583844896
1667710510380634600,6.092634521484375,1.958737528514862,14.343683188784121,-1.1740215677857397
1667710510390685400,6.102685546875,-4.430753080713749,14.674073665535449,-6.175514681071043
1667710510400735700,6.11273583984375,-10.082660067266225,11.324517738437653,-7.8169830802142615
1667710510410786600,6.12278662109375,-12.145815417110919,8.028359055006504,-6.333974473711848
1667710510420837600,6.132837646484375,-10.086464135724306,7.649636801284551,-6.571667962065339
1667710510430888700,6.142888671875,-6.70109689053297,9.535746315962076,-8.88254076614976
1667710510440939800,6.152939697265625,-2.7563901277065277,12.086515671402216,-10.278543873894215
1667710510450989800,6.16298974609375,0.11341726647391914,13.356428055191039,-9.614017888644337
1667710510461040600,6.17304052734375,1.3636195721425115,12.385981433057784,-6.440510602369904
1667710510471091500,6.183091552734375,0.681451839479059,10.023998619461059,-3.275031139728427
1667710510481142500,6.193142578125,-0.9624515317261219,8.598790460020304,-1.1738523486986756
1667710510491193600,6.203193603515625,-1.7792459076307714,8.309115440016985,0.052387116776034234
1667710510501243600,6.21324365234375,-2.264646036569029,7.54262487180829,-0.0350890682335943
1667710510511294700,6.223294677734375,-2.4921675288677214,5.762305051335692,-0.25018556138630954
1667710510521345500,6.233345458984375,-2.712890008676052,3.395453754919767,-0.7926578596442937
1667710510531396600,6.243396728515625,-2.762467986315489,1.090799094697833,-0.7878089583083987
1667710510541447700,6.25344775390625,-3.0488124005913733,-0.9502151504874229,-0.8851070107609033
1667710510551497700,6.263497802734375,-3.6506399376049634,-2.747082785657048,-1.1089748028576374
1667710510561548800,6.273548828125,-4.209825725983083,-4.3942303994804615,-1.3240800273060798
1667710510571599600,6.283599609375,-4.622922835254669,-6.0290522002160545,-1.6143506751149892
1667710510581650700,6.293650634765625,-4.978523741108178,-7.620807012641429,-1.7906927459269761
1667710510591701500,6.303701416015625,-5.3828690963864325,-9.229874194395542,-1.8639198947012423
1667710510601751600,6.31375146484375,-5.340626868462563,-11.047124692380427,-1.737987868438661
1667710510611802600,6.323802734375,-4.991095637911558,-12.81108199159503,-1.793488514125347
1667710510621853700,6.333853759765625,-3.9042458653613923,-14.503512516212462,-1.949936674682796
1667710510631904500,6.343904541015625,-2.7750433902502056,-16.01838750257492,-2.144167745667696
1667710510641955600,6.35395556640625,-2.8691093289136886,-17.117232541084288,-2.5825232148364186
1667710510652005600,6.364005615234375,-3.1722295214235783,-17.68684093927741,-4.303894879516959
1667710510662056700,6.374056640625,-2.0760022641971707,-17.663837664830684,-6.418445485556125
1667710510672107800,6.384107666015625,-0.21050036100149153,-17.396473845356702,-7.192305705749988
1667710510682158600,6.39415869140625,1.744453849582374,-16.299914287436007,-6.053893796005845
1667710510692209700,6.404209716796875,2.749384048336744,-14.454499186718463,-3.8709325015634297
1667710510702259500,6.414259521484375,2.975157674054801,-12.211511001336573,-0.6731660224970429
1667710510712310500,6.424310546875,1.8643404582008718,-9.330821124744414,5.177910587421059
1667710510722361600,6.434361572265625,6.071960783094167,-6.048261343076825,8.628802151924372
1667710510732412700,6.44441259765625,29.192180524289608,-1.3674077123790978,6.880256356853247
1667710510742463500,6.45446337890625,35.861554242825505,4.8787329950571054,-3.4965830560982227
1667710510752513500,6.464513427734375,0.5591280668415128,13.311908529984951,-15.394389342546463
1667710510762564900,6.47456494140625,-25.68259185614586,13.92637196894884,-17.40028375903368
1667710510772616000,6.484615966796875,-21.799933260953424,21.25698724423647,-19.063227492403982
1667710510782667000,6.4946669921875,-16.50958930352926,20.631705474138258,-14.539541276448965
1667710510792717800,6.5047177734375,-14.321312367022037,9.468536820042132,-5.96460632379055
1667710510802768000,6.514767822265625,-13.791197774827479,0.8060843274503946,-2.3431723146647214
1667710510812819000,6.52481884765625,-13.124789044570923,-3.2417747668147086,0.4406257521882653
1667710510822870000,6.5348701171875,-11.916166119003295,-4.557936276081204,1.5525161502316593
1667710510832921000,6.544921142578125,-9.957335066986083,-3.339947556275129,1.8161100957781076
1667710510842972000,6.554971923828125,-7.7382292769730086,0.2710907310426235,1.6640619237452745
1667710510853022000,6.56502197265625,-0.1298001364002004,8.70424288509488,2.318695168273151
1667710510863072800,6.57507275390625,12.073960141211748,22.412081993234157,4.382638745886087
1667710510873123800,6.585123779296875,9.8221281396389,24.670737703347204,7.014900389620661
1667710510883175000,6.5951748046875,1.003199721699953,13.022912724417447,6.9763926720499985
1667710510893226000,6.60522607421875,-2.5456033509790896,4.8744694923937315,4.101609096892178
1667710510903276000,6.615276123046875,-2.9386598350018263,1.1284481496125458,2.2449653306737543
1667710510913327000,6.6253271484375,-1.0952087278336287,-0.8440922788053751,0.5233510894089937
1667710510923378000,6.6353779296875,1.9878864661097526,-0.4950561382949352,-1.14194782878533
1667710510933429000,6.645428955078125,5.8029924510329955,0.9820528887748717,-2.7357182188168165
1667710510943480000,6.65547998046875,8.834262765192985,1.4020084856390953,-3.1669451512798665
1667710510953529900,6.66552978515625,10.124805264556407,1.076883966591954,-2.0806781470537183
1667710510963581000,6.675580810546875,9.800509597548842,0.8330734566628932,0.2137979412421584
1667710510973631700,6.6856318359375,9.84377999947667,0.7478074950486421,3.130923989827931
1667710510983682800,6.695682861328125,10.698172138500214,0.4165151010215282,5.245614004337788
1667710510993734000,6.70573388671875,11.797325804567336,-0.4876163436830043,6.020889936548471
1667710511003784000,6.715783935546875,12.495920648157595,-1.8885428793042898,6.904440950039029
1667710511013835000,6.7258349609375,12.115144384515284,-3.3107758223265407,8.608354991701244
1667710511023886000,6.735885986328125,10.787464871412515,-4.325436849239468,10.23141971914768
1667710511033937000,6.74593701171875,8.498732587465643,-5.09702444832623,11.616015297693014
1667710511043988000,6.755988037109375,6.065862466219067,-6.06453267892003,12.204421919858454
1667710511054037800,6.766037841796875,5.26239328970313,-7.6373524892508975,11.61555469444394
1667710511064088800,6.7760888671875,5.995553835240006,-8.785640480843186,9.632547817069291
1667710511074140000,6.786139892578125,6.883876300916075,-8.953205955481529,6.03924392388463
1667710511084190700,6.796190673828125,8.024127701047062,-6.586366934025287,1.2356396734394133
1667710511094241800,6.80624169921875,8.42363613768816,-3.411825044006109,-2.4227315890699623
1667710511104291800,6.816291748046875,4.28326534846425,-0.9092378279328346,-4.382323104065656
1667710511114343000,6.826343017578125,-2.351414657831192,1.6229963383853434,-5.236216061395407
1667710511124394000,6.83639404296875,-4.201768968516588,6.016800036886334,-6.436114997759461
1667710511134445000,6.846445068359375,-4.997980721250176,11.83112987449169,-7.9941049032270906
1667710511144495900,6.856495849609375,-3.0455671350598332,16.6890796092391,-10.484700068211556
1667710511154546000,6.8665458984375,-0.5288777438759803,20.597807880711553,-14.483112702262401
1667710511164597000,6.876596923828125,0.7538917103331536,19.8950980030179,-15.075374830812216
1667710511174647800,6.886647705078125,-0.7819220191616565,12.843490223246812,-8.797839452680945
1667710511184699000,6.896698974609375,-3.6061318105757234,7.930955496352911,-4.129513879644871
1667710511194750000,6.90675,-5.837475150871277,8.149567267617583,-2.26390267085582
1667710511204800000,6.916800048828125,-5.704221695679426,10.354794754403828,-1.8355217754736541
1667710511214850800,6.926850830078125,-3.376503555256128,11.410519613111019,-0.4139370672270655
1667710511224902000,6.93690185546875,-0.6768316323325038,10.063764812660217,0.5154333750870078
1667710511234953000,6.946952880859375,-0.8722443143174051,7.2362488923728465,-0.44967860802002246
1667710511245004000,6.957004150390625,-2.400051555228233,5.059201205888391,-0.5160889894515276
1667710511255054000,6.96705419921875,-3.3717177822843194,3.7552035971462723,0.4738333540568128
1667710511265105000,6.97710498046875,-3.739605045998096,2.695342661547661,1.4891785273090004
1667710511275156000,6.987156005859375,-4.150556375412643,1.7089280704319476,2.1033196024507284
1667710511285207000,6.99720703125,-4.5545723526060575,0.5652578017681836,1.713884523795545
1667710511295257900,7.0072578125,-4.864577920715511,-1.1037129368066787,0.557909192571044
1667710511305308000,7.017307861328125,-5.278789128708839,-3.34996100076735,-0.6930445159867406
1667710511315359000,7.02735888671875,-6.116670862436294,-5.5873851222813125,-1.6142103898614644
1667710511325409800,7.037409912109375,-6.979521033203602,-7.694049943506717,-2.434043256679177
1667710511335460900,7.0474609375,-7.356599611371755,-9.834897604840993,-2.882254933951795
1667710511345512000,7.057511962890625,-7.211510756957531,-11.901779866254328,-2.699768369035423
1667710511355562000,7.06756201171875,-6.703154407584667,-13.835242668259143,-2.441276422803104
1667710511365613000,7.077613037109375,-5.723603857019543,-15.623730013096331,-2.0636711904123426
1667710511375663900,7.087663818359375,-4.973202253824472,-16.957952664232252,-1.1546259624421595
1667710511385715000,7.09771484375,-5.3603346084952355,-17.483138567852972,-0.7488754165410995
1667710511395766000,7.10776611328125,-3.752263452041149,-16.857720019632577,-1.3875444914788007
1667710511405815800,7.11781591796875,0.0017766542837023733,-15.540674128746986,-1.0355568076863884
1667710511415867000,7.127866943359375,3.8118621806964277,-13.980641319274902,-0.6960982775341719
1667710511425918000,7.13791796875,9.3325279286623,-11.199405504125355,0.4922159464329481
1667710511435968800,7.14796875,23.347999738299844,-5.391791238510608,6.156303784644603
1667710511446019800,7.158019775390625,37.802110802483554,5.764607483059168,17.26042053031325
1667710511456070000,7.16806982421875,32.7669153260827,15.64562737212777,7.571609558752178
1667710511466121000,7.178120849609375,-20.56860750519037,11.989951486182212,-10.326047967869043
1667710511476172000,7.188172119140625,-31.543819638526436,3.668009297817945,-13.537595938724278
1667710511486223000,7.19822314453125,-13.908293875944613,0.7699474306643008,-14.205419211953878
1667710511496274000,7.20827392578125,-9.214017284572124,1.3893728759497403,-13.294858026462792
1667710511506325000,7.218324951171875,-8.859357458961009,-1.1766682829022408,-12.555710223209857
1667710511516374800,7.228374755859375,-9.125153590726852,-4.221837943077087,-12.604577422231435
1667710511526425900,7.23842578125,-9.725677351665496,-4.546645066738129,-10.470659852421283
1667710511536477000,7.248476806640625,-9.061768037009239,-2.2919559221684933,-7.2081661227047436
1667710511546527700,7.25852783203125,-9.304417101943493,1.7853624908149242,-4.071120142865181
1667710511556578800,7.268578857421875,-9.975323143619299,9.450167050614953,-1.599929058791697
1667710511566628900,7.27862890625,-7.558011826032399,18.146886554467677,1.9058279222346841
1667710511576680000,7.288679931640625,0.6732383570808916,24.925794998955727,6.300322964000702
1667710511586731000,7.29873095703125,8.87884424971938,23.544158270215988,8.710212607154249
1667710511596782000,7.308781982421875,6.6746086965799325,14.236646709388493,6.474523346608877
1667710511606833000,7.3188330078125,-0.2510445528358221,8.475141868519783,4.567700714248419
1667710511616882700,7.328882568359375,-2.7675819683283565,6.031861412417888,3.2016976079702375
1667710511626933800,7.338933837890625,-2.886200748968124,4.586556805887818,0.7383570912666618
1667710511636984800,7.34898486328125,-0.27542196517996487,4.348247231462597,-2.027398538417369
1667710511647036000,7.359035888671875,5.984203004664182,4.21109092361331,-5.132710094213485
1667710511657087000,7.3690869140625,11.512788731974362,3.139125708723068,-7.65280841705799
1667710511667137000,7.379136962890625,12.266847688633202,1.128152966058254,-7.536033802980184
1667710511677187800,7.389187744140625,11.13820840036273,-0.12487550294697283,-5.8905251885354515
1667710511687239000,7.399239013671875,9.784412449228762,-0.0809101044923067,-2.4107658414661883
1667710511697290000,7.4092900390625,8.948478342437744,0.7453858208596706,2.542314538566768
1667710511707341000,7.419341064453125,8.150739234006405,1.2373293800920246,5.491569125080108
1667710511717391000,7.42939111328125,7.999117762953042,0.6699374889045954,6.775304282516241
1667710511727442000,7.43944189453125,7.938613317629694,-1.4895248565286396,7.834252779445052
1667710511737492700,7.44949267578125,7.407395732629299,-3.477062947592139,8.921309180483222
1667710511747543800,7.459543701171875,6.792222684091329,-4.686945517832041,10.09003673351407
1667710511757595000,7.469594970703125,5.392296849945187,-5.654443811553716,11.59709315508008
1667710511767645200,7.479645263671875,3.938474590438604,-6.673272479540109,12.433407201099396
1667710511777695200,7.4896953125,3.4907132872819897,-8.539176826056838,13.034468722176552
1667710511787746300,7.499746337890625,5.409827830460667,-10.53827266844511,13.564452381467818
1667710511797797000,7.509797119140625,8.019764245140552,-11.600026285922526,13.314155432128905
1667710511807848200,7.51984814453125,8.82541076569557,-11.898055292773247,10.854592534267901
1667710511817898000,7.52989794921875,8.990207360142469,-10.355526575809716,5.4887084749519826
1667710511827949000,7.539948974609375,9.97809845355153,-6.154554895150661,0.3952551631107926
1667710511838000000,7.550000244140625,9.30179435222447,-4.043957410651445,-2.008724963738024
1667710511848051000,7.560051025390625,4.955243403285741,-2.1588497664928434,-2.962502775143087
1667710511858102000,7.57010205078125,-0.42046522688679394,1.0182926614135503,-2.466830258515477
1667710511868153000,7.580153076171875,-2.1384528751522303,5.418685675176977,-2.5972934984669087
1667710511878203100,7.590203125,-4.3038171381056305,12.95725922576785,-2.696321151190996
1667710511888254200,7.600254150390625,-3.899593363380432,21.42140857563019,-4.0374677563712
1667710511898305300,7.61030517578125,-3.7159751640856262,27.580560150921343,-8.486067167159915
1667710511908356000,7.620356201171875,-2.7276316507339478,25.912395468032358,-12.34510698635578
1667710511918407200,7.6304072265625,-1.444309165751934,16.158936959993838,-10.421680425196886
1667710511928457000,7.64045703125,-1.9621626806579529,10.841852295160294,-7.8339423983216285
1667710511938508000,7.650508056640625,-3.1875591925024986,9.124906922489403,-6.366336528134346
1667710511948559000,7.66055908203125,-3.986709336775541,8.968605184665321,-4.646668452501297
1667710511958610200,7.670610107421875,-4.037996456420421,10.187810879045724,-3.1585446949422358
1667710511968661000,7.680660888671875,-2.2947430686689914,10.42342580755949,-0.9078063338249921
1667710511978711000,7.6907109375,-0.7901064215958118,9.319251682981848,2.0430366909235715
1667710511988762000,7.70076220703125,-1.230336744725704,7.969456199660897,4.571856080362201
1667710511998813200,7.710813232421875,-3.0480528143957257,6.0597086197644465,4.83992395645231
1667710512008864300,7.7208642578125,-5.012406136965751,4.301452747061848,3.75821096226871
1667710512018915000,7.7309150390625,-6.188778651791811,3.021715134829283,2.710625278614461
1667710512028966100,7.740966064453125,-6.532564032167196,1.9535721085757016,1.9744468465611338
1667710512039016000,7.751015869140625,-6.394033513355255,0.7094558448225259,0.8762643636137246
1667710512049067000,7.76106689453125,-6.236717630052566,-0.8605366331279277,-0.9093351508274674
1667710512059118000,7.7711181640625,-6.438845299506187,-2.9368928253293034,-2.976284047736227
1667710512069169200,7.781169189453125,-7.156160041135549,-5.4668286515772335,-4.666242044760287
1667710512079220000,7.791219970703125,-7.743264933052658,-8.15237297268808,-5.713190015032887
1667710512089270000,7.80127001953125,-7.851806556314229,-10.729840365439653,-5.7778702847361565
1667710512099321000,7.811321044921875,-7.762022240492701,-13.353496093392371,-5.2553813651144505
1667710512109372200,7.8213720703125,-7.550821037745475,-15.90203140617013,-3.851139713595807
1667710512119423200,7.83142333984375,-7.895466834342479,-17.78635812908411,-2.6311276712685823
1667710512129474000,7.84147412109375,-6.05022825923562,-18.341050697696208,-2.3996298226848243
1667710512139524000,7.851524169921875,-1.5744982649371027,-17.854705104601383,-2.28994750495553
1667710512149575200,7.8615751953125,2.0892131895564496,-16.851929745793342,-2.2268308313071725
1667710512159626000,7.8716259765625,2.9973861647367475,-15.25931334810257,-1.7849968723729253
1667710512169677000,7.881677001953125,4.29624757963419,-12.810863380408286,0.20601181741058824
1667710512179728100,7.89172802734375,7.616044328284263,-9.094908090066909,2.9991166417911646
1667710512189778200,7.901778076171875,12.889907106506824,-4.865060443535447,5.939961711877584
1667710512199829000,7.9118291015625,20.399629241144655,-2.3286609742313624,3.4962197757437825
1667710512209880000,7.921880126953125,21.41970644788742,-2.951899255803227,-1.7539476541146635
1667710512219931100,7.93193115234375,2.649319746041298,-5.055450328922271,-4.06522933126092
1667710512229982200,7.941982177734375,-10.591520274508,-6.4320402956664555,-7.097735324695706
1667710512240032300,7.9520322265625,-8.371531856441496,-0.6845926217228174,-12.253210792946815
1667710512250083300,7.962083251953125,-3.3393513439476488,12.796280728304385,-18.96918610365987
1667710512260134100,7.972134033203125,-4.206376170051097,20.40571995923519,-17.08302632009983
1667710512270185200,7.982185302734375,-11.260308008855581,19.777372956347463,-14.594031576049327
1667710512280236000,7.992236083984375,-12.290534853690861,12.34350305829048,-9.222326263234018
1667710512290287000,8.002287109375,-11.271938825416564,5.116687764695286,-1.7935104336962102
1667710512300337200,8.012337158203126,-11.819074695038795,2.116833748540282,4.312202104613185
1667710512310388000,8.022387939453125,-13.80102475683689,0.9543126489341258,6.870501855558157
1667710512320439000,8.03243896484375,-13.856349753695726,1.0680822359770537,5.661757349437475
1667710512330490000,8.042489990234374,-12.289591435360908,2.7046096715867516,3.6519369916781783
1667710512340541200,8.052541259765626,-8.606580967766046,6.291891235741972,3.1174311787873505
1667710512350591200,8.06259130859375,-1.2427753705382347,12.441652466875315,3.2205247657760974
1667710512360642300,8.072642333984374,5.099956994646788,18.566464550191164,2.0094196680039165
1667710512370693000,8.082693115234376,6.669369626882672,16.82880605983734,4.547631155166029
1667710512380744200,8.092744140625,3.19561331962049,9.169142954578994,5.884477140542865
1667710512390795300,8.102795166015625,0.31812253133058543,4.430496475604176,2.5365043909832834
1667710512400845000,8.112844970703126,0.6379671372134238,2.6754139722406864,-0.5452214143030345
1667710512410896100,8.122896240234375,3.326172713422775,2.49759715270102,-2.5227076285600663
1667710512420947200,8.132947265625,7.429563725295663,2.5675042171418667,-4.862793667647242
1667710512430998000,8.142998046875,10.535646996116638,1.8879186099261045,-6.301801219859719
1667710512441049000,8.153049072265626,11.188714598762989,0.7568272523283958,-6.116294430339336
1667710512451100200,8.16310009765625,10.094751487076282,0.11801730761528015,-2.208304994535446
1667710512461150200,8.173150146484375,8.763342724317312,0.033387890338897705,3.1501223190337417
1667710512471201300,8.183201171875,8.05402716474831,-0.079529463788867,6.12650661227405
1667710512481252000,8.193252197265625,7.7490265653193,-1.2103116093069315,6.779757170271873
1667710512491303200,8.20330322265625,8.401128537803888,-3.006584201192856,7.196501988396048
1667710512501354200,8.213354248046874,9.196426682823896,-4.4416094057708975,8.773692853417993
1667710512511404000,8.223404052734375,9.585523031044005,-5.094434431833029,10.989695416718721
1667710512521455000,8.233455078125,8.522501001065969,-5.698711407825351,13.366350898790358
1667710512531506200,8.243506103515625,5.273972083815932,-6.172898361092805,14.631937820595502
1667710512541557000,8.253556884765626,2.0924387274742124,-7.519886970299482,14.21546597419381
1667710512551608000,8.263608154296875,2.907598926305771,-9.28396409650147,14.061670081710815
1667710512561658000,8.273658203125,5.515113666796684,-10.216114597988128,12.974151908379792
1667710512571709200,8.283709228515624,7.006527113550901,-10.684255841350554,9.550141336539387
1667710512581760300,8.29376025390625,8.92466959682703,-9.280675576350092,3.8469191732913255
1667710512591811000,8.30381103515625,10.818243456035852,-5.380777092543244,-1.3373501355066895
1667710512601862100,8.313862060546874,10.078395395559072,-3.723509066721797,-4.032182509444654
1667710512611912000,8.323911865234376,4.2561248280823225,-1.475173090571165,-4.654119353029132
1667710512621963000,8.333962890625,-2.7327900564104315,2.3234201509684325,-3.5755680377468466
1667710512632014000,8.34401416015625,-4.826322424340248,7.40129566218853,-3.1212209264591335
1667710512642065200,8.354065185546874,-6.907980230081081,15.142186851847171,-2.2960838157534598
1667710512652116000,8.364115966796875,-5.860358013808727,23.82985152710676,-3.8404008774384852
1667710512662167000,8.3741669921875,-5.051844997906684,30.39603141314983,-8.4918773147434
1667710512672217000,8.384217041015624,-3.94972780585885,26.596538592422007,-11.563083333450555
1667710512682268200,8.39426806640625,-2.4774060130655764,14.148891269046068,-8.34976367674768
1667710512692319200,8.4043193359375,-2.59289935516119,8.456419632393121,-5.039126970630884
1667710512702370000,8.4143701171875,-3.6090368843674656,7.00621147173047,-4.4869612901479
1667710512712421000,8.424421142578124,-3.0828631387531757,8.127851110371946,-5.271759668463468
1667710512722471200,8.43447119140625,-2.24727623796463,10.09193876774311,-5.087203311535716
1667710512732522000,8.44452197265625,-1.1325506164953112,9.379652083408832,-3.2298931903630494
1667710512742573000,8.454572998046874,-0.1509735285386443,7.003958724367618,-0.42290034507922825
1667710512752624000,8.4646240234375,-0.7655776911474764,5.26373652100563,2.5459613706365225
1667710512762675000,8.474675048828125,-2.0863424564257262,4.089904338312149,3.9653801330208776
1667710512772725200,8.484725341796874,-3.299472922545671,3.3331612571358677,3.485826976545155
1667710512782776300,8.4947763671875,-4.329383248777687,2.3535452401190993,2.506808633160591
1667710512792827400,8.504827392578125,-4.933883804392814,1.0860533614754677,1.530669206213206
1667710512802878500,8.51487841796875,-5.3169350272297855,-0.3942880716443062,-0.012499562219530344
1667710512812929300,8.52492919921875,-5.733437268769741,-2.2995488615155217,-1.8903367769837378
1667710512822980400,8.53498046875,-6.250578982144594,-4.454491099175811,-3.755415486331284
1667710512833030400,8.545030517578125,-6.962278806501627,-6.605802286857366,-5.385651420581341
1667710512843081500,8.55508154296875,-7.590456298041343,-8.520553374129534,-6.255402456778287
1667710512853132500,8.565132568359376,-7.632642411863803,-10.392740746438502,-5.801208490225672
1667710512863183400,8.575183349609375,-7.045154073587059,-12.760338477307558,-4.770902734935284
1667710512873234200,8.585234130859375,-6.191973648440838,-15.24377441818714,-3.826294902935624
1667710512883284200,8.5952841796875,-6.231009189277887,-17.35799710744619,-3.098533878354728
1667710512893335300,8.605335205078125,-6.270905146336555,-18.65465253673196,-2.9939100130587812
1667710512903386400,8.615386474609375,-3.1848344437137244,-18.17198592441082,-1.8167776197761296
1667710512913437400,8.6254375,0.8056661020383238,-16.64004757504463,-0.6549354423448444
1667710512923488300,8.63548828125,2.5549548244312406,-15.324650035887956,-1.431351192240417
1667710512933538600,8.64553857421875,3.616434885664284,-13.487309520554541,-1.5339201708331702
1667710512943589400,8.65558935546875,4.817360534727573,-10.758277355372906,1.0516443113952874
1667710512953640400,8.665640380859376,3.7007881163477894,-7.450880069568753,5.578201698872447
1667710512963691500,8.67569140625,3.811268306456506,-3.6956571832001206,8.67246535256207
1667710512973742600,8.68574267578125,13.71562610875368,0.07251987728774548,9.654377956083417
1667710512983793200,8.695793212890624,18.85800419502258,1.6158622487217187,2.4188649767696857
1667710512993843200,8.70584326171875,15.651098497015237,7.131791908076405,-10.743939033418894
1667710513003894300,8.715894287109375,-8.29923935816884,19.223330376076696,-16.931316001719235
1667710513013945300,8.7259453125,-17.56486758751273,22.53296579619646,-15.011826780009269
1667710513023996400,8.735996337890626,-12.301508667647838,16.395338654971123,-10.722885723996162
1667710513034047500,8.746047607421875,-10.684514200025797,5.0384699680268765,-4.680172954957187
1667710513044097500,8.75609765625,-10.246113430410624,-0.9855302094966173,-1.4449167762562631
1667710513054148400,8.7661484375,-11.27373798379302,-3.5075866806715723,3.544164014701545
1667710513064199400,8.776199462890625,-12.452331681799889,-3.8952760847032066,6.559924332779645
1667710513074250500,8.78625048828125,-11.327509321469067,-2.5405028129696845,5.82956072448492
1667710513084301600,8.796301513671875,-9.253129982298612,0.3056874126493931,4.440715379540622
1667710513094351400,8.806351318359376,-5.267209750074148,6.000659633946419,4.053979915232956
1667710513104402200,8.816402099609375,-0.3240110048472881,14.585495218372344,2.2037252655297515
1667710513114453200,8.826453369140625,0.8454488810461014,19.631181693649292,0.3351964522609487
1667710513124504300,8.83650439453125,-0.5745453066060319,18.257929346895217,0.9198630476478487
1667710513134555400,8.846555419921875,-1.8570973552048204,9.93177041761875,1.6156981442011893
1667710513144606500,8.8566064453125,-2.7945488857090472,3.3187849412590262,1.0111527995962648
1667710513154656500,8.866656494140624,-2.548078801181912,0.8741665145516395,-0.40094840631633993
1667710513164707300,8.876707275390626,-0.272238732033968,0.6607049656569958,-2.783051632399857
1667710513174758400,8.88675830078125,3.940958808469772,2.021524531817436,-5.49320695541501
1667710513184809500,8.8968095703125,8.085386764129996,3.1288299401581288,-7.465378550520539
1667710513194860500,8.906860595703124,9.445531207507848,2.9926556290835142,-7.286308516049385
1667710513204911400,8.916911376953125,8.97606777563095,2.4823592515587807,-5.446709408134222
1667710513214961400,8.92696142578125,8.15242557965815,2.0976146688073873,-2.29400379460901
1667710513225012200,8.93701220703125,8.603256791779398,1.7810194931745529,2.1510525367453694
1667710513235063300,8.947063232421876,9.206698485991359,1.226136954948306,5.079408712136745
1667710513245114400,8.9571142578125,9.134393712759017,0.24845278277695176,6.317357685431838
1667710513255165400,8.96716552734375,9.113537971735001,-1.5716805771678686,7.175683072251081
1667710513265215500,8.977215576171876,8.737418009465932,-3.5124493182718752,8.766213895839453
1667710513275266300,8.987266357421875,7.466562207347154,-5.09955893523991,11.32345624668598
1667710513285317400,8.9973173828125,5.910940200054645,-6.408361898437142,13.563725236237048
1667710513295368400,9.007368408203124,4.669409861141443,-7.440138895323872,14.347570259350537
1667710513305419500,9.01741943359375,4.3669191987067455,-8.532154964596032,14.150271909749508
1667710513315469300,9.02746923828125,5.893057921883464,-9.600170565077661,13.305422675096988
1667710513325520400,9.037520263671874,7.707146740967035,-10.520776759243011,11.739451123225688
1667710513335571200,9.0475712890625,8.692448402404784,-10.403652601075171,8.773663627323508
1667710513345622300,9.057622314453125,8.740429466241597,-6.373427363178133,4.48898461266905
1667710513355673300,9.06767333984375,7.0459776649296275,-1.8285218335837126,0.44660139253176745
1667710513365724400,9.077724365234374,3.5969068861126896,1.285942312091589,-1.9412632466226816
1667710513375774500,9.0877744140625,1.2424123824447393,4.521643896472454,-3.519012622310221
1667710513385825300,9.0978251953125,2.416949498537183,9.959030180466174,-5.571662652492523
1667710513395876400,9.10787646484375,0.2072364090357907,15.195857651758192,-8.211392732411623
1667710513405927400,9.117927490234376,-0.19144260931015014,17.082556364500523,-10.269286216205359
1667710513415978500,9.127978515625,0.3868739959955215,17.82235298705101,-13.410208745217323
1667710513426029600,9.138029541015625,-1.8483926552236078,15.51522872184515,-13.801314679694174
1667710513436079400,9.148079345703126,-4.120497044974566,11.439326020878553,-10.449426510256528
1667710513446130200,9.158130126953125,-4.583304233832657,10.127919597184658,-6.729570120823383
1667710513456181200,9.16818115234375,-3.2469536307573317,10.812993280422686,-4.092768203310668
1667710513466232300,9.178232421875,-1.4025135125517845,11.291440813744067,-1.7179677014559507
1667710513476283400,9.188283447265626,-1.2112743168592452,11.258712264096737,0.7565741543501615
1667710513486333400,9.19833349609375,-1.5299780090786517,10.541621978873014,2.5409543561294674
1667710513496384300,9.20838427734375,-1.9239359719857572,9.317136298263073,4.44926050504595
1667710513506435300,9.218435302734376,-2.5672689470812675,7.795378566649556,5.40777148245275
1667710513516486400,9.228486328125,-3.4749589610502123,6.1545572332382195,4.47560461435318
1667710513526537500,9.238537353515625,-4.005721495759487,4.296118400296568,2.6377181555747984
1667710513536588500,9.248588623046874,-4.271000617913901,2.710862886762619,1.582812942687422
1667710513546638600,9.258638671875,-4.48403458904624,1.479699628084898,0.09271861570775508
1667710513556689200,9.268689208984375,-4.9045770458877085,0.11842179676294326,-1.5936726287454366
1667710513566740200,9.278740234375,-5.376128389954567,-1.8224889831602573,-3.164372378182411
1667710513576791300,9.288791259765626,-6.191804137092828,-4.356694157290458,-4.915702835536003
1667710513586842400,9.29884228515625,-7.2792626891911025,-7.092492163345217,-5.989477730196714
1667710513596892400,9.308892333984375,-7.800356939584017,-9.923767143905161,-5.94953734947443
1667710513606943500,9.318943603515624,-8.150376830434798,-12.520225068330763,-5.829941248235106
1667710513616994300,9.328994384765625,-8.537804368659854,-15.186979933297634,-5.261437011891603
1667710513627045400,9.33904541015625,-8.568317580345273,-18.21989333848953,-3.83616806217432
1667710513637096400,9.349096435546874,-8.092305749738216,-20.77726779128313,-2.859770130421221
1667710513647146500,9.359146484375,-7.384570152837037,-22.005663923335074,-2.689196998399496
1667710513657197600,9.369197509765625,-5.484067955669761,-20.702654741108415,-0.9945118267230689
1667710513667248400,9.379248291015625,-2.710036665071547,-17.346161708223818,0.41957675361447033
1667710513677299200,9.38929931640625,-0.2501101945951581,-14.045620279663801,-0.27250125542767345
1667710513687350300,9.399350341796875,2.873653402084112,-11.252350327849387,0.12477993361800908
1667710513697401300,9.4094013671875,7.4839704382658,-8.430577335128188,2.20061444003284
1667710513707451400,9.419451416015624,11.458398970139026,-4.694634318768978,6.289765914151072
1667710513717502500,9.42950244140625,13.950393480527401,-0.20762802043557166,11.51702651567459
1667710513727553300,9.43955322265625,20.587756442296502,5.590927909454703,14.934458293646573
1667710513737604400,9.449604248046874,24.593475599968432,12.593891193044184,5.2505894546628
1667710513747655400,9.459655517578126,-2.3723627533137797,23.21541146901846,-16.140784048187733
1667710513757705500,9.46970556640625,-21.98911026341915,20.325182195186613,-23.49607783765793
1667710513767757000,9.479757080078125,-11.24829842211008,12.448912228745222,-19.057164831364155
1667710513777808000,9.489807861328124,-8.019666045463085,3.4623826803326603,-13.77243579121232
1667710513787859000,9.49985888671875,-8.86271261460781,-3.7889842861950394,-9.68389455794692
1667710513797910000,9.509909912109375,-9.44655528985858,-7.3154153680682175,-7.638987981498241
1667710513807961000,9.519961181640625,-10.55050788064003,-9.310707726520299,-5.5978971639454365
1667710513818011000,9.530010986328126,-11.678335852527617,-8.100510098981857,-3.8164033312574026
1667710513828061700,9.540061767578125,-11.291655917799472,-3.193960876238346,-2.9273741786167022
1667710513838112800,9.55011279296875,-10.709018526685238,5.075022459876537,-2.7960291873946783
1667710513848163800,9.560163818359374,-8.852851730328798,16.008198116993903,-2.8067744532927867
1667710513858215000,9.57021484375,-0.8804664914786815,27.234761677157877,-0.5226023168683052
1667710513868266000,9.580265869140625,9.089085083001851,27.738645265030858,7.209234628719091
1667710513878316000,9.59031591796875,9.884491949093341,16.763262451303003,11.476513303500413
1667710513888366800,9.600366943359376,2.153364613080025,7.716808887803554,8.54728589823246
1667710513898418000,9.61041796875,-2.2781863400131463,3.7358313726782795,6.544878739339113
1667710513908469000,9.620468994140625,-2.3856395835161206,1.8180612298458814,4.0960833192080255
1667710513918520000,9.63052001953125,1.3867245533980428,2.7255314635843035,0.2399454319987446
1667710513928570000,9.640570068359375,7.655360439628362,3.879959857627749,-4.706579023584723
1667710513938621000,9.650620849609375,12.118213124436139,3.589116378366947,-8.207735963469743
1667710513948671700,9.660671630859374,12.441011830884218,2.262151151013374,-8.848474245896934
1667710513958722800,9.670722900390626,11.068693550109863,1.3891840753793716,-5.370037671864033
1667710513968774000,9.68077392578125,10.301284113490581,1.8901269336253403,1.2784022719755768
1667710513978825000,9.690824951171875,9.319849648874998,2.301064526775479,5.537620097637176
1667710513988875000,9.700875,8.070204977089166,1.6693869181603191,6.752192286998033
1667710513998925800,9.71092578125,7.879151074835658,-0.6407996572256088,7.413065594959258
1667710514008977000,9.720976806640625,7.892437841910123,-2.7912919297397134,8.818643171256781
1667710514019028000,9.731028076171874,6.776463973945379,-4.306045335549116,10.716704989534616
1667710514029079000,9.7410791015625,5.260570165929198,-5.7967018264561885,12.556650134408473
1667710514039129000,9.751129150390625,4.551364788736403,-7.6172577957272525,13.799064270418882
1667710514049180000,9.761179931640624,5.930536296406388,-9.508027118909359,14.888091679269074
1667710514059230700,9.771230712890626,8.516362352180481,-10.714300266480445,16.036485469323395
1667710514069281800,9.78128173828125,10.855369948381185,-11.569094556564092,15.945330449670552
1667710514079332900,9.791332763671875,12.358546313643455,-10.53327617533207,10.969811151075362
1667710514089384000,9.801384033203124,12.523951979899406,-5.1989533754497765,2.1872823725119233
1667710514099434000,9.81143408203125,11.197480089020729,-2.3986212301641703,-2.834975588643551
1667710514109484800,9.82148486328125,5.978717266729474,-1.0928314773082732,-5.553214557132125
1667710514119535900,9.831535888671874,-1.805626111164689,1.5650386549353599,-5.813646531516313
1667710514129587000,9.8415869140625,-2.690124050116539,5.267192214417458,-5.614552530670165
1667710514139638000,9.851637939453125,-2.673596109163761,11.497113023936748,-5.876907582071423
1667710514149688000,9.86168798828125,-0.5993167232364416,19.256385088938472,-7.235194414883852
1667710514159739100,9.8717392578125,2.0991373483300206,24.28778701827526,-11.079232479780911
1667710514169790000,9.8817900390625,2.228202119660377,23.632046981549262,-13.734572801285982
1667710514179840800,9.8918408203125,-0.968225438952446,15.783831727725266,-11.884559851384163
1667710514189891800,9.901891845703124,-4.372595490777492,10.409724614465237,-8.819992247778178
1667710514199943000,9.91194287109375,-6.824138748311996,8.634717513447999,-6.089087274461984
1667710514209993000,9.921992919921875,-7.365543965327739,9.18893895741701,-4.353784699584543
1667710514220043800,9.932043701171875,-6.0786699253439895,10.420096370875834,-2.475493457442522
1667710514230094800,9.9420947265625,-3.5431378865242,10.646390513336657,-0.5853668526107445
1667710514240146000,9.95214599609375,-1.6651391975879668,10.148272649383545,2.4288839742198585
1667710514250197000,9.962197021484375,-2.265726086890697,8.811808941322564,5.077153042164444
1667710514260248000,9.972248046875,-3.7075618482664225,6.631778439635038,5.629567144450545
1667710514270298000,9.982298095703126,-4.664534656320512,4.881454528975486,4.486452756103873
1667710514280349000,9.992348876953125,-5.649605723872781,3.5083366222560404,3.82716905542165
1667710514290400000,10.00239990234375,-6.116801795339584,2.1102701522409917,2.764932330602407
1667710514300450800,10.012450927734376,-6.315332317084073,0.5499404056489468,0.9419355440504849
1667710514310502000,10.022501953125,-6.495452737390995,-1.4281629175931214,-1.3689384290777147
1667710514320552000,10.032552001953125,-7.280147655332088,-4.086331740522384,-3.726675421798229
1667710514330603000,10.04260302734375,-8.34782364859581,-6.960868939703703,-5.3927381639719005
1667710514340653800,10.05265380859375,-9.185333626401423,-9.535684941163659,-5.806740405389666
1667710514350705000,10.062704833984375,-9.582858780270815,-12.30055238983631,-5.275003180429339
1667710514360756000,10.072755859375,-9.548075051659344,-15.446552075982092,-4.351597710934281
1667710514370807000,10.08280712890625,-9.681594464311003,-18.39723727982044,-3.2399358609497546
1667710514380857000,10.092857177734375,-10.223020139592885,-20.619051744270323,-3.233105430407822
1667710514390908000,10.102907958984375,-8.149634487634897,-20.842233892190457,-3.2999235889226197
1667710514400959000,10.112958984375,-4.160349747413397,-18.583449587261676,-2.3331322744265197
1667710514411010000,10.123010009765625,-1.0859404026202857,-16.199105304253102,-2.635797708906233
1667710514421060900,10.133060791015625,1.8476716474726795,-13.897038322436808,-3.443416698578
1667710514431111000,10.14311083984375,6.363798534089327,-10.975698455548287,-2.7375074403211475
1667710514441162000,10.153161865234376,14.18831493241787,-6.88060356285572,0.9616863925725221
1667710514451212800,10.163212890625,21.241417919182776,-1.4914765751183032,9.50782195172608
1667710514461264000,10.173263916015625,24.455035097527503,4.62681867364943,14.511250416988133
1667710514471315000,10.18331494140625,19.195019642871618,8.115981224358082,5.115415260541439
1667710514481365000,10.193364990234375,-3.398854503273964,9.949551573503017,-8.467969784933327
1667710514491416000,10.203416015625,-19.72469584364891,12.684929308319091,-18.745797034990787
1667710514501467000,10.213466796875,-11.82790331366062,12.288209625613689,-19.492210445332525
1667710514511518000,10.22351806640625,-3.7068496083438394,7.751237811627983,-16.600504669207332
1667710514521569000,10.233569091796875,-6.097304483187198,-0.906210004544258,-11.917951248854399
1667710514531620000,10.2436201171875,-9.328522784674167,-5.5486716530054805,-9.384045349931716
1667710514541670000,10.253669921875,-11.825889051228762,-7.13077542451024,-6.02913403328061
1667710514551721000,10.263720947265625,-13.569826475721596,-6.299954715210199,-2.450833940221369
1667710514561771800,10.273771728515625,-13.38979139561057,-2.0286755726158616,-0.4398196965023875
1667710514571822800,10.28382275390625,-11.557881088632344,4.31030883821249,0.6982312709748745
1667710514581874000,10.2938740234375,-9.329594797819853,12.576755349326133,2.38560392768085
1667710514591925000,10.303925048828125,-1.0797592297673224,22.607906178629396,5.36899839194417
1667710514601975000,10.31397509765625,8.765265801334381,26.011174991214276,6.993774599483609
1667710514612025900,10.32402587890625,8.456110420313477,17.687168271535633,7.0935706062316894
1667710514622077000,10.334076904296875,2.2805542381882664,9.727223412063717,6.427968516182899
1667710514632128000,10.3441279296875,-1.323344698768854,5.854729652532935,4.92022177426517
1667710514642179000,10.354178955078124,-2.0900871959120035,3.999115229362249,2.8259605075389147
1667710514652228900,10.364228759765625,0.5035270295202732,3.6610517337650057,-0.25342414144873615
1667710514662280000,10.374280029296875,7.235846741312741,3.6895693877190348,-4.740694643676281
1667710514672330800,10.384330810546874,12.414942154604196,2.561227621090412,-7.879630382785201
1667710514682381800,10.3943818359375,12.723257577669619,1.1888356905579567,-7.726525979697704
1667710514692433000,10.404432861328125,11.074753873062134,0.9771277073323726,-4.883618721272051
1667710514702484000,10.41448388671875,9.969522348386048,1.8436551053076982,1.5517850594781337
1667710514712534000,10.424533935546876,8.737681628838182,2.835689874392748,7.00630499523282
1667710514722585000,10.434585205078125,7.227479894983768,2.0756910062909126,8.766355934658646
1667710514732636000,10.444635986328125,6.871646349418163,-0.6039139878988266,9.181521374636889
1667710514742687000,10.45468701171875,6.566365764003992,-2.9378660542756316,10.176586889719962
1667710514752738000,10.464738037109376,6.111226625555753,-4.6483729183316225,12.124059512376785
1667710514762787800,10.474787841796875,5.512707774698734,-6.010585984677076,13.874086485916376
1667710514772839200,10.484839111328125,4.542504313671588,-8.031393892657757,14.708302098351716
1667710514782890000,10.494889892578126,5.726562122303247,-10.17396004834771,15.10714710264802
1667710514792941000,10.504941162109375,8.817751775375008,-12.027607555359602,15.385734911447763
1667710514802992000,10.5149921875,12.239188112813233,-13.544992478716372,15.03368205346465
1667710514813043200,10.525043212890624,13.69177177043557,-13.107636834239958,11.82505435397029
1667710514823093200,10.53509326171875,11.202544386672972,-7.390858439326286,3.044946372812986
1667710514833144000,10.54514404296875,7.285902857857942,-4.06888376211524,-3.5215427253097293
1667710514843195100,10.555195068359374,1.8697149908460675,-3.2696886096566913,-4.791991115671396
1667710514853246200,10.56524609375,-2.645108558087051,-0.6547399197727441,-3.2792776912569996
1667710514863297300,10.57529736328125,-2.1672838328391313,2.0010662656784057,-1.7796368066444992
1667710514873347300,10.585347412109375,1.8754525115847587,7.980050658911466,-2.1164307206973434
1667710514883398100,10.595398193359374,1.9096435350000858,18.295770124989748,-2.4435262475565076
1667710514893449000,10.605448974609375,4.561956033116579,26.951319998586175,-4.469073166757822
1667710514903500000,10.6155,4.880322894597053,30.221745690345763,-8.95767813245952
1667710514913551000,10.625551025390624,-0.012384922863915562,26.165404598939418,-10.77020394001007
1667710514923602200,10.635602294921876,-4.471057034051418,17.515673056232927,-9.571151391342282
1667710514933652200,10.64565234375,-6.708405752241611,12.466862895977496,-7.046901209515333
1667710514943703300,10.655703369140625,-6.783097128349542,10.720938097059726,-3.733277304281294
1667710514953754000,10.665754150390624,-5.915390749722719,11.278432863610982,-3.3931752885937687
1667710514963805200,10.67580517578125,-3.183701348030567,11.867503502643107,-4.0097368688806885
1667710514973856300,10.685856201171875,-0.2742576706409454,10.488314751577377,-2.890699521692097
1667710514983907300,10.6959072265625,-0.32143603979274626,8.302246723291278,-0.8578666832663119
1667710514993957400,10.705957275390626,-1.9638883354067802,6.2461915608406064,0.3128694331079721
1667710515004008000,10.716008056640625,-3.5553146465301513,4.469938259154558,0.9359886914100497
1667710515014059000,10.72605908203125,-5.026180979818105,3.1051573881477115,0.6532110297050326
1667710515024110000,10.736110107421876,-6.276479147076606,1.9542139136105774,0.4919415134057402
1667710515034161200,10.7461611328125,-6.618437312024831,0.5913853457152843,-0.02883358803540468
1667710515044211200,10.756211181640625,-6.221986509388685,-1.4371172084212303,-1.8508377102881668
1667710515054262300,10.76626220703125,-6.020200200718641,-4.1368098818719385,-4.26945514203757
1667710515064313000,10.77631298828125,-6.728560066998004,-6.989648459464311,-5.878793249687552
1667710515074364200,10.7863642578125,-7.839175622799992,-9.756469380292296,-6.860813989758491
1667710515084415200,10.796415283203125,-9.066164226141572,-13.004568089431524,-7.343429164153337
1667710515094466300,10.80646630859375,-11.20305408976078,-17.60354540095329,-7.042645890158415
1667710515104516400,10.816516357421875,-12.477583027434349,-22.196059069418904,-6.43876638905108
1667710515114567200,10.826567138671875,-11.084742183113098,-24.972065751743315,-5.7589726920425885
1667710515124618000,10.836617919921874,-7.834832040637731,-24.411857634580134,-3.3499002104908224
1667710515134669000,10.8466689453125,-3.7778687256798147,-21.081427263712882,-0.9550908667650073
1667710515144720100,10.85672021484375,-1.1872159804016351,-17.643617883622646,-1.3086292140655218
1667710515154770200,10.866770263671874,1.1375403876066208,-14.069984321069716,-1.375044783128798
1667710515164821200,10.8768212890625,4.309332686656713,-10.688527527320383,0.7038052717149257
1667710515174872000,10.8868720703125,9.661266546553373,-6.727734722089767,5.479161478927731
1667710515184923100,10.896923095703125,15.438580366450548,-1.3710790943682194,13.418147721523045
1667710515194974200,10.90697412109375,20.893080282330512,4.974609198012947,21.506655248022078
1667710515205025300,10.917025390625,19.03458475076556,11.465806031525135,14.064003493094443
1667710515215075300,10.927075439453125,1.3040775421105324,18.03067541949153,-8.772367742294072
1667710515225126100,10.937126220703124,-7.7152809475839135,21.636896077394486,-24.734595550751685
1667710515235177200,10.94717724609375,-7.461372822010516,15.746706404423712,-21.54266647260189
1667710515245228000,10.95722802734375,-8.143783423519134,6.603297026038169,-14.91905847994089
1667710515255279000,10.967279052734375,-9.196329652190208,-0.9615998833328485,-11.653785933160782
1667710515265329200,10.9773291015625,-11.07052544171214,-6.48514820099771,-9.681652916499973
1667710515275380200,10.987380126953125,-12.87331603718996,-9.387857601696252,-6.852015181753039
1667710515285431000,10.99743115234375,-15.625021806472539,-8.802858742147684,-4.145511659243702
1667710515295482000,11.007482177734374,-16.577470999622346,-4.270989219737053,-1.5590747780948877
1667710515305533200,11.017533203125,-15.820300048422812,3.977656846269965,0.17527270628111435
1667710515315584300,11.027584228515625,-13.451267900836466,14.752521179306505,0.7799248539950698
1667710515325634300,11.03763427734375,-7.100215451073646,27.000793931329248,2.5006556634888053
1667710515335685400,11.047685302734376,6.5437541192233555,31.77837892050743,6.079830785816908
1667710515345736200,11.057736083984375,19.43184920787215,20.019951878654954,8.936834081873297
1667710515355787300,11.067787353515625,11.398187370282411,8.486275841474532,6.823941179913282
1667710515365838000,11.077838134765624,1.9308605105519294,4.937071786779165,2.228355848917365
1667710515375889200,11.08788916015625,0.6348036316812038,4.379515060907602,-3.115311702415347
1667710515385939200,11.097939208984375,6.422271765846014,4.74478045168519,-7.273711484804749
1667710515395990000,11.107989990234374,12.683692460000515,4.81242541641295,-9.067344375836848
1667710515406041000,11.118041015625,12.967251042950153,3.6775989639401434,-7.564286083996295
1667710515416092200,11.128092041015625,9.933536842769383,1.8337205712705849,-2.4394179354548453
1667710515426143200,11.138143310546875,7.987891435539722,1.0302233377039431,3.555540564240515
1667710515436193300,11.148193359375,6.886093392443657,0.8973375467807054,6.264277837151289
1667710515446244400,11.158244384765625,6.245788825258613,-0.5531213737726212,7.464442146453261
1667710515456295200,11.168295166015625,5.6268345046162604,-2.568717684584856,9.04253843588233
1667710515466346200,11.17834619140625,5.105976985588669,-4.212456366747618,11.12309967855811
1667710515476397300,11.188397216796876,5.135486573189497,-5.536507167959213,13.330400464487075
1667710515486448000,11.1984482421875,5.2418461762368675,-6.794542651471495,14.948927548503875
1667710515496498200,11.208498291015625,5.422013358294963,-8.277331477743386,16.45744878192544
1667710515506549000,11.218549072265626,7.40280606675148,-10.268463209384679,18.76535396837592
1667710515516600000,11.22860009765625,11.280161879360675,-11.815789682018757,19.97486653625965
1667710515526651100,11.238651123046875,12.630092971760034,-11.96408756160736,17.40210396019816
1667710515536702200,11.2487021484375,10.091085365784167,-10.672861171633004,10.840110419929028
1667710515546752300,11.258752197265625,9.250733442550898,-6.539430410805344,2.087727188782394
1667710515556803300,11.26880322265625,7.6100553170025345,-1.9049556694447993,-3.3140359931662675
1667710515566854100,11.278854248046875,2.202322851385921,0.5456505995005368,-4.496345204564928
1667710515576905200,11.2889052734375,-1.5733213301122189,3.2050106780409813,-4.349993198347091
1667710515586956300,11.298956298828125,0.9887630539380013,7.122442480450868,-4.826590719887614
1667710515597007400,11.30900732421875,1.6142472147405147,13.56085172662735,-5.805375546777248
1667710515607057200,11.31905712890625,5.021439922770858,21.698196057009696,-8.773591731131077
1667710515617108200,11.329108154296875,6.237611948543787,25.740284166657922,-12.636360215461254
1667710515627159000,11.339158935546875,2.359319731867313,24.92938630144596,-14.282677808201312
1667710515637210000,11.349210205078125,-3.0463644229173656,18.771403769934178,-11.764154187327623
1667710515647261200,11.35926123046875,-6.409259139537811,14.048060074031353,-7.355847916221618
1667710515657312300,11.369312255859375,-7.987698543316125,12.006488779485226,-4.203623948733508
1667710515667362300,11.3793623046875,-7.876153062063455,11.191707350838184,-3.5868159924700853
1667710515677413000,11.3894130859375,-6.609633243322372,12.087697574663162,-2.2738275602817533
1667710515687464200,11.399464111328125,-2.9368741206288336,13.25584586650133,1.0595093456819653
1667710515697515300,11.409515380859375,0.30296587873101233,13.383332428729533,4.979859958148002
1667710515707566300,11.41956640625,-0.13342296653985977,11.3036128975749,5.77527033137083
1667710515717616000,11.4296162109375,-2.454069561141729,8.059696442556382,3.063702803470194
1667710515727667200,11.439667236328125,-4.312179308259487,5.368391658222675,2.402927987447381
1667710515737718000,11.449718017578125,-5.307364650329947,3.7200253162592647,2.5603131365939973
1667710515747769000,11.45976904296875,-5.929883385455608,2.454883215612173,1.1904628533683717
1667710515757820200,11.469820068359375,-6.402783806043863,0.6425602371573448,-1.0189482027128338
1667710515767870700,11.47987060546875,-6.866158857917785,-1.663587291970849,-3.439588080200553
1667710515777920800,11.489920654296874,-7.9330480847179885,-4.478917099902033,-5.3686985322147605
1667710515787971800,11.499971923828125,-9.58152314775288,-7.612422046133875,-6.640070467162132
1667710515798022700,11.510022705078125,-10.98199492534399,-10.633386070334911,-7.256930445873737
1667710515808073700,11.52007373046875,-11.906023495173454,-14.238122042638063,-7.171110357508063
1667710515818124800,11.530124755859376,-12.35504853465557,-19.13783119022846,-6.485441046464443
1667710515828176000,11.54017578125,-12.32880817798376,-24.47297758145332,-6.274126446470618
1667710515838226000,11.550225830078125,-11.486134533804654,-27.80261534063816,-6.517417316439747
1667710515848276700,11.56027685546875,-9.650271689808369,-26.99553089623451,-6.898625541758537
1667710515858327800,11.570327880859375,-6.500100855457783,-22.495893079864977,-5.267835773018002
1667710515868378600,11.580378662109375,-2.585858204478025,-17.620902193945646,-3.342463630749285
1667710515878429700,11.5904296875,0.2089502089500427,-14.324710777288674,-2.913694612832367
1667710515888479700,11.600479736328126,2.0708836060091853,-11.553359227293729,-1.8627295158728956
1667710515898530800,11.61053076171875,4.641517645609379,-8.81556624802947,0.4538306861981749
1667710515908581600,11.62058154296875,11.315652879458666,-5.107117972317337,4.857381287209689
1667710515918632700,11.6306328125,21.289856079137323,0.9742799166858196,14.068499635469912
1667710515928683800,11.640683837890625,38.73984290349483,12.212856570726633,25.385516789019107
1667710515938734800,11.65073486328125,22.3810438808918,26.26105809905529,5.781830420538783
1667710515948785000,11.660784912109374,-15.976660822957752,30.91749040520191,-19.760274522030354
1667710515958836000,11.6708359375,-19.120643908584118,19.239276133227346,-19.53946085680723
1667710515968886800,11.68088671875,-12.07557692875862,9.840969618231057,-15.065263771164416
1667710515978937900,11.690937744140625,-10.157028787291049,-0.6413730731993913,-11.769790147387981
1667710515988988700,11.70098876953125,-12.51808688725829,-7.660435258674621,-9.459096207001805
1667710515999039700,11.711039794921875,-15.083714789134262,-10.656958669102192,-6.7071408468723295
1667710516009089800,11.72108984375,-17.9895075428009,-12.374905912292004,-4.647382153728604
1667710516019140600,11.731140625,-19.8750348736763,-10.529234790986775,-3.4532316978886723
1667710516029191700,11.741191650390626,-18.54039604295492,-4.786037760224938,-1.826254473173618
1667710516039242800,11.75124267578125,-14.13316412308216,5.5922647110164165,-1.5194319190144538
1667710516049293800,11.7612939453125,-10.533172130435705,18.448894986343383,-2.8305238699316977
1667710516059344000,11.77134375,-4.71700981670618,32.469908063495154,-3.484595973445475
1667710516069395000,11.78139501953125,6.791056562921405,37.91129481530189,0.17662644071131944
1667710516079445800,11.79144580078125,15.873304493379592,20.488918466925618,5.026436415883898
1667710516089496800,11.801496826171874,9.576281739968062,8.166406174215673,3.815440915966034
1667710516099548000,11.8115478515625,2.3232898025870323,4.924567694514989,2.1639786538138983
1667710516109598700,11.8215986328125,1.4603671511054037,3.5337492959320542,-1.1992112463608384
1667710516119648800,11.831648681640624,5.060285493993759,4.053007563069462,-4.288559363219142
1667710516129699600,11.841699462890626,10.612095445024966,4.318932874172925,-6.676837478545307
1667710516139750700,11.851750732421875,14.207744440031052,2.8969740719169375,-8.05106539233327
1667710516149801700,11.8618017578125,13.422955998587607,1.4922738629758356,-4.728866258716583
1667710516159852800,11.871852783203124,11.015832897537946,1.2358142993539571,2.393303542272746
1667710516169903900,11.88190380859375,9.109364485442638,1.9826596713721751,6.371100381535292
1667710516179954000,11.891953857421875,7.700281531372666,1.3629472258388995,7.743716768473386
1667710516190004700,11.902004638671874,7.284289577442407,-0.5689128171443939,9.248623318529129
1667710516200055800,11.912055908203126,7.01309363245964,-2.681332256373763,10.996457165938615
1667710516210107000,11.92210693359375,6.540545094048976,-4.435734376257658,12.935130396068095
1667710516220158000,11.932157958984375,6.546145982795953,-5.624599292910099,14.8184809674263
1667710516230208500,11.94220849609375,7.4785460751295085,-7.343166713824868,16.57962087113261
1667710516240258800,11.9522587890625,9.048507573419808,-10.116862781119346,18.8298466065526
1667710516250309600,11.9623095703125,12.381598687928914,-12.21125848788023,20.28912420885563
1667710516260360700,11.972360595703124,12.358055315256118,-12.557054623556136,18.090067519658803
1667710516270411800,11.982411865234376,9.389348132514954,-12.046141575437783,12.497685904264449
1667710516280462800,11.992462890625,9.34414588574171,-10.579217257773875,5.148818348449469
1667710516290513000,12.002512939453124,10.509759690666199,-5.77381604090929,-2.0257091240257026
1667710516300563700,12.012563720703126,8.800486167797446,-3.249377643033862,-5.570882900291681
1667710516310614800,12.02261474609375,1.749545327502489,-2.4149229611456393,-6.768166101199388
1667710516320665900,12.032665771484375,-3.092370387288928,-0.19215104984045028,-5.3114451976418495
1667710516330717000,12.042717041015624,-1.342186761882901,2.6445272510677573,-3.7151562489181753
1667710516340767700,12.052767822265626,-1.6718430791407823,9.230282190674544,-2.6682795903161165
1667710516350817800,12.06281787109375,0.7933996179223061,23.48756252276897,-3.3156241391405463
1667710516360868600,12.07286865234375,3.676941376814246,36.66180913347006,-6.0080175954937936
1667710516370919700,12.082919677734376,1.9711457591891288,40.01763581140041,-8.660362826836108
1667710516380970800,12.092970703125,-1.6643594453871249,27.433763323545453,-7.769805149453878
1667710516391021800,12.103021728515625,-3.6556022361874576,15.928219155871867,-7.810119039663672
1667710516401072600,12.11307275390625,-5.333313330578804,10.897760644865036,-6.945742097720504
1667710516411122700,12.123122802734375,-6.441058299380541,8.767957524636387,-5.491048900598288
1667710516421173800,12.133173828125,-6.456250023293495,9.937148019003867,-5.786285646381974
1667710516431224800,12.143224853515624,-2.212357046405226,11.016749427860974,-6.322890769639611
1667710516441276000,12.15327587890625,0.2660112358212471,8.961181172144412,-2.5818536450117824
1667710516451326700,12.16332666015625,-1.0981892049491404,6.690871264594793,2.5976971108317373
1667710516461377800,12.173377685546875,-3.47202553794682,5.116148835512996,5.6845168782562014
1667710516471427600,12.183427490234376,-5.645806916111708,3.9806174496412274,5.935398349484801
1667710516481478700,12.193478759765625,-7.2823431195497506,2.9868653552442788,4.121068122860789
1667710516491529700,12.20352978515625,-7.770645691931247,1.4781436308145521,3.2840807076245544
1667710516501580800,12.213580810546874,-7.49909552668333,-0.633109687244892,1.5489305468298493
1667710516511631600,12.223631591796876,-7.537893751633167,-3.233956202018261,-1.630715680591017
1667710516521682700,12.2336826171875,-8.780700686353445,-6.02199234483242,-4.68879319152534
1667710516531732700,12.243732666015624,-10.618864208507537,-8.786103422179817,-6.637562868255376
1667710516541783800,12.25378369140625,-11.69426056689024,-11.910064879518746,-7.601558706814051
1667710516551835000,12.2638349609375,-12.074283966338633,-16.04847167519331,-7.310743869125843
1667710516561886000,12.273885986328125,-11.679628814947604,-21.069538088476655,-6.684476010599732
1667710516571936800,12.283936767578124,-12.129376323485374,-24.503459228956697,-6.805252261534333
1667710516581986600,12.293986572265625,-10.734740996962785,-24.463272179996967,-6.720387281936406
1667710516592037600,12.30403759765625,-6.156437055635452,-21.435322534692286,-3.547461887203157
1667710516602088700,12.314088623046874,-2.4781772896990177,-18.12416852670312,-1.969000563853979
1667710516612139800,12.324139892578126,-0.18937720121294258,-15.33637203786373,-3.190145117342472
1667710516622190600,12.334190673828125,2.6247268643155692,-12.318757908612488,-2.830286554044485
1667710516632241700,12.34424169921875,6.71648384475708,-8.836617219364642,-0.5054238395849242
1667710516642291700,12.354291748046874,12.772109579122066,-3.5319138971984385,5.32934793407917
1667710516652342800,12.3643427734375,20.36610340363979,4.323029788097739,11.349392651975155
1667710516662393900,12.374393798828125,33.398912083649634,11.568740336298942,9.140164112854004
1667710516672445000,12.38444482421875,40.76330337181091,22.43385660266876,7.146154779949784
1667710516682495700,12.394495849609376,-4.001748792736232,33.9387858533144,-12.858382671952247
1667710516692546800,12.404546875,-32.62295693700313,18.535711684530973,-22.215063045096397
1667710516702596600,12.4145966796875,-17.779522730106116,7.4398530641198155,-19.40017864284515
1667710516712647700,12.424647705078126,-13.325613230210543,-1.4457809918701647,-17.43827417473197
1667710516722698800,12.43469873046875,-15.36211204379797,-9.332149742999672,-15.436128881645201
1667710516732749800,12.444749755859375,-17.689830184221268,-13.93629481254816,-12.827146991211174
1667710516742800600,12.454800537109374,-18.042319095534086,-15.747818165057897,-10.347898565149306
1667710516752851700,12.464851806640626,-16.680640282195807,-14.168670320749282,-8.882404572549461
1667710516762901800,12.47490185546875,-13.368372175484895,-8.99518573307693,-6.106497843468189
1667710516772953000,12.484953125,-10.56766242905855,-0.9981243181318044,-3.0634374305322765
1667710516783004200,12.495004150390624,-8.63128520091176,14.591162742614745,-3.1396283975481984
1667710516793055000,12.505054931640625,-4.392551068091392,37.493847986388204,-2.643780232092738
1667710516803106000,12.51510595703125,6.585475538143515,50.09014507153034,4.918514385825396
1667710516813156000,12.525156005859374,19.969659615266323,35.170200456404686,14.889252539741992
1667710516823207200,12.535207275390626,13.939496823459862,13.792238223791122,12.486993829858303
1667710516833258200,12.54525830078125,2.8208576314419505,6.573368920764326,7.407481657347082
1667710516843308800,12.555308837890625,0.0054430678367614746,3.13858151884377,2.9075772989958524
1667710516853359900,12.56535986328125,3.6855601520776746,1.5849018777906894,-1.128695986893773
1667710516863411000,12.575410888671875,9.977384167802333,1.6307412534236907,-5.145337520596384
1667710516873462000,12.5854619140625,12.13315116584897,0.9710650462925433,-7.133049799183011
1667710516883512000,12.595511962890624,10.545483330476284,-0.013327099084854126,-5.406046558356285
1667710516893563100,12.605563232421876,8.753846581697463,-0.2703857976436615,-0.031510552159696815
1667710516903614000,12.615614013671875,7.804798721423745,1.1344359918504954,4.37371894184947
1667710516913665000,12.6256650390625,6.034000762534141,1.3493629371225833,6.2794011720031495
1667710516923716000,12.635716064453124,5.337428364682197,0.3171229988992214,7.360097390359639
1667710516933766100,12.64576611328125,5.39106175519228,-1.0576730701655148,8.617630185046792
1667710516943817200,12.655817138671875,6.275619315376877,-2.205031671953201,10.346693281012772
1667710516953868000,12.665867919921874,10.72734679505825,-5.19560757215321,13.208413084197044
1667710516963918800,12.6759189453125,17.98219985013604,-10.226301645481586,18.064052788436413
1667710516973970000,12.685969970703125,17.82968055346012,-12.225530174338816,21.747010649061203
1667710516984021000,12.69602099609375,10.514155295276641,-10.811443128371238,19.879870038747786
1667710516994071000,12.706071044921876,4.430887520748376,-10.674251164686678,15.42466173121333
1667710517004122000,12.7161220703125,3.9768423150166865,-11.86850654220581,11.508829180693626
1667710517014173000,12.7261728515625,6.605401304841041,-12.62677873264551,6.832080062705278
1667710517024224000,12.73622412109375,8.286622453179955,-10.095582677203415,-0.5238787665449083
1667710517034275000,12.746275146484376,10.190793109726906,-6.472535387662052,-4.561777169418335
1667710517044326100,12.756326171875,10.098543865096568,-5.150752531382441,-6.017994799628854
1667710517054376200,12.766376220703124,5.518903706729412,-4.200038783723116,-5.667358238184452
1667710517064427300,12.77642724609375,0.25720775164067744,-2.1474586039066312,-3.274230344739556
1667710517074478000,12.78647802734375,-3.770801563772559,-0.14020225141644477,-0.14401640287712217
