time,seconds_elapsed,z,y,x
1667710504309961000,0.0219609375,-9.575450549840927,-1.8025322368025778,-1.1099607451550662
1667710504320011800,0.03201171875,-9.585018588653206,-1.7648508870534598,-1.0877062432490288
1667710504330062800,0.042062744140625,-9.593965865218639,-1.7400519613616168,-1.0480563699059189
1667710504340113000,0.05211279296875,-9.601959202060103,-1.7272341269731522,-0.9946973393578081
1667710504350164000,0.0621640625,-9.608755438071489,-1.7237087293259798,-0.9332909767586738
1667710504360215000,0.072215087890625,-9.614206104692816,-1.7269170238479972,-0.8690127119850367
1667710504370265900,0.082265869140625,-9.618253918778896,-1.7358296674914657,-0.8040328748133033
1667710504380316000,0.09231591796875,-9.621032735842466,-1.7491894998021422,-0.7392218183372169
1667710504390367000,0.102366943359375,-9.622601592594384,-1.7655436916232108,-0.6773354902014136
1667710504400417800,0.112417724609375,-9.622977440169453,-1.784065290611237,-0.6211239928316324
1667710504410468900,0.12246875,-9.622123453688621,-1.8060450672291217,-0.5686183642424643
1667710504420519000,0.132518798828125,-9.619975920265912,-1.8331509546890854,-0.5157542045392096
1667710504430570000,0.142570068359375,-9.616756958219408,-1.8646039314426481,-0.4600294312404468
1667710504440620800,0.152620849609375,-9.612826633033157,-1.8975085683092474,-0.40423615928273643
1667710504450671900,0.162671875,-9.608612230208516,-1.9281021517544983,-0.3569015401232987
1667710504460723000,0.172722900390625,-9.604486674711108,-1.9541322266764938,-0.32493604727033526
1667710504470773000,0.18277294921875,-9.600651626592875,-1.9758441461384295,-0.30645662518991157
1667710504480824000,0.192823974609375,-9.59715092499554,-1.994778855971992,-0.2931447602068074
1667710504490875000,0.202875,-9.594144728916882,-2.011495743625611,-0.27687201785780485
1667710504500926000,0.212926025390625,-9.591830606755614,-2.0252464749500154,-0.2560236381563358
1667710504510975700,0.222975830078125,-9.590317279583216,-2.034768628793955,-0.2364545211430639
1667710504521026800,0.23302685546875,-9.589548048776388,-2.0397769584752616,-0.22419755377406253
1667710504531078000,0.243077880859375,-9.589239421218632,-2.041790928646177,-0.21899350059125572
1667710504541129000,0.25312890625,-9.589140637019277,-2.0425484690152107,-0.21624789167754352
1667710504551179800,0.2631796875,-9.589206103470922,-2.042585001633316,-0.21297539107920602
1667710504561229800,0.273229736328125,-9.589584289133548,-2.0411111296884714,-0.21006659096041694
1667710504571281000,0.283281005859375,-9.590472177883981,-2.036845435068011,-0.21092801182903348
1667710504581332000,0.29333203125,-9.592093057084083,-2.0284550617329775,-0.21794625656064598
1667710504591383000,0.303383056640625,-9.594762568554282,-2.0142833285175263,-0.23147200175644828
1667710504601432800,0.313432861328125,-9.59845733141899,-1.9942323280051348,-0.25107036313051356
1667710504611484000,0.32348388671875,-9.602816695672272,-1.9703683450758456,-0.27191951001696285
1667710504621534700,0.33353466796875,-9.607264907252787,-1.9469798707038164,-0.28304434981718657
1667710504631585800,0.343585693359375,-9.611506782606243,-1.927543348827958,-0.27183435248415916
1667710504641636900,0.353636962890625,-9.615563364520668,-1.9124223520636559,-0.23231325661987065
1667710504651687000,0.36368701171875,-9.61945744934976,-1.8993859064884482,-0.16958318940261377
1667710504661738000,0.373738037109375,-9.623529813355207,-1.8841149798594414,-0.0904030413749162
1667710504671789000,0.3837890625,-9.62790846683085,-1.8638024058014153,-0.000356268053965141
1667710504681839900,0.39383984375,-9.632826634010671,-1.835964696935564,0.09093523942232132
1667710504691890000,0.403889892578125,-9.639054714745283,-1.7974241000086069,0.16814174015633762
1667710504701941000,0.41394091796875,-9.64661375182271,-1.7502004304103553,0.22366563885444773
1667710504711992000,0.423991943359375,-9.653950670582056,-1.7033280584678052,0.26511969380900263
1667710504722043000,0.43404296875,-9.658985157617925,-1.6683941077306865,0.30141632946776226
1667710504732093000,0.444093017578125,-9.660255323684215,-1.6541320658832788,0.33718484959919004
1667710504742143700,0.454143798828125,-9.656617843964696,-1.6666237370572983,0.3774638876913115
1667710504752194800,0.46419482421875,-9.647548402324318,-1.707166613717377,0.42517486588247116
1667710504762245400,0.474245361328125,-9.633602294558287,-1.7710040028557181,0.47711127974893897
1667710504772296400,0.48429638671875,-9.616245501565933,-1.849305532284826,0.5275198629936203
1667710504782346500,0.494346435546875,-9.597761165848373,-1.9305660576499997,0.5712047640064731
1667710504792397600,0.5043974609375,-9.58072176824212,-2.003928377111256,0.603676050957106
1667710504802448400,0.514448486328125,-9.567268996950984,-2.061230519261956,0.6237642782073468
1667710504812499500,0.52449951171875,-9.559010287171601,-2.0969927375167607,0.6311289617564528
1667710504822549500,0.534549560546875,-9.55655412619114,-2.10879949516654,0.6289814283337444
1667710504832600600,0.5446005859375,-9.559289688634871,-2.09783327999413,0.6240681565247476
1667710504842651600,0.554651611328125,-9.566247837209701,-2.066557705634087,0.6217956815481186
1667710504852702700,0.56470263671875,-9.576306874409317,-2.0184138524509967,0.625088950939849
1667710504862753300,0.574753173828125,-9.588109540405869,-1.9577967405334114,0.6368478508599102
1667710504872803300,0.58480322265625,-9.60013724732995,-1.8907240227356552,0.6579577127754688
1667710504882854400,0.5948544921875,-9.611016368740797,-1.8243239435024559,0.6860000043027102
1667710504892905500,0.604905517578125,-9.619562078768015,-1.764841973094642,0.7209321284089237
1667710504902956500,0.61495654296875,-9.623553194230794,-1.726040825535357,0.7605237687587738
1667710504913006600,0.625006591796875,-9.620493806660175,-1.7252724715113639,0.799948089717701
1667710504923057700,0.6350576171875,-9.611155484950542,-1.7550789962321518,0.8460338413272053
1667710504933108500,0.6451083984375,-9.597276012679934,-1.804275573338568,0.8984781681831926
1667710504943159600,0.65515966796875,-9.581323241266608,-1.8677378455542026,0.9381838633667677
1667710504953210600,0.665210693359375,-9.56524304408133,-1.9416933086030184,0.952017377603799
1667710504963260400,0.675260498046875,-9.550028523814678,-2.022948573271185,0.9354223627641797
1667710504973311500,0.6853115234375,-9.534891160437464,-2.1140369574286044,0.8871781910117715
1667710504983362600,0.695362548828125,-9.519166352561117,-2.2134699760831893,0.8101904475949704
1667710504993413400,0.705413330078125,-9.502312248393892,-2.319117046947032,0.7057909656394272
1667710505003463400,0.71546337890625,-9.482863451558352,-2.430208793082833,0.5829026544542982
1667710505013514500,0.725514404296875,-9.458820897191762,-2.5470804377943277,0.4620268886679783
1667710505023565600,0.735565673828125,-9.42997357289195,-2.667952550318837,0.35777916320804504
1667710505033616600,0.74561669921875,-9.398789330077172,-2.785746570572257,0.2697429879617877
1667710505043667500,0.75566748046875,-9.368653719532489,-2.891622189494967,0.192949104882963
1667710505053717500,0.765717529296875,-9.342398749813437,-2.979013180439174,0.12432325762538239
1667710505063768300,0.775768310546875,-9.321582756277918,-3.0454566604226825,0.060633510496537195
1667710505073819400,0.7858193359375,-9.304642727392912,-3.0973949374526737,-0.012329731211112811
1667710505083870500,0.795870361328125,-9.290020327800512,-3.1395451031789183,-0.09575771854217163
1667710505093920500,0.80592041015625,-9.27582988988459,-3.1771725307837126,-0.18692388977669178
1667710505103971600,0.8159716796875,-9.25940131765306,-3.2168618593543767,-0.2926960483249277
1667710505114022400,0.8260224609375,-9.239853152096272,-3.26061770671159,-0.40480307245049624
1667710505124073500,0.836073486328125,-9.21799787864089,-3.3073671829268334,-0.5101212401535362
1667710505134124500,0.84612451171875,-9.196245481038092,-3.3521643560305234,-0.6020324850011617
1667710505144174600,0.856174560546875,-9.177422707146405,-3.3877211148411033,-0.6845746476747095
1667710505154225700,0.8662255859375,-9.164870684087276,-3.404887353697419,-0.7630673157617449
1667710505164276500,0.8762763671875,-9.161107532161473,-3.397050668722391,-0.8393686843495816
1667710505174327600,0.88632763671875,-9.166633017584681,-3.362622329419851,-0.9143255795259028
1667710505184377300,0.89637744140625,-9.18041838183105,-3.303522782458365,-0.9884528920102864
1667710505194428400,0.906428466796875,-9.200407276892662,-3.22504341224432,-1.0592408309388905
1667710505204479500,0.9164794921875,-9.224331757837533,-3.138275229373574,-1.110549504828453
1667710505214530600,0.926530517578125,-9.249353970891237,-3.056994538003206,-1.1289876633167266
1667710505224581400,0.936581298828125,-9.272500453200935,-2.985945610050857,-1.1292691106066106
1667710505234631400,0.94663134765625,-9.292267229944468,-2.922031064023077,-1.1339695433825254
1667710505244682500,0.9566826171875,-9.30822643109858,-2.862530535045266,-1.154652485122904
1667710505254733600,0.966733642578125,-9.319586614024638,-2.808714189183712,-1.1944926934063433
1667710505264784600,0.97678466796875,-9.326454746228457,-2.762761708565056,-1.24690560221076
1667710505274834400,0.98683447265625,-9.330261152774096,-2.7229008228197693,-1.30476771633178
1667710505284885500,0.996885498046875,-9.333212988317012,-2.683786956049502,-1.3633794797763228
1667710505294936300,1.006936279296875,-9.33467195495367,-2.64504455294013,-1.427594762316346
1667710505304987400,1.0169873046875,-9.333425754284859,-2.6084789093479515,-1.5011303925178945
1667710505315038500,1.02703857421875,-9.32846140987575,-2.5785084262371063,-1.5816088275946676
1667710505325088500,1.037088623046875,-9.319680137526989,-2.5600875111445784,-1.6612947971194982
1667710505335139600,1.0471396484375,-9.30884134812653,-2.550525902073085,-1.735129702528566
1667710505345190400,1.0571904296875,-9.298853038075565,-2.5463161754235624,-1.793876344399154
1667710505355241500,1.067241455078125,-9.291663418832421,-2.547648593071103,-1.8288962198540568
1667710505365292500,1.07729248046875,-9.2881223852247,-2.556418174982071,-1.8346371015936136
1667710505375342600,1.087342529296875,-9.287453692182899,-2.5744100510075687,-1.8127338973432778
1667710505385393400,1.097393310546875,-9.288872326809168,-2.601159233984351,-1.766693007788807
1667710505395444500,1.107444580078125,-9.29069428153932,-2.633775847689807,-1.7078092955350874
1667710505405495300,1.117495361328125,-9.293404709541797,-2.6660964010581374,-1.6416276813581585
1667710505415545300,1.12754541015625,-9.298147520154714,-2.6900828413233158,-1.574259633875638
1667710505425596400,1.137596435546875,-9.305608942076564,-2.6991885233208537,-1.5134109051592648
1667710505435647500,1.1476474609375,-9.31495603161454,-2.69474703374207,-1.462982740431279
1667710505445698600,1.157698486328125,-9.324317149677873,-2.6838617748513816,-1.4228059206046164
1667710505455748600,1.16774853515625,-9.333274363115429,-2.672299931873381,-1.3853471275649965
1667710505465799700,1.177799560546875,-9.342016472497582,-2.6620632000192996,-1.3455612067520617
1667710505475850500,1.1878505859375,-9.35015126363635,-2.6525483526989815,-1.3073038106806576
1667710505485901600,1.197901611328125,-9.356935224688053,-2.643316121712327,-1.2771167622096835
1667710505495952600,1.20795263671875,-9.361614906936884,-2.634990191915631,-1.259911068125814
1667710505506002400,1.21800244140625,-9.364201416298746,-2.627250245313346,-1.2568509499028324
1667710505516053500,1.228053466796875,-9.366125662359595,-2.6155422718629238,-1.2668895288363098
1667710505526104600,1.2381044921875,-9.369003848144411,-2.5971806857421993,-1.283276892274618
1667710505536155400,1.2481552734375,-9.373364381441473,-2.572650347858667,-1.3007273548997937
1667710505546206500,1.25820654296875,-9.379943175309895,-2.542365099710226,-1.3127937863990664
1667710505556256500,1.268256591796875,-9.388649044334889,-2.5106550794556735,-1.3115899635672568
1667710505566307600,1.2783076171875,-9.39860579020381,-2.483922555352747,-1.2910181540511547
1667710505576358700,1.288358642578125,-9.408064523422718,-2.469288173061609,-1.2495284980602561
1667710505586409500,1.298409423828125,-9.414994614946842,-2.4722233497306703,-1.1901161588225513
1667710505596459300,1.308459228515625,-9.41831586832404,-2.495143622069061,-1.113539772685617
1667710505606510300,1.31851025390625,-9.417829546111822,-2.5369904209345577,-1.019091410575807
1667710505616561400,1.3285615234375,-9.412782199594378,-2.5974600872054694,-0.9072576869662851
1667710505626612500,1.338612548828125,-9.402700366041064,-2.673881355845928,-0.7810027854248881
1667710505636663600,1.34866357421875,-9.387645420250296,-2.7611665483281014,-0.646885845271498
1667710505646713600,1.358713623046875,-9.368040556070207,-2.8538346028923987,-0.5155892597684636
1667710505656764400,1.368764404296875,-9.345089304071664,-2.9466607706278563,-0.39608708389028907
1667710505666815500,1.3788154296875,-9.32131738334,-3.032116701856255,-0.2994918459448963
1667710505676866600,1.388866455078125,-9.301974384966492,-3.095864951406419,-0.24347263801051303
1667710505686916600,1.39891650390625,-9.289031901285052,-3.136869454228878,-0.21053696668483315
1667710505696967700,1.4089677734375,-9.280563932669162,-3.1626985997512933,-0.197115248119086
1667710505707018500,1.4190185546875,-9.27465383184254,-3.179688020735979,-0.20190609912481158
1667710505717069300,1.4290693359375,-9.269032484829426,-3.1955186270743607,-0.20996095689516514
1667710505727120400,1.439120361328125,-9.26154475942254,-3.216813344037533,-0.21514584871977566
1667710505737170400,1.44917041015625,-9.25195918495357,-3.244119868636131,-0.21754421509839594
1667710505747221500,1.459221435546875,-9.242849411302805,-3.2704546255931257,-0.2103417181073688
1667710505757272800,1.46927294921875,-9.238038211628794,-3.2854061110094186,-0.18746897470513357
1667710505767324000,1.479323974609375,-9.2406960326612,-3.2797800878211856,-0.15153214880209415
1667710505777374000,1.4893740234375,-9.252415696549415,-3.2483748957321046,-0.10607915127133019
1667710505787425000,1.499425048828125,-9.271796104323863,-3.193952985192835,-0.053308793631638395
1667710505797476000,1.50947607421875,-9.294846140521765,-3.1266920513465997,0.004343179447228613
1667710505807527200,1.519527099609375,-9.316984322571754,-3.0594270258471368,0.06399410493685863
1667710505817578000,1.529577880859375,-9.334659095472096,-3.003049889586866,0.12735340083520857
1667710505827628000,1.5396279296875,-9.34578722320795,-2.9644354967713356,0.1969096242780797
1667710505837679000,1.54967919921875,-9.350893606436252,-2.9421903472155333,0.27328603086350484
1667710505847730200,1.559730224609375,-9.35304172438085,-2.926246051369607,0.35787721675504
1667710505857781000,1.569781005859375,-9.356160148662328,-2.903834313075244,0.4476566372057423
1667710505867831000,1.5798310546875,-9.3635409065634,-2.8641984682574866,0.5393099252369254
1667710505877882000,1.589882080078125,-9.377187739121913,-2.79991479665637,0.6318326530463994
1667710505887933000,1.599932861328125,-9.397844742703438,-2.707143866239488,0.7226837213166057
1667710505897984000,1.60998388671875,-9.4254990578264,-2.585289756940305,0.8041305630341172
1667710505908035000,1.62003515625,-9.458871750596165,-2.4391199754215775,0.8665008022293448
1667710505918085000,1.630085205078125,-9.495082297140359,-2.279076566851139,0.9053204352933913
1667710505928136200,1.64013623046875,-9.530176991397141,-2.1194512375622985,0.9241404327061027
1667710505938187000,1.65018701171875,-9.56100818299055,-1.9727001490242777,0.9305714886669069
1667710505948238000,1.660238037109375,-9.585952070111036,-1.8475697945334015,0.9308014249652623
1667710505958288000,1.670287841796875,-9.604700025200843,-1.7467580348715186,0.9321808966249227
1667710505968339000,1.6803388671875,-9.617620881572366,-1.6676038341358304,0.9438485380649566
1667710505978390000,1.69039013671875,-9.62568903721571,-1.60480981657058,0.9700925479985772
1667710505988441000,1.700441162109375,-9.630597267523408,-1.5502612109117209,1.0092935815956443
1667710505998492000,1.710491943359375,-9.634254620987177,-1.493091901360452,1.0593395420730114
1667710506008542000,1.7205419921875,-9.638028878828882,-1.4255989123240111,1.1164452848687767
1667710506018593000,1.730593017578125,-9.64267699689567,-1.3450323605723677,1.174756384866312
1667710506028644000,1.74064404296875,-9.64853390623033,-1.250928574116528,1.2293734526515006
1667710506038695200,1.750695068359375,-9.655766195571422,-1.1439453592780977,1.2759136700302363
1667710506048745200,1.7607451171875,-9.664090956324339,-1.0266098233819008,1.3121728780217468
1667710506058796000,1.770796142578125,-9.671875618851184,-0.9051336074844002,1.3438514802247286
1667710506068846800,1.780846923828125,-9.676967389032244,-0.7900761725880205,1.3793005408771335
1667710506078898000,1.79089794921875,-9.67798211903274,-0.6923842985123395,1.4239569903358815
1667710506088949000,1.800948974609375,-9.674388478454947,-0.6209650759428739,1.4801996865615248
1667710506098999000,1.8109990234375,-9.666375852391123,-0.5794289139291271,1.547845674202591
1667710506109050000,1.821050048828125,-9.654943773272633,-0.5644977771811187,1.6228953622289002
1667710506119101000,1.831100830078125,-9.641219199302792,-0.5653922783354297,1.7022377790130674
1667710506129152000,1.841152099609375,-9.626499769076704,-0.5707570567715913,1.7818886772245168
1667710506139202000,1.8512021484375,-9.61239291779101,-0.5729373964853585,1.8558102380037307
1667710506149253000,1.861253173828125,-9.60077028453648,-0.57025341809839,1.9158298224195838
1667710506159304200,1.87130419921875,-9.59299263627231,-0.5617257186518981,1.956870857860148
1667710506169355300,1.881355224609375,-9.589407763522862,-0.5465116733092814,1.978628662290424
1667710506179405800,1.89140576171875,-9.589963643839955,-0.5237720182348042,1.9820821637451647
1667710506189456000,1.901455810546875,-9.594266309469937,-0.49387441769707946,1.9688890663035212
1667710506199507000,1.9115068359375,-9.601364158776402,-0.45881004551332444,1.9425985868796705
1667710506209558000,1.92155810546875,-9.610289223510026,-0.4195603870015591,1.9070128942355513
1667710506219609000,1.931609130859375,-9.620264089557528,-0.3752481113379821,1.8655010264128447
1667710506229659100,1.9416591796875,-9.63094681161344,-0.32603918620664624,1.8190506792746484
1667710506239710200,1.951710205078125,-9.642320438542962,-0.2737322950599715,1.7666674349561333
1667710506249761000,1.961760986328125,-9.65351286368668,-0.2214161063619889,1.7120293974481522
1667710506259812000,1.97181201171875,-9.663216511577367,-0.17285364417433738,1.6621522907316684
1667710506269863200,1.98186328125,-9.669885321816801,-0.13119973753243683,1.6268042062357067
1667710506279913000,1.991912841796875,-9.673108960038423,-0.0972838686635252,1.6099341738469897
1667710506289964000,2.001964111328125,-9.673560795459151,-0.06811373758355621,1.6087144227936863
1667710506300014800,2.012014892578125,-9.671774496564268,-0.03824670571403112,1.620400330542773
1667710506310066000,2.02206591796875,-9.667809684586524,-0.0017576663127365463,1.644334602229297
1667710506320116000,2.032115966796875,-9.661770404422283,0.04470048496329691,1.6788608489483594
1667710506330167000,2.0421669921875,-9.653696403560042,0.10309773344090208,1.7221791816711425
1667710506340218000,2.052218017578125,-9.643134093013405,0.17538139081997794,1.774709871636331
1667710506350269200,2.062269287109375,-9.629218380385637,0.26103602295825257,1.838586423741281
1667710506360320000,2.072320068359375,-9.61149450764656,0.35584830474331974,1.9138785422213374
1667710506370370000,2.0823701171875,-9.58948901206553,0.45508645841293033,2.0012457138985393
1667710506380420900,2.0924208984375,-9.562882160168886,0.5561524850968271,2.100563874001801
1667710506390472000,2.102471923828125,-9.53187502748668,0.6555237636268139,2.20998520270735
1667710506400523000,2.11252294921875,-9.497107665488123,0.74509312152341,2.3281255521804094
1667710506410573000,2.122572998046875,-9.461030974456667,0.8176637060850859,2.447590282125026
1667710506420624100,2.1326240234375,-9.428433357712626,0.8679295929234474,2.553767368212342
1667710506430675000,2.142675048828125,-9.397831883221864,0.893546264738962,2.655695418553054
1667710506440726000,2.15272607421875,-9.359225381451845,0.8850052308868617,2.791424908469617
1667710506450777000,2.162777099609375,-9.303815628919004,0.8383413140632212,2.984389905041456
1667710506460827100,2.1728271484375,-9.22159736443758,0.752842785802111,3.250500217323005
1667710506470878200,2.182878173828125,-9.111686206388473,0.646933703001216,3.5677772377401586
1667710506480929000,2.192928955078125,-9.000788375389575,0.5631664189795031,3.8521465525507925
1667710506490980000,2.20297998046875,-8.89753316809833,0.5405264614198356,4.088045850963891
1667710506501030000,2.21302978515625,-8.823818528068065,0.6267125335536897,4.232947073851525
1667710506511081000,2.2230810546875,-8.797934729748963,0.8171644513260573,4.254288552565872
1667710506521132000,2.233132080078125,-8.785468046885729,1.0678428011979908,4.224410716174543
1667710506531183000,2.24318310546875,-8.747259020000696,1.34107938516289,4.225796325314045
1667710506541234000,2.25323388671875,-8.663688756388426,1.6158743775509297,4.30114324272126
1667710506551284000,2.263283935546875,-8.536018654286861,1.8725471455320715,4.449756764130294
1667710506561335000,2.2733349609375,-8.38044464621544,2.089298237491399,4.644713811302185
1667710506571386000,2.28338623046875,-8.236973163869976,2.2410135243080553,4.827061260008811
1667710506581437200,2.293437255859375,-8.136044938221573,2.3012271699912845,4.967848033314943
1667710506591487000,2.303487060546875,-8.03843738142848,2.265794914343208,5.140047012972832
1667710506601538000,2.3135380859375,-7.942576376041769,2.1313711001977325,5.342576248964667
1667710506611588900,2.3235888671875,-7.8328855827450745,1.9002650274105368,5.586168732228875
1667710506621640000,2.333639892578125,-7.670017910534143,1.5941634810023009,5.8991398721456525
1667710506631691000,2.34369091796875,-7.409865337613224,1.2470204607620834,6.301525325527787
1667710506641741000,2.353740966796875,-7.0240364667564625,0.8939988308120519,6.7848401726245875
1667710506651792100,2.363792236328125,-6.520767211389542,0.5723981019768863,7.302214525711536
1667710506661843000,2.373843017578125,-5.943703821015357,0.3258438828302547,7.793368980392813
1667710506671894000,2.38389404296875,-5.343550062432885,0.19230066917790098,8.220698320895433
1667710506681945000,2.393945068359375,-4.759330662824214,0.19582234049802644,8.572094176274538
1667710506691995100,2.4039951171875,-4.2105891115710135,0.34624073763825,8.84994081131816
1667710506702046200,2.414046142578125,-3.708213882434368,0.6346418652482331,9.056310356125236
1667710506712097000,2.424096923828125,-3.26244492213875,1.0263310064405202,9.190946205586194
1667710506722147800,2.43414794921875,-2.8792405545666813,1.476651930952072,9.257421542012692
1667710506732198000,2.444197998046875,-2.5405560044616458,1.9522016970053313,9.268488879472017
1667710506742249000,2.4542490234375,-2.215661933169514,2.435664428140223,9.23735665910542
1667710506752300000,2.464300048828125,-1.8895142085544765,2.9240827358558774,9.167872203990816
1667710506762350800,2.474350830078125,-1.5703649645246565,3.39873058463335,9.063827892148494
1667710506772402000,2.48440185546875,-1.2523660595737396,3.8420062668085095,8.935377453324199
1667710506782452000,2.494451904296875,-0.9181017370637505,4.260869976782798,8.784786494362354
1667710506792502800,2.504502685546875,-0.5663582372907549,4.660914419996738,8.609616974461078
1667710506802553900,2.514553955078125,-0.20087735886527225,5.0467690098166464,8.405961364787817
1667710506812605000,2.52460498046875,0.17302949393158779,5.428431993165612,8.165328315851092
1667710506822655000,2.534655029296875,0.5371115749424323,5.804731403654813,7.885874245610832
1667710506832706000,2.5447060546875,0.8818650331649929,6.168715522450208,7.572294033885002
1667710506842756900,2.5547568359375,1.1973702216040343,6.514891597354412,7.231380409553647
1667710506852807700,2.5648076171875,1.4656085588902235,6.833685744336247,6.8791767449229955
1667710506862858800,2.574858642578125,1.6803643853791057,7.116137827348709,6.535083906033635
1667710506872908800,2.58490869140625,1.8489245701432226,7.363885092204809,6.206858498361706
1667710506882960000,2.5949599609375,1.9746831395350395,7.586500838413834,5.892031501445174
1667710506893011000,2.605010986328125,2.060473563414812,7.795048896303772,5.582299781841039
1667710506903061800,2.615061767578125,2.1118404702976346,7.9959794649273155,5.270181459361314
1667710506913112800,2.62511279296875,2.1346628352195025,8.190426516750454,4.952829327881336
1667710506923163000,2.635162841796875,2.133717224932462,8.37609580335617,4.632349419769644
1667710506933214000,2.6452138671875,2.1136887285128236,8.550655666926502,4.31149278730005
1667710506943265000,2.65526513671875,2.0742000370807943,8.712481136608123,3.9950940110221502
1667710506953316000,2.665316162109375,2.023296948317438,8.861069523575901,3.6821310544118284
1667710506963366000,2.675365966796875,1.964857326569408,8.996170652461052,3.3732243874549863
1667710506973416700,2.685416748046875,1.8964815633490681,9.11918620675504,3.0682579825565215
1667710506983467800,2.6954677734375,1.8116170221425592,9.23202055877447,2.76735225122571
1667710506993518800,2.705518798828125,1.703464544329047,9.335963163807987,2.471515785983205
1667710507003570000,2.71556982421875,1.5688834937952458,9.430366371601819,2.185678006055206
1667710507013620000,2.725619873046875,1.4122626070193947,9.51518342040479,1.9071274605259299
1667710507023670800,2.7356708984375,1.245017158115655,9.59062766070664,1.6248681236065923
1667710507033721900,2.745721923828125,1.0797024580787866,9.655362875467539,1.3336413441166282
1667710507043773000,2.75577294921875,0.9186186005447059,9.708590607786178,1.0343113376699387
1667710507053822700,2.76582275390625,0.7527180634438991,9.750592597213387,0.7278554979313164
1667710507063873800,2.775873779296875,0.5579407932857051,9.781709035488962,0.42104218652453274
1667710507073924900,2.7859248046875,0.3193792899260297,9.800198631903529,0.1565293725674972
1667710507083975700,2.7959755859375,0.024797032845567446,9.806515559965371,-0.044750333720701745
1667710507094026800,2.80602685546875,-0.32710692503601313,9.799425309443473,-0.18608895505620165
1667710507104076800,2.816076904296875,-0.7224461862336844,9.775831667888164,-0.2855743980177678
1667710507114128000,2.8261279296875,-1.128989855273813,9.735497903934121,-0.3403712976155802
1667710507124179000,2.836178955078125,-1.5170140442177653,9.682861707767843,-0.33350630721691993
1667710507134230000,2.84622998046875,-1.8773950239546595,9.621855742663145,-0.2562419753484428
1667710507144280000,2.856280029296875,-2.2068919128671287,9.554445755735038,-0.11210890555540098
1667710507154331000,2.866330810546875,-2.5027117192357777,9.481582179576158,0.08013464487409219
1667710507164382000,2.8763818359375,-2.759242886789143,9.405441773703695,0.30762597949653864
1667710507174433000,2.88643310546875,-2.980635228683054,9.326173006677626,0.5556039843685925
1667710507184483800,2.89648388671875,-3.173025932498276,9.24347134259343,0.8127177741155028
1667710507194534000,2.906533935546875,-3.336189957307279,9.158588242816924,1.077255137991905
1667710507204585000,2.9165849609375,-3.4779859076559543,9.070404932451247,1.3422922680839895
1667710507214635800,2.9266357421875,-3.6120229144409297,8.975954962906242,1.5987138377830385
1667710507224686800,2.936686767578125,-3.7504283455684777,8.870392647716402,1.8495370029531417
1667710507234738000,2.946738037109375,-3.9000139268800615,8.747025211244821,2.1094620507285
1667710507244788000,2.9567880859375,-4.064003881119191,8.600766144007444,2.383501402443647
1667710507254839000,2.966839111328125,-4.230809477300942,8.439604106670618,2.653998843768239
1667710507264889900,2.976889892578125,-4.329621441447735,8.309394841480255,2.8946032511323687
1667710507274941000,2.98694091796875,-4.32532228294909,8.229404189920425,3.120718237634003
1667710507284992000,2.996991943359375,-4.246897273270785,8.17620626821816,3.359152315221727
1667710507295041800,3.007041748046875,-4.12676399641484,8.107953400725126,3.660777592998743
1667710507305092900,3.0170927734375,-3.978359733842313,8.00186443131268,4.0389606252774595
1667710507315144000,3.02714404296875,-3.793758368729055,7.86226774457395,4.467942701423168
1667710507325194800,3.03719482421875,-3.568109246173501,7.69413879083395,4.9233320152401925
1667710507335244800,3.047244873046875,-3.3060666217222807,7.505583135136962,5.376477934044599
1667710507345296000,3.0572958984375,-3.0225767200946807,7.310776017829776,5.795426399692893
1667710507355347000,3.067346923828125,-2.729562326535582,7.1227294806987045,6.1633285687148565
1667710507365398000,3.07739794921875,-2.4393985001020133,6.93894177005589,6.486202678486705
1667710507375448800,3.08744873046875,-2.1643495329529046,6.752989574855565,6.773707368713617
1667710507385499000,3.097498779296875,-1.9079832005724309,6.568624941107631,7.027313880991935
1667710507395549700,3.1075498046875,-1.6711038050808011,6.3804042164534325,7.257287588748335
1667710507405600800,3.117600830078125,-1.462605723812431,6.178822490444779,7.47350749644041
1667710507415651800,3.12765185546875,-1.2884537103906273,5.969118248257041,7.673323966342211
1667710507425702000,3.137701904296875,-1.1406320700116455,5.758869816190004,7.855238284328579
1667710507435753000,3.1477529296875,-0.9998029919337481,5.553972682023048,8.02023536978364
1667710507445803800,3.1578037109375,-0.8559876645866781,5.38984945679307,8.147834744736551
1667710507455854800,3.167854736328125,-0.7045970796797424,5.266483773887157,8.242454810151457
1667710507465906000,3.177906005859375,-0.5318518277833237,5.163517320409417,8.320192129826545
1667710507475956000,3.1879560546875,-0.36939408808015284,5.100034151536226,8.368007773968577
1667710507486007000,3.198007080078125,-0.23020954407257957,5.083375277680158,8.383118833860754
1667710507496058000,3.20805810546875,-0.11381096023293212,5.111610023039579,8.368326338398456
1667710507506108700,3.218108642578125,-0.008036654822560376,5.171023165994883,8.332517358392476
1667710507516159700,3.22815966796875,0.055382184105901976,5.233720152926445,8.293098371195793
1667710507526209800,3.238209716796875,0.0698284325469518,5.282170587840676,8.262213403588532
1667710507536260900,3.2482607421875,0.06874407594292424,5.304584664222598,8.247848778149486
1667710507546312000,3.25831201171875,0.08358220064523629,5.29562920435071,8.253466618031263
1667710507556362800,3.26836279296875,0.12909518473492934,5.261645686206221,8.274587731993197
1667710507566412800,3.278412841796875,0.19197262453362346,5.207482134342193,8.307566457009315
1667710507576464000,3.2884638671875,0.24767783461539072,5.13622599337995,8.350342353418469
1667710507586515000,3.298514892578125,0.2871923911410384,5.062098680895566,8.394228256896138
1667710507596566000,3.30856591796875,0.3184952371004969,5.019927180120349,8.418388884684443
1667710507606617000,3.3186171875,0.33362357692103833,5.027862649294733,8.413063890269399
1667710507616667000,3.3286669921875,0.32774657464642076,5.065532162475586,8.390672025719285
1667710507626717700,3.3387177734375,0.3313680165465921,5.118011706775427,8.3586209369421
1667710507636768800,3.348768798828125,0.3559008386481553,5.183712551698088,8.317021683096884
1667710507646819800,3.35881982421875,0.36843083253856745,5.242044913679361,8.279832062387467
1667710507656871000,3.368870849609375,0.3628638825938105,5.289982722896338,8.249533370235563
1667710507666921000,3.3789208984375,0.3488076289841905,5.346227757209539,8.21380213164091
1667710507676972000,3.388971923828125,0.32282431581337,5.414845950883627,8.169799908307194
1667710507687022800,3.39902294921875,0.2918216218442656,5.473847590428591,8.13155581010878
1667710507697074000,3.409073974609375,0.2494185773354955,5.517714789205789,8.103270211344958
1667710507707123700,3.419123779296875,0.18666589642763137,5.561566790413856,8.074930252045393
1667710507717174800,3.4291748046875,0.12090002344474196,5.603016406655311,8.04748227314949
1667710507727225900,3.439225830078125,0.06557148292195052,5.639827841702103,8.022370043724775
1667710507737276700,3.449276611328125,0.03846046719572041,5.668640094688534,8.002215728968382
1667710507747327700,3.45932763671875,0.012487401424278505,5.6761821806311605,7.996948017698526
1667710507757377800,3.469377685546875,-0.049001419860497115,5.654990339520573,8.011806564134359
1667710507767428900,3.479428955078125,-0.14606198289585298,5.60872543195188,8.043087837582826
1667710507777480000,3.48947998046875,-0.2805868553961627,5.553718999522924,8.077613207519054
1667710507787531000,3.499531005859375,-0.44925453738905485,5.499472445550561,8.107054406058788
1667710507797581800,3.509581787109375,-0.643431247838214,5.441943801167607,8.1327505728513
1667710507807632000,3.5196318359375,-0.850522531048581,5.374783989608288,8.158352631619572
1667710507817683000,3.529682861328125,-1.0591281643446535,5.293514988675713,8.18702167674303
1667710507827734000,3.539734130859375,-1.254412616840005,5.199899716389179,8.21935918124616
1667710507837785000,3.54978515625,-1.4312214283809066,5.099099501034617,8.253554296314716
1667710507847835000,3.5598349609375,-1.587714158732444,5.000832603549957,8.284999235892295
1667710507857886000,3.569885986328125,-1.7226482604876159,4.905308867293596,8.315094514426589
1667710507867936800,3.579936767578125,-1.8554839286588132,4.797403496108949,8.349400104132295
1667710507877987800,3.58998779296875,-2.009030522555858,4.6824750944197175,8.379056991249323
1667710507888039000,3.600038818359375,-2.181645389538258,4.578007004207373,8.393606910127401
1667710507898089000,3.6100888671875,-2.367772502914071,4.482781666375696,8.394563772460819
1667710507908140000,3.62014013671875,-2.551630648444593,4.406623140324652,8.381004033663869
1667710507918190800,3.63019091796875,-2.7176965321749447,4.358676855540275,8.35382727292478
1667710507928242000,3.640241943359375,-2.8567981288731095,4.334313983178139,8.320024956566094
1667710507938293000,3.65029296875,-2.973834024235606,4.323015759572386,8.284818034106493
1667710507948342800,3.6603427734375,-3.0692911249965427,4.317247113043069,8.252951654246448
1667710507958393900,3.670393798828125,-3.1255121939122676,4.316586603307724,8.232171316546202
1667710507968445000,3.68044482421875,-3.1328327460587024,4.3286119721442455,8.223069726201892
1667710507978495700,3.690495849609375,-3.0865441653534766,4.360391842764615,8.223783427429199
1667710507988546800,3.700546875,-2.978327536262572,4.4109044709056615,8.236739939635992
1667710507998596900,3.710596923828125,-2.831781468777358,4.480754252201319,8.25071118184328
1667710508008648000,3.72064794921875,-2.6730989732965824,4.564902315701544,8.257518523770571
1667710508018699000,3.730698974609375,-2.5508792455554006,4.660294534532725,8.24288034208715
1667710508028749800,3.740749755859375,-2.4944743445053694,4.764644551323354,8.20037391026914
1667710508038800100,3.750800048828125,-2.5120874503463506,4.875430738641321,8.129575449946522
1667710508048851000,3.760850830078125,-2.59230255831182,4.982656895390153,8.038872850236297
1667710508058902000,3.770902099609375,-2.70362475220263,5.0774838815540075,7.9422893757939335
1667710508068952800,3.780952880859375,-2.8157646922171113,5.159205886951089,7.850124302315711
1667710508079004000,3.79100390625,-2.8883617263942956,5.239745989087224,7.769993950024246
1667710508089054000,3.801053955078125,-2.9144676430314775,5.323683332446217,7.702899604916572
1667710508099104800,3.811104736328125,-2.92245542691499,5.413393998509645,7.6370684116125105
1667710508109155800,3.82115576171875,-2.9256676669597623,5.520092624253034,7.5590622118681665
1667710508119207000,3.83120703125,-2.9087220851168034,5.674937149006128,7.450154093381762
1667710508129258000,3.841258056640625,-2.870563034853339,5.887392735728621,7.29855191155076
1667710508139308000,3.85130810546875,-2.8218820060536265,6.135524615988135,7.11074619743824
1667710508149359000,3.861359130859375,-2.773696359555423,6.411467463237047,6.882591521802544
1667710508159410000,3.871409912109375,-2.7264903717443345,6.713633716022968,6.607856881299615
1667710508169461000,3.8814609375,-2.656183786591887,7.038045702886581,6.291342369687557
1667710508179512000,3.891511962890625,-2.54341110163182,7.380085116377472,5.935975857111811
1667710508189561900,3.901561767578125,-2.381702244067192,7.726505521431565,5.5496840449184175
1667710508199613000,3.911613037109375,-2.173689023706317,8.06460291929841,5.13883705266118
1667710508209663700,3.921663818359375,-1.933131816484779,8.38191647233367,4.709231291659176
1667710508219714800,3.93171484375,-1.68080394584015,8.666879076862335,4.269716715583205
1667710508229764900,3.941764892578125,-1.4327832708701491,8.913152762034535,3.8305624972522256
1667710508239816000,3.95181591796875,-1.2017942485913633,9.120766169422865,3.3967195370718835
1667710508249867000,3.961866943359375,-1.0000369468200951,9.29425811150074,2.9642995954319833
1667710508259918000,3.97191796875,-0.8391675357542931,9.435924590250849,2.535651281285286
1667710508269969000,3.981968994140625,-0.7183517565269023,9.54703986339271,2.123297245465964
1667710508280018700,3.992018798828125,-0.6208118581425398,9.631124506267904,1.7396578474774955
1667710508290069800,4.00206982421875,-0.5258849918007851,9.692123457109927,1.3987773947633801
1667710508300120800,4.012120849609375,-0.4243715501429513,9.734621121099591,1.1079022051900624
1667710508310172000,4.022171875,-0.30754129688777027,9.762833070105314,0.8734351315371691
1667710508320223000,4.032222900390625,-0.16114093974987043,9.779536367624997,0.7106850943565368
1667710508330273000,4.04227294921875,0.04024373844987712,9.786336695289611,0.6295764716174453
1667710508340323800,4.05232373046875,0.327422968715243,9.780265266421436,0.6399849067766219
1667710508350375000,4.062375,0.698404070258513,9.756063722100853,0.7083985908545554
1667710508360426000,4.072426025390625,1.109523961172998,9.716283500376344,0.730171812049672
1667710508370477000,4.08247705078125,1.5005357876256107,9.671780926305056,0.6127417297378182
1667710508380527000,4.092527099609375,1.8070334937445818,9.631304539009928,0.3781323615374043
1667710508390578000,4.102577880859375,2.009119662144035,9.597236849713324,0.16394934823410584
1667710508400628700,4.112628662109375,2.1388944814398885,9.57009165315628,0.09401399841369129
1667710508410679800,4.1226796875,2.2116114887349307,9.552689851978421,0.15897614466510712
1667710508420729900,4.132729736328125,2.2309771373316645,9.54504664374888,0.2918485646501183
1667710508430781000,4.142781005859375,2.2228765407234428,9.540938623908161,0.44687129551433025
1667710508440832000,4.15283203125,2.232737571132928,9.530698969444632,0.5924793149644508
1667710508450882800,4.1628828125,2.292220272193104,9.508559618350862,0.7095085979230702
1667710508460934000,4.172933837890625,2.407500702190399,9.472996137538551,0.7978973677329718
1667710508470984000,4.18298388671875,2.5686414044782517,9.424114909991621,0.8709257790647447
1667710508481035000,4.193034912109375,2.7595874624431134,9.364059962001443,0.9324261766228824
1667710508491086000,4.203086181640625,2.964455370515585,9.296859233909844,0.9750814423270523
1667710508501137000,4.213136962890625,3.168652831980586,9.22739582158327,0.9925672685265541
1667710508511188000,4.22318798828125,3.356260685433447,9.162188897657394,0.9798877466302365
1667710508521237800,4.23323779296875,3.518429269464314,9.105597826385498,0.9376160734161734
1667710508531288800,4.243288818359375,3.65290320636183,9.05962284167409,0.8659584389809518
1667710508541340000,4.25333984375,3.76567969071418,9.02258402761221,0.7635451624065637
1667710508551391000,4.263390869140625,3.8626036491572853,8.991589169889687,0.6340591699894518
1667710508561441000,4.27344091796875,3.9399230356812476,8.966787321588397,0.4940994220919907
1667710508571491800,4.283491943359375,3.989889428116381,8.950934503418207,0.36329306779131293
1667710508581543000,4.29354296875,4.00772991297245,8.947093025559186,0.2409149711506441
1667710508591594000,4.303593994140625,3.9935371369689703,8.955904693046211,0.11746441383971833
1667710508601645000,4.31364501953125,3.9508495033651587,8.97558496055007,-0.008390756927523762
1667710508611694800,4.32369482421875,3.9021120682030914,8.995900603348016,-0.13281680820710026
1667710508621746000,4.333745849609375,3.865338919340074,9.009474955192207,-0.24265721170809118
1667710508631796700,4.343796630859375,3.8531551450714465,9.012954029479623,-0.30034369526756927
1667710508641847800,4.353847900390625,3.906088862879574,8.991248393628,-0.26507251193271947
1667710508651899000,4.36389892578125,4.021905737841129,8.942577593961358,-0.1579316040482372
1667710508661949000,4.373948974609375,4.140892475010454,8.889466766020655,-0.028728159466129725
1667710508672000000,4.384,4.2200238793924445,8.851582733306289,0.10618560732048936
1667710508682050800,4.39405078125,4.238184389983117,8.840174035063386,0.24386687975879756
1667710508692102000,4.404101806640625,4.209156156158447,8.849012006035446,0.38522703250609336
1667710508702153000,4.414153076171875,4.180873187743127,8.85736014766395,0.4877354034854099
1667710508712203000,4.424203125,4.201475538527966,8.846683270826935,0.5041999238131567
1667710508722253800,4.43425390625,4.280764179298282,8.811413804525136,0.4521597938438877
1667710508732305000,4.444304931640625,4.406073689748347,8.75286633848846,0.37976533303409815
1667710508742355700,4.454355712890625,4.582104210393131,8.662681625172496,0.364255190821737
1667710508752405800,4.46440576171875,4.739943825308978,8.57772312207222,0.3549676129186526
1667710508762456300,4.474456298828125,4.810885201233625,8.541377550971507,0.26583608018374066
1667710508772507400,4.48450732421875,4.778987257191538,8.562264271655678,0.13883331941710783
1667710508782558500,4.494558349609375,4.688816280139982,8.61294991827607,0.04982700679732952
1667710508792609500,4.504609619140625,4.609093631866574,8.65586376185119,0.05150502757872454
1667710508802659600,4.51465966796875,4.483756648887693,8.719958340620995,0.16923070443682373
1667710508812710400,4.52471044921875,4.268203096149861,8.822141534766555,0.3502088010190055
1667710508822761500,4.534761474609375,3.9810988034173844,8.950151828607916,0.46482192621398716
1667710508832812500,4.5448125,3.6459216769114136,9.09277926134467,0.44608010860402136
1667710508842863600,4.554863525390625,3.3143419903755187,9.223508166494964,0.3352275780515745
1667710508852913700,4.56491357421875,3.0383517968535423,9.322646001595258,0.16462330197291447
1667710508862964500,4.574964599609375,2.823777318280935,9.391255427441001,-0.031617955773638094
1667710508873015300,4.585015380859375,2.63668998157084,9.443218254390358,-0.20946383929429574
1667710508883066400,4.59506640625,2.443491176243126,9.491361815312505,-0.3373047131191939
1667710508893116400,4.605116455078125,2.2395177327923474,9.539010286194085,-0.40276524647995826
1667710508903167500,4.61516748046875,2.039106511867791,9.58225029298365,-0.4392013088757172
1667710508913218600,4.625218505859375,1.8499343317076562,9.61835854819715,-0.4850646133735776
1667710508923269600,4.63526953125,1.6597759169891475,9.649586630153655,-0.5486258524516597
1667710508933320400,4.645320556640625,1.4413994157850742,9.679707627651094,-0.6292914441309869
1667710508943370500,4.65537060546875,1.1941384000759572,9.706754624530673,-0.7234183922667056
1667710508953421600,4.665421630859375,0.9323213280089199,9.727845343354344,-0.8186419765327125
1667710508963472600,4.67547265625,0.6777766580976545,9.741331432393192,-0.9041365592710673
1667710508973523700,4.685523681640625,0.4473870630167424,9.747880415645241,-0.9741983028169721
1667710508983574300,4.69557421875,0.2467409008251503,9.749250534954667,-1.0303453566484153
1667710508993624600,4.70562451171875,0.07207599227803294,9.746392807435988,-1.083058125182241
1667710509003675400,4.71567529296875,-0.09462373694302513,9.739164025226234,-1.1445949822932482
1667710509013726500,4.7257265625,-0.2786147516055964,9.72684405735731,-1.217070362852141
1667710509023777500,4.735777587890625,-0.49483654072750355,9.708523387768864,-1.2923254372574389
1667710509033828600,4.74582861328125,-0.7350918789256363,9.683281394484638,-1.3653184850148856
1667710509043878700,4.755878662109375,-0.9768830118563026,9.650749244192243,-1.4419203709192574
1667710509053929500,4.765929443359375,-1.1984398966621608,9.61248059607446,-1.5278560484886168
1667710509063980500,4.77598046875,-1.3857614074543119,9.571382277488707,-1.6244003599643706
1667710509074031600,4.786031494140625,-1.5368622156344354,9.530054826322198,-1.7281524108618498
1667710509084082700,4.796082763671875,-1.6573068965271114,9.490312598520516,-1.8323972137123345
1667710509094132500,4.806132568359375,-1.754146391557157,9.453221762010454,-1.9313069391451776
1667710509104183600,4.81618359375,-1.8331605993002653,9.418499408197402,-2.0252805233500895
1667710509114234400,4.826234375,-1.897804044124484,9.38467371096313,-2.1205242736212906
1667710509124285400,4.836285400390625,-1.949550597974658,9.349916870358586,-2.2245655167236924
1667710509134335500,4.84633544921875,-1.9924220637127756,9.312651846325396,-2.339903375996649
1667710509144386600,4.856386474609375,-2.038482973141968,9.271516702860593,-2.4604776746183634
1667710509154437600,4.866437744140625,-2.1060801532052458,9.225351748535036,-2.5744272944033146
1667710509164488400,4.876488525390625,-2.2095168545432387,9.17361103990376,-2.6708219682753085
1667710509174539500,4.88653955078125,-2.347420765889436,9.11721110728979,-2.745262292231619
1667710509184589300,4.89658935546875,-2.5028631104052064,9.058179657128452,-2.8027544039964676
1667710509194640400,4.906640380859375,-2.6556054021820423,8.999125410613416,-2.8519939434617756
1667710509204691500,4.91669140625,-2.786669822897017,8.943582971611619,-2.9012381591022014
1667710509214742500,4.926742431640625,-2.8887293906629083,8.894090334168077,-2.9530963566333055
1667710509224793300,4.93679345703125,-2.9739205334752796,8.84853737426102,-3.0049247435480355
1667710509234843400,4.946843505859375,-3.0584461981162425,8.803789300996065,-3.051161009544134
1667710509244894500,4.95689453125,-3.1440114349380135,8.760955536919832,-3.087268972496688
1667710509254945500,4.966945556640625,-3.2201307980224487,8.723295960611104,-3.115326315462589
1667710509264996600,4.97699658203125,-3.2729870666801926,8.693605171224474,-3.1431115634888407
1667710509275047400,4.98704736328125,-3.2898844254672523,8.673506970569491,-3.180774939189851
1667710509285097500,4.997097412109375,-3.2614503581434486,8.665039001953602,-3.232713508480787
1667710509295148500,5.0071484375,-3.181263891750574,8.673439750552177,-3.289588657391071
1667710509305199400,5.017199462890625,-3.054603551213443,8.701687939915061,-3.334728944844007
1667710509315250400,5.02725048828125,-2.896057541593909,8.746762760916353,-3.3581793785363434
1667710509325301500,5.037301513671875,-2.7124191762939094,8.806769778111576,-3.354694751290977
1667710509335351600,5.0473515625,-2.5029420208603144,8.882188299450277,-3.318494433879852
1667710509345402400,5.05740234375,-2.271368915083259,8.97134893041551,-3.2444045307964084
1667710509355453400,5.067453369140625,-2.034210410389304,9.066251319903134,-3.1361560452625152
1667710509365504500,5.07750439453125,-1.8037587098576127,9.155991796582937,-3.014075433731079
1667710509375554600,5.087554443359375,-1.5730938049666583,9.237668209272622,-2.891579811657965
1667710509385605600,5.097605712890625,-1.321888070219755,9.316783831563592,-2.7605308807730675
1667710509395656700,5.10765673828125,-1.0525190484032034,9.39373906095028,-2.6115596319675443
1667710509405707500,5.11770751953125,-0.793033634154126,9.462663544094562,-2.449381403325498
1667710509415758600,5.127758544921875,-0.5590335204258561,9.519105562284588,-2.290085744382441
1667710509425808400,5.137808349609375,-0.34551881657186895,9.562813771107793,-2.1455989475145936
1667710509435859500,5.147859375,-0.14127471208670175,9.595803602039814,-2.0176700483463703
1667710509445910500,5.15791064453125,0.06487417114044074,9.620458735346794,-1.900774876628816
1667710509455961300,5.16796142578125,0.28125025120833885,9.637974518293142,-1.7890511161997913
1667710509466012400,5.178012451171875,0.509213185397908,9.648692311662435,-1.6774360768422483
1667710509476062500,5.1880625,0.7458869022496044,9.6525425573498,-1.5628407064996659
1667710509486113500,5.198113525390625,0.9857447290301322,9.650048986968397,-1.4405677872665226
1667710509496164600,5.20816455078125,1.2189122643917798,9.642134560582042,-1.3091460775464772
1667710509506215700,5.218215576171875,1.4360438801012931,9.629591305351257,-1.1743684815272688
1667710509516266500,5.2282666015625,1.6295060125403105,9.614059974220394,-1.0416001064386218
1667710509526316300,5.23831640625,1.7956731646880506,9.597590485456585,-0.9122383979883044
1667710509536367400,5.248367431640625,1.934750357597321,9.582067922154069,-0.781725327545777
1667710509546418400,5.25841845703125,2.0518324301891027,9.567977437481284,-0.6435595503930002
1667710509556469500,5.268469482421875,2.15501413385272,9.554097380688786,-0.4954999730722978
1667710509566519600,5.27851953125,2.255011362261325,9.53765770254135,-0.34405411431416866
1667710509576570600,5.288570556640625,2.3640556743480263,9.515302078348398,-0.20159597372971474
1667710509586621400,5.298621337890625,2.490144498607516,9.484940842354296,-0.07383585982371586
1667710509596672500,5.308672607421875,2.6352321839779616,9.4458795825541,0.03622894985056482
1667710509606723600,5.3187236328125,2.7965403517872094,9.398594684287906,0.12701210398371332
1667710509616773600,5.328773681640625,2.9651705330476164,9.34552828001082,0.19811699077384545
1667710509626824700,5.33882470703125,3.132132488834858,9.289646233791112,0.2502388442098163
1667710509636875300,5.348875244140625,3.290554872074723,9.23375366617739,0.28356751517476514
1667710509646926300,5.35892626953125,3.4383582461446522,9.17933409372568,0.29647772228810937
1667710509656977400,5.368977294921875,3.5749782551601528,9.127307553890347,0.2867097587232478
1667710509667027500,5.37902734375,3.7001080251291394,9.078370796763897,0.25058519169576465
1667710509677078500,5.38907861328125,3.814910462351143,9.032321577772498,0.1843543132833205
1667710509687129600,5.399129638671875,3.921269773137569,8.988122370561957,0.0878045493143145
1667710509697180400,5.409180419921875,4.020495871043205,8.944545679163932,-0.03371637337459251
1667710509707231500,5.4192314453125,4.112697477139532,8.900996460294722,-0.16839461893886326
1667710509717281500,5.429281494140625,4.195861790299415,8.858374293142557,-0.3071288801619783
1667710509727332600,5.43933251953125,4.2669922590553755,8.81845670877397,-0.444967836513184
1667710509737383700,5.4493837890625,4.327385937480628,8.781692620000243,-0.5709062559839337
1667710509747434500,5.4594345703125,4.386028972846269,8.745587871918081,-0.6692038408678025
1667710509757485300,5.4694853515625,4.444661194556951,8.711309754741192,-0.7269515348289162
1667710509767535600,5.47953564453125,4.491592164818942,8.68688083140552,-0.7308042647343128
1667710509777586700,5.489586669921875,4.524359292910993,8.67392198111117,-0.6808962514229119
1667710509787637800,5.4996376953125,4.550898924790323,8.665667362985014,-0.6048710328953341
1667710509797688800,5.509688720703125,4.564866952127218,8.66375539188385,-0.5212322340914979
1667710509807739600,5.51973974609375,4.550979588811099,8.67572581566274,-0.4367911424614489
1667710509817789400,5.52978955078125,4.501664353761076,8.704868323516845,-0.361484703195095
1667710509827840500,5.539840576171875,4.422996767498552,8.747599796262383,-0.2949524854822084
1667710509837891600,5.5498916015625,4.337373955270648,8.792102954855562,-0.23770015555629506
1667710509847942700,5.559942626953125,4.271631609293818,8.825248853132129,-0.19639970199456439
1667710509857992700,5.56999267578125,4.237497576762736,8.842968049696088,-0.12617653907556087
1667710509868043800,5.580043701171875,4.177504295831919,8.872328584215044,0.024492574572854208
1667710509878094600,5.590094482421875,4.038221205087006,8.934194381019472,0.20821997671304268
1667710509888145700,5.600145751953125,3.857153274796903,9.010947950354218,0.30908037955593315
1667710509898196700,5.61019677734375,3.655870239473879,9.096457657596469,0.24377249773992224
1667710509908246500,5.62024658203125,3.4675369943559167,9.172982094350457,0.054730391966551536
1667710509918297600,5.630297607421875,3.3710692552477117,9.208864724114537,-0.05568197990322951
1667710509928348400,5.640348388671875,3.3138068605855104,9.22952055865228,-0.0709844524479704
1667710509938399500,5.6503994140625,3.2274510579079387,9.260178147244453,-0.054967657621414395
1667710509948450600,5.660450439453125,3.092584030039608,9.306092926201224,-0.054378454990033055
1667710509958500600,5.67050048828125,2.90158565736562,9.366964451271295,-0.10568747593946755
1667710509968551700,5.6805517578125,2.65823984233886,9.436927045291661,-0.22034138980256393
1667710509978602800,5.690602783203125,2.371927576766908,9.508049915263056,-0.375922503468208
1667710509988653600,5.700653564453125,2.062467513711005,9.571664601561427,-0.5475662969287485
1667710509998704600,5.71070458984375,1.7608524650670587,9.620108022212982,-0.7234076516769826
1667710510008754700,5.720754638671875,1.4896512593872844,9.65166752808094,-0.892533215238899
1667710510018805800,5.7308056640625,1.2399423390693962,9.672827805009483,-1.0340797939363866
1667710510028856600,5.740856689453125,0.9862070127796381,9.691437812933325,-1.128632931594923
1667710510038907600,5.75090771484375,0.7131817334778606,9.709688924416898,-1.1763012762207536
1667710510048958500,5.76095849609375,0.4308128717694431,9.723363814026117,-1.2004122196484357
1667710510059008500,5.771008544921875,0.16364020921969785,9.728182027962804,-1.2272228504888714
1667710510069059600,5.7810595703125,-0.07746603758619167,9.723215929988026,-1.2741380386598407
1667710510079110700,5.791110595703125,-0.2952095655158162,9.70782488411069,-1.3569681514292955
1667710510089161700,5.80116162109375,-0.5002439527289941,9.682015904593467,-1.4760400826640425
1667710510099212500,5.811212646484375,-0.7062943851169199,9.64698609226644,-1.6146734773285687
1667710510109262600,5.8212626953125,-0.9183031779199838,9.604840894976258,-1.7533220695622265
1667710510119313700,5.831313720703125,-1.1302086564790457,9.55767173204422,-1.8825310716688632
1667710510129364700,5.84136474609375,-1.3287100251942872,9.507563008528948,-2.002790897513926
1667710510139415800,5.851415771484375,-1.4999217473804949,9.458069202041626,-2.113184286122024
1667710510149465600,5.861465576171875,-1.6432295635968446,9.412687507048249,-2.2071492486290634
1667710510159516700,5.8715166015625,-1.7622871740452943,9.373452644246816,-2.2810344229206443
1667710510169567500,5.8815673828125,-1.8608396104730665,9.338931950485705,-2.3435030079238115
1667710510179618600,5.89161865234375,-1.9429326411396264,9.307688670960069,-2.400485416600853
1667710510189669600,5.901669677734375,-2.0152143257573245,9.279028393664955,-2.451312371388078
1667710510199720700,5.911720703125,-2.0834581331610678,9.251796103346347,-2.4967718077927827
1667710510209770800,5.921770751953125,-2.150577612709999,9.225022078189253,-2.5385724294289944
1667710510219821600,5.931821533203125,-2.2148826193600892,9.19815394500792,-2.580435594907403
1667710510229872600,5.94187255859375,-2.2684540505498645,9.17058847721219,-2.6315026420608163
1667710510239923700,5.951923828125,-2.3014337984792888,9.143468415096402,-2.6964336716547606
1667710510249973500,5.961973388671875,-2.302991110923886,9.119173931795357,-2.776198990026116
1667710510260024600,5.972024658203125,-2.263717231286317,9.100887164476513,-2.8670263851597904
1667710510270075600,5.98207568359375,-2.180056951303035,9.091822399011253,-2.959139143928885
1667710510280126500,5.99212646484375,-2.0608898891307414,9.094151134219764,-3.0363688063427805
1667710510290177500,6.002177490234375,-1.9276260586753486,9.108232266542315,-3.0813544877558945
1667710510300227600,6.0122275390625,-1.8052368195861577,9.133627989083529,-3.0803152078360316
1667710510310278700,6.022278564453125,-1.7014628491178154,9.171217422765492,-3.0272397434696554
1667710510320329700,6.032329833984375,-1.5967155035726726,9.220557499995827,-2.9329519787490366
1667710510330380800,6.042380859375,-1.4611447113491594,9.27935631044507,-2.815843894933164
1667710510340431600,6.052431640625,-1.2772769212074577,9.346604969331622,-2.6795412813037633
1667710510350481400,6.0624814453125,-1.0349381643313913,9.418225851953029,-2.5290944069877264
1667710510360532500,6.072532470703125,-0.7315426620114595,9.488411148813366,-2.36755462237969
1667710510370583600,6.08258349609375,-0.398114863390848,9.546251927885413,-2.2092915213547646
1667710510380634600,6.092634521484375,-0.09664720559464766,9.58381856521368,-2.076406461083889
1667710510390685400,6.102685546875,0.14573087864480913,9.602830724197625,-1.9836248631425202
1667710510400735700,6.11273583984375,0.34170086571890856,9.610530046528577,-1.9212823887370525
1667710510410786600,6.12278662109375,0.5228644749358297,9.614660862722992,-1.858833531347662
1667710510420837600,6.132837646484375,0.7195987609133124,9.615997664284706,-1.78469423616454
1667710510430888700,6.142888671875,0.9339143693540245,9.610982466471194,-1.7109034621581434
1667710510440939800,6.152939697265625,1.1458411098968238,9.600162966293096,-1.6414380040049552
1667710510450989800,6.16298974609375,1.3150234451472758,9.591247253909707,-1.5649588676974175
1667710510461040600,6.17304052734375,1.434902893372625,9.590696049767732,-1.4594571966536343
1667710510471091500,6.183091552734375,1.527198315232247,9.597380642098187,-1.314653004399687
1667710510481142500,6.193142578125,1.6045463433288036,9.608664252656698,-1.1266762445691971
1667710510491193600,6.203193603515625,1.6670182893328367,9.62151087474823,-0.9044235595189034
1667710510501243600,6.21324365234375,1.706497336153686,9.633675944316387,-0.6712004215124994
1667710510511294700,6.223294677734375,1.7269209693707526,9.642885671210289,-0.45041777248214926
1667710510521345500,6.233345458984375,1.7420415277436374,9.647257894945144,-0.25704962020320815
1667710510531396600,6.243396728515625,1.7636374196104705,9.646297525480389,-0.09445434432602487
1667710510541447700,6.25344775390625,1.794399929881841,9.64101753925085,0.035913837753096596
1667710510551497700,6.263497802734375,1.8302979033455251,9.633403557115793,0.13378656655470839
1667710510561548800,6.273548828125,1.8673995535105465,9.625113283154368,0.2010499024205841
1667710510571599600,6.283599609375,1.9029602578438818,9.617212300771474,0.2415751155598089
1667710510581650700,6.293650634765625,1.9325000944525002,9.610836335998773,0.26004975186726076
1667710510591701500,6.303701416015625,1.9471902985841034,9.607858781492709,0.2605528060185723
1667710510601751600,6.31375146484375,1.9413089854605494,9.60940717997849,0.24699874804373828
1667710510611802600,6.323802734375,1.9127505611047149,9.615720600908993,0.22289237119331953
1667710510621853700,6.333853759765625,1.868725687547773,9.625027942958473,0.1925923456008546
1667710510631904500,6.343904541015625,1.8190088859595357,9.63514543234706,0.1598234274105169
1667710510641955600,6.35395556640625,1.7688232978157699,9.645077628296614,0.11874009633134118
1667710510652005600,6.364005615234375,1.7295733835756777,9.652797408893704,0.04954816245648544
1667710510662056700,6.374056640625,1.722258384387195,9.654034257212281,-0.06176046413327567
1667710510672107800,6.384107666015625,1.7634389744289218,9.644497782582045,-0.2105659187846817
1667710510682158600,6.39415869140625,1.8516371901027857,9.622933601027727,-0.3754353044731542
1667710510692209700,6.404209716796875,1.9665949640169738,9.59247299631238,-0.536044384102337
1667710510702259500,6.414259521484375,2.070173411913216,9.562325695329903,-0.6683348760135471
1667710510712310500,6.424310546875,2.1028514004170895,9.550786648705602,-0.7285857119020074
1667710510722361600,6.434361572265625,2.07131775964275,9.562200023123621,-0.6665849636062979
1667710510732412700,6.44441259765625,2.038384188942611,9.58206324597895,-0.4465881311913952
1667710510742463500,6.45446337890625,1.9005423830471933,9.618308279314636,-0.21562685543606055
1667710510752513500,6.464513427734375,1.7714773194558917,9.644745035341382,-0.10567253409866242
1667710510762564900,6.47456494140625,1.7525464090146123,9.647985040175914,-0.12392587407194078
1667710510772616000,6.484615966796875,1.7375711043313145,9.648114219513534,-0.255136151264701
1667710510782667000,6.4946669921875,1.709531881543994,9.648957100078462,-0.3814227813849225
1667710510792717800,6.5047177734375,1.6410209476366637,9.658139938965439,-0.4446715569803491
1667710510802768000,6.514767822265625,1.5149287623763084,9.676776834896206,-0.48512796093337235
1667710510812819000,6.52481884765625,1.3249666008822618,9.702527946746349,-0.5251709617799147
1667710510822870000,6.5348701171875,1.0843492609713226,9.729562084144353,-0.5746345557920635
1667710510832921000,6.544921142578125,0.824054210839793,9.750722361072897,-0.6439985263321548
1667710510842972000,6.554971923828125,0.5737305196244269,9.760614225012063,-0.7560610171962528
1667710510853022000,6.56502197265625,0.34961755712758746,9.756098208892345,-0.9309560310050845
1667710510863072800,6.57507275390625,0.14245360140665433,9.737855865237115,-1.1507655606869607
1667710510873123800,6.585123779296875,-0.04346016604600008,9.714338796049356,-1.3416903566680847
1667710510883175000,6.5951748046875,-0.20697805036054923,9.69402023064196,-1.4674842896342277
1667710510893226000,6.60522607421875,-0.3793626339847222,9.676141459602118,-1.5487915767505764
1667710510903276000,6.615276123046875,-0.5921895017050206,9.656083590957522,-1.6061625463537872
1667710510913327000,6.6253271484375,-0.8581604785811155,9.628118894711136,-1.6532644892685113
1667710510923378000,6.6353779296875,-1.165478268911317,9.586887305134534,-1.7040097571216524
1667710510933429000,6.645428955078125,-1.4805606288284063,9.530587325763701,-1.7737607542179523
1667710510943480000,6.65547998046875,-1.7631373611338435,9.464075748980045,-1.8689586195208132
1667710510953529900,6.66552978515625,-1.9873630267575382,9.396251920554041,-1.9827309830427169
1667710510963581000,6.675580810546875,-2.1538785539515315,9.33465208120942,-2.0965385640084744
1667710510973631700,6.6856318359375,-2.2790005790054795,9.284047098609804,-2.187009839180857
1667710510983682800,6.695682861328125,-2.3786215214475988,9.24438845743835,-2.2480735258221625
1667710510993734000,6.70573388671875,-2.4539535335466263,9.213433931726216,-2.2937165021002293
1667710511003784000,6.715783935546875,-2.494143797376752,9.193700472730397,-2.329271215084195
1667710511013835000,6.7258349609375,-2.4856658918887375,9.190935099670291,-2.3491635179035364
1667710511023886000,6.735885986328125,-2.4252670988969505,9.208710410335659,-2.3426754710584876
1667710511033937000,6.74593701171875,-2.3221413632042704,9.248269682785867,-2.2907496151186524
1667710511043988000,6.755988037109375,-2.1923434552937744,9.305682591834664,-2.183640801139176
1667710511054037800,6.766037841796875,-2.0394984337948263,9.373748412322998,-2.0356065409228203
1667710511064088800,6.7760888671875,-1.8609170596234499,9.443447386971116,-1.8784766817115246
1667710511074140000,6.786139892578125,-1.6594285648562013,9.507014142474532,-1.741651797773689
1667710511084190700,6.796190673828125,-1.4330401682406664,9.563705166989564,-1.628587436390668
1667710511094241800,6.80624169921875,-1.1708510479908436,9.615500820678472,-1.5302451355822384
1667710511104291800,6.816291748046875,-0.8926269579369575,9.660493808615207,-1.431247293474525
1667710511114343000,6.826343017578125,-0.6245779326777905,9.696638888707756,-1.3249436583980918
1667710511124394000,6.83639404296875,-0.3620280893567949,9.722681092458963,-1.2283230668157339
1667710511134445000,6.846445068359375,-0.10062134252316318,9.737035196503996,-1.1620705793596804
1667710511144495900,6.856495849609375,0.1619003615487367,9.738267953169345,-1.1446851447947322
1667710511154546000,6.8665458984375,0.42727348212953653,9.72460650756359,-1.1915765867639332
1667710511164597000,6.876596923828125,0.7037285532169043,9.700227853110432,-1.2572697598367928
1667710511174647800,6.886647705078125,0.9982985787201673,9.675770872724057,-1.2462849860943852
1667710511184699000,6.896698974609375,1.2864499693527818,9.65714917436242,-1.1202221730589865
1667710511194750000,6.90675,1.5250690481185911,9.6421935972929,-0.9341522697631269
1667710511204800000,6.916800048828125,1.7106933265388011,9.625566287618875,-0.769668832918629
1667710511214850800,6.926850830078125,1.8870108474314211,9.60099415642023,-0.656121291128546
1667710511224902000,6.93690185546875,2.0853711271755397,9.564949029570817,-0.5773834161087871
1667710511234953000,6.946952880859375,2.28661894505471,9.523164482286571,-0.5011186897369101
1667710511245004000,6.957004150390625,2.4591587009742852,9.48467605393827,-0.40478097021654247
1667710511255054000,6.96705419921875,2.5900109402433036,9.453904483577608,-0.2930710191171616
1667710511265105000,6.97710498046875,2.6846593549698587,9.430241283917427,-0.18314141209591178
1667710511275156000,6.987156005859375,2.752791810953617,9.411990172433853,-0.08366101976879872
1667710511285207000,6.99720703125,2.801716877642274,9.39791313176453,0.0003640881391464063
1667710511295257900,7.0072578125,2.836689406824112,9.387202352657914,0.06338626153708901
1667710511305308000,7.017307861328125,2.8606457442119715,9.379608828788996,0.10018038468947633
1667710511315359000,7.02735888671875,2.8719293547704816,9.376059611874819,0.10915537124574184
1667710511325409800,7.037409912109375,2.865533223992586,9.37822117382288,0.08982054704553447
1667710511335460900,7.0474609375,2.8390400616034865,9.386584513020514,0.047819352202769366
1667710511345512000,7.057511962890625,2.791216818676889,9.401037985786795,-0.0031358609005241304
1667710511355562000,7.06756201171875,2.718155381858349,9.422278342214225,-0.05153618076881394
1667710511365613000,7.077613037109375,2.6180238595455885,9.450279278817773,-0.09230703923217952
1667710511375663900,7.087663818359375,2.4893676690161226,9.48460123513639,-0.12552372858948074
1667710511385715000,7.09771484375,2.3367579175777733,9.522716153997182,-0.1667570443322882
1667710511395766000,7.10776611328125,2.193937154226005,9.555105096426606,-0.2387169131170958
1667710511405815800,7.11781591796875,2.105270736518502,9.571479308122395,-0.35352906801551576
1667710511415867000,7.127866943359375,2.091939107389003,9.567826630833745,-0.5008525861466303
1667710511425918000,7.13791796875,2.1855273455381394,9.538128827184439,-0.6464920236483216
1667710511435968800,7.14796875,2.4182480139151212,9.479291438290476,-0.6822605255134403
1667710511446019800,7.158019775390625,2.6655831908389924,9.428247479751706,-0.41616446095295245
1667710511456070000,7.16806982421875,2.584669286954403,9.459670207497476,0.0669410405423725
1667710511466121000,7.178120849609375,2.126820889547467,9.562354336902498,0.45655079534444953
1667710511476172000,7.188172119140625,1.6703176231391728,9.64060837392807,0.6626265083041042
1667710511486223000,7.19822314453125,1.4829861024096607,9.663533906963467,0.7663168190769851
1667710511496274000,7.20827392578125,1.5039401892416178,9.655529464206099,0.8242099128581583
1667710511506325000,7.218324951171875,1.6025328115493058,9.641369421428442,0.803921523393318
1667710511516374800,7.228374755859375,1.6648203408971427,9.64126186940074,0.6669375764362514
1667710511526425900,7.23842578125,1.6525795757442712,9.657068510341643,0.4247396893355995
1667710511536477000,7.248476806640625,1.5771940798923372,9.678366734436153,0.10980704008750616
1667710511546527700,7.25852783203125,1.4345257306233048,9.69782546814382,-0.25430428528413174
1667710511556578800,7.268578857421875,1.198628916428238,9.712274264734983,-0.6367039123445749
1667710511566628900,7.27862890625,0.8633753636851906,9.719226568090916,-0.9806189104489982
1667710511576680000,7.288679931640625,0.5000693268144503,9.71770622665584,-1.219228709929809
1667710511586731000,7.29873095703125,0.2257061682387255,9.710705407983063,-1.3496885158151388
1667710511596782000,7.308781982421875,0.042623998349648896,9.70147989899814,-1.431735953774303
1667710511606833000,7.3188330078125,-0.11900893073482438,9.69250924155712,-1.4871115117765963
1667710511616882700,7.328882568359375,-0.3225845522407442,9.681883802646398,-1.5256072466485202
1667710511626933800,7.338933837890625,-0.6120277362495661,9.662385905972123,-1.560166957245767
1667710511636984800,7.34898486328125,-0.9773440534967929,9.626258946058153,-1.5969737161174415
1667710511647036000,7.359035888671875,-1.338254537000507,9.574424129402637,-1.6461729235723614
1667710511657087000,7.3690869140625,-1.6232396456219256,9.516324991655349,-1.7248307190932333
1667710511667137000,7.379136962890625,-1.827529753806442,9.458557862341403,-1.8347215650066733
1667710511677187800,7.389187744140625,-1.9839774759724735,9.399563237059116,-1.970387195906788
1667710511687239000,7.399239013671875,-2.1109962745584547,9.340783715832233,-2.1127790663219987
1667710511697290000,7.4092900390625,-2.210297337396443,9.288264424043893,-2.2389994080066677
1667710511707341000,7.419341064453125,-2.284645599155128,9.24298735846877,-2.3490290778689085
1667710511717391000,7.42939111328125,-2.338477142585814,9.202104143938422,-2.454219198745489
1667710511727442000,7.43944189453125,-2.3779300320520997,9.1633900901407,-2.5589284042373297
1667710511737492700,7.44949267578125,-2.3994736092098057,9.129922704824805,-2.656581261476874
1667710511747543800,7.459543701171875,-2.3934753917083142,9.109335259348153,-2.7316081531494856
1667710511757595000,7.469594970703125,-2.3627337780945004,9.109725719970465,-2.7569521455034613
1667710511767645200,7.479645263671875,-2.3202936895109714,9.134212510973214,-2.711601137909293
1667710511777695200,7.4896953125,-2.268922398713976,9.181122146186231,-2.5941031779929995
1667710511787746300,7.499746337890625,-2.1846887027569113,9.24824630191028,-2.422287206303328
1667710511797797000,7.509797119140625,-2.059548849785328,9.327029915767907,-2.221518988634646
1667710511807848200,7.51984814453125,-1.9229272333346306,9.400306164380908,-2.0265736319005487
1667710511817898000,7.52989794921875,-1.7850071015059947,9.45964799566567,-1.8706212920360266
1667710511827949000,7.539948974609375,-1.6061740906611084,9.516313301217556,-1.7407969345100223
1667710511838000000,7.550000244140625,-1.3636688181117176,9.574263970404862,-1.626122215320915
1667710511848051000,7.560051025390625,-1.0775343202594667,9.629058221387863,-1.5134573746494948
1667710511858102000,7.57010205078125,-0.7757371930468827,9.676455932378769,-1.3909765117540955
1667710511868153000,7.580153076171875,-0.4661393289554864,9.71281845461428,-1.2705394296459853
1667710511878203100,7.590203125,-0.16091949728522448,9.736332016670703,-1.1611866361320018
1667710511888254200,7.600254150390625,0.12513457400826736,9.747055655258894,-1.072207572278753
1667710511898305300,7.61030517578125,0.37037798455096776,9.74624258531034,-1.0217571957189588
1667710511908356000,7.620356201171875,0.5964920577371493,9.736966222921014,-1.0030162548918276
1667710511918407200,7.6304072265625,0.8545870770737528,9.722233348691462,-0.9582593407332897
1667710511928457000,7.64045703125,1.1455911537237464,9.704289111199975,-0.8275315315615386
1667710511938508000,7.650508056640625,1.41809452804327,9.684540454635023,-0.607524031622149
1667710511948559000,7.66055908203125,1.6183946898087858,9.665017423519492,-0.3723264517376199
1667710511958610200,7.670610107421875,1.7594643717095255,9.64545639848113,-0.19962255476489663
1667710511968661000,7.680660888671875,1.902692108426988,9.619783028042315,-0.09955408775098622
1667710511978711000,7.6907109375,2.0856687949478623,9.582222235932946,-0.0372943620088161
1667710511988762000,7.70076220703125,2.2870777947381136,9.536197566860913,0.024412727969407567
1667710511998813200,7.710813232421875,2.4638664402738213,9.491528988572954,0.10305496287825516
1667710512008864300,7.7208642578125,2.594560858632624,9.455331886032223,0.1880318875512108
1667710512018915000,7.7309150390625,2.6815722026094795,9.429181545731424,0.2647688710773364
1667710512028966100,7.740966064453125,2.7361080949172374,9.411403312456608,0.331019678032957
1667710512039016000,7.751015869140625,2.767117273426056,9.40006008066535,0.3902682780763134
1667710512049067000,7.76106689453125,2.7817352891042826,9.393622156572341,0.4384257579259574
1667710512059118000,7.7711181640625,2.782001538825035,9.392408104607462,0.46207302936464545
1667710512069169200,7.781169189453125,2.7671397775188087,9.397360174056887,0.4505017975037917
1667710512079220000,7.791219970703125,2.738784036128223,9.407681077063083,0.4061425408933311
1667710512089270000,7.80127001953125,2.690955240243673,9.423802775302528,0.3479700456488877
1667710512099321000,7.811321044921875,2.6113474505215883,9.447956388828159,0.29564280583392827
1667710512109372200,7.8213720703125,2.490676121266186,9.481680379253625,0.2543004128266126
1667710512119423200,7.83142333984375,2.334933186368644,9.522471239325403,0.20250912478556854
1667710512129474000,7.84147412109375,2.1859869258739053,9.559269814890623,0.11062331577329895
1667710512139524000,7.851524169921875,2.0962845892474053,9.579897007855772,-0.03961071494307834
1667710512149575200,7.8615751953125,2.0750509548217058,9.58163596047759,-0.2382989799659699
1667710512159626000,7.8716259765625,2.0929849631801245,9.56994201555252,-0.4538810281459242
1667710512169677000,7.881677001953125,2.1267972164109348,9.5517557859987,-0.6411580422092229
1667710512179728100,7.89172802734375,2.1795320506460962,9.531551202359795,-0.7547023691289126
1667710512189778200,7.901778076171875,2.250275419780612,9.515497308659553,-0.7496314225401729
1667710512199829000,7.9118291015625,2.3171549530938265,9.510517766681312,-0.5926518219871446
1667710512209880000,7.921880126953125,2.295011364216357,9.529070491459965,-0.3164384507011622
1667710512219931100,7.93193115234375,2.0738409945100544,9.584830372604728,-0.024067026654141954
1667710512229982200,7.941982177734375,1.7365661650724709,9.649995795476435,0.17968918928280472
1667710512240032300,7.9520322265625,1.4694973830223084,9.692475339287519,0.258559568108432
1667710512250083300,7.962083251953125,1.424588566237688,9.700537065190076,0.201338217842672
1667710512260134100,7.972134033203125,1.5408822649307548,9.684456868004798,0.08583987991153262
1667710512270185200,7.982185302734375,1.6899356390617788,9.659935005688666,-0.013591573548695305
1667710512280236000,7.992236083984375,1.787471299662441,9.642002458634972,-0.08453435940407215
1667710512290287000,8.002287109375,1.8193318343035876,9.635335986483096,-0.14399714105422606
1667710512300337200,8.012337158203126,1.7700125076003372,9.643633859229087,-0.19432483194926753
1667710512310388000,8.022387939453125,1.620673156134784,9.668909754782915,-0.2366180046090856
1667710512320439000,8.03243896484375,1.3735808480560778,9.705675597122312,-0.28901871151905506
1667710512330490000,8.042489990234374,1.046720372061804,9.742994397169351,-0.38579690481591966
1667710512340541200,8.052541259765626,0.672197031334415,9.767963418731092,-0.552642358084023
1667710512350591200,8.06259130859375,0.29661714902510866,9.771749951532483,-0.7715557426437735
1667710512360642300,8.072642333984374,-0.01676771480020252,9.758436880972981,-0.971084335514903
1667710512370693000,8.082693115234376,-0.23899324584044515,9.74279098355174,-1.0914511288657784
1667710512380744200,8.092744140625,-0.4240259515756741,9.730235453361272,-1.145902850021422
1667710512390795300,8.102795166015625,-0.6390948260691016,9.713848382183908,-1.1845288602095096
1667710512400845000,8.112844970703126,-0.906117430889979,9.68719535305798,-1.2278344065159559
1667710512410896100,8.122896240234375,-1.2011691754955798,9.648487144479155,-1.2783869282759726
1667710512420947200,8.132947265625,-1.4789251365810632,9.600725276350975,-1.3450715235389767
1667710512430998000,8.142998046875,-1.7079261999130249,9.548583585703373,-1.4414955696359275
1667710512441049000,8.153049072265626,-1.8797588304765522,9.496190550643204,-1.5681950731396674
1667710512451100200,8.16310009765625,-1.9980109697610138,9.448913251161574,-1.701875083180517
1667710512461150200,8.173150146484375,-2.0746914738595486,9.410988886436819,-1.816402064462006
1667710512471201300,8.183201171875,-2.125983561940491,9.381750516992806,-1.906127635833621
1667710512481252000,8.193252197265625,-2.16544931088835,9.356731811070441,-1.983123343361169
1667710512491303200,8.20330322265625,-2.1965546432480214,9.333260919111966,-2.0580958744980395
1667710512501354200,8.213354248046874,-2.2059560933217406,9.315455213308335,-2.1275383901670573
1667710512511404000,8.223404052734375,-2.171728537288308,9.312119346883893,-2.1767883048959074
1667710512521455000,8.233455078125,-2.0933210632666945,9.329368587848544,-2.1797424785263835
1667710512531506200,8.243506103515625,-2.004091166457534,9.363621570584177,-2.115799875447899
1667710512541557000,8.253556884765626,-1.928136346285045,9.408014254540204,-1.985434981304407
1667710512551608000,8.263608154296875,-1.851157297631353,9.460536468937992,-1.8005146133698522
1667710512561658000,8.273658203125,-1.7622025645017623,9.515660390266776,-1.5865807707883417
1667710512571709200,8.283709228515624,-1.6563840825937688,9.566461772221325,-1.3818734601050615
1667710512581760300,8.29376025390625,-1.511472630573064,9.613319969508051,-1.2123996676273643
1667710512591811000,8.30381103515625,-1.300243663036078,9.660411975550652,-1.0752566576510667
1667710512601862100,8.313862060546874,-1.0254695673055947,9.704822779685259,-0.967059975369647
1667710512611912000,8.323911865234376,-0.7240784636106342,9.741303959864377,-0.867807427848503
1667710512621963000,8.333962890625,-0.4188772270429879,9.767896783235669,-0.7636234883397817
1667710512632014000,8.34401416015625,-0.11246628589201718,9.783386028790474,-0.6656578388240187
1667710512642065200,8.354065185546874,0.18895267392424867,9.78728888144791,-0.5862357443997636
1667710512652116000,8.364115966796875,0.47475046890173106,9.780251237896085,-0.5400904446227476
1667710512662167000,8.3741669921875,0.7181904284853488,9.76580419487059,-0.5326169669369235
1667710512672217000,8.384217041015624,0.9283952406063676,9.748190212246776,-0.5303280522821471
1667710512682268200,8.39426806640625,1.15041945066303,9.728483056735993,-0.45117231717649847
1667710512692319200,8.4043193359375,1.3772439006082713,9.70659154292345,-0.23589781884206457
1667710512702370000,8.4143701171875,1.5494247600875795,9.683169750803708,0.07684175907485187
1667710512712421000,8.424421142578124,1.6511306921102105,9.659420626425742,0.37382143953572955
1667710512722471200,8.43447119140625,1.7346175152227281,9.634786535906791,0.5765274933991953
1667710512732522000,8.44452197265625,1.8482681520611046,9.605171149843931,0.703561379956454
1667710512742573000,8.454572998046874,2.0013924288928506,9.566611409825086,0.8029797855637967
1667710512752624000,8.4646240234375,2.1687290632113814,9.521505609163642,0.8988457593865692
1667710512762675000,8.474675048828125,2.317532261973619,9.477286528208852,0.9901683176260441
1667710512772725200,8.484725341796874,2.440553223095089,9.438707498967647,1.06061241155304
1667710512782776300,8.4947763671875,2.547049750395119,9.405874319902061,1.1011034849606454
1667710512792827400,8.504827392578125,2.6456258599594236,9.377208197388052,1.113127977014333
1667710512802878500,8.51487841796875,2.739427010206878,9.351743501263856,1.1003650876834987
1667710512812929300,8.52492919921875,2.825230439698696,9.33012203656435,1.0664322768129408
1667710512822980400,8.53498046875,2.8986975347086785,9.31427155648172,1.0061237924531101
1667710512833030400,8.545030517578125,2.9555823282301423,9.306164237871766,0.9111875006958842
1667710512843081500,8.55508154296875,2.990447597645223,9.306301600515843,0.7876445615269243
1667710512853132500,8.565132568359376,2.9994141634330154,9.313553179079294,0.6569672404333948
1667710512863183400,8.575183349609375,2.976956540170312,9.328397696989773,0.537654522712715
1667710512873234200,8.585234130859375,2.9180522235199806,9.352092460831999,0.44014549439065154
1667710512883284200,8.5952841796875,2.8177748629957438,9.3860525981009,0.36405656297709793
1667710512893335300,8.605335205078125,2.6908260609060526,9.425752740326523,0.29160454502748323
1667710512903386400,8.615386474609375,2.587930042316019,9.45694107479453,0.198147678173054
1667710512913437400,8.6254375,2.54666542725265,9.469861931166053,0.08122473253258504
1667710512923488300,8.63548828125,2.553373692719638,9.468284306585788,-0.04781665335560683
1667710512933538600,8.64553857421875,2.572126908506453,9.461759873253106,-0.17224786030091344
1667710512943589400,8.65558935546875,2.553487966749072,9.464959546077251,-0.25422555749211456
1667710512953640400,8.665640380859376,2.4219345934733747,9.500016830933093,-0.23299687323616816
1667710512963691500,8.67569140625,2.171991572138667,9.562946457576752,-0.0536381077843951
1667710512973742600,8.68574267578125,1.9056423365347086,9.615767947182059,0.27557319195261226
1667710512983793200,8.695793212890624,1.7316808772489427,9.6341909081012,0.5949858544252813
1667710512993843200,8.70584326171875,1.7553459766052661,9.618341012540458,0.7593696302875876
1667710513003894300,8.715894287109375,1.8682636229939757,9.598068624362348,0.7463634337201714
1667710513013945300,8.7259453125,1.9699355066165327,9.585846271649002,0.6334492944628
1667710513023996400,8.735996337890626,2.020357241603732,9.58100175422728,0.5412442543003708
1667710513034047500,8.746047607421875,2.0163066510386765,9.58411608685553,0.4995975811168551
1667710513044097500,8.75609765625,1.9817785046234726,9.592684593236445,0.4725717366231605
1667710513054148400,8.7661484375,1.924828975302726,9.605617140045762,0.4444264596454799
1667710513064199400,8.776199462890625,1.8382379025645552,9.624450435331463,0.4015159040059894
1667710513074250500,8.78625048828125,1.7077568346954881,9.651581018841267,0.317701273711212
1667710513084301600,8.796301513671875,1.5152198542773723,9.687410457113385,0.16902045921962708
1667710513094351400,8.806351318359376,1.2488418309703468,9.726700264972449,-0.04533801568185444
1667710513104402200,8.816402099609375,0.9418643785104155,9.757251470580696,-0.28163026350187137
1667710513114453200,8.826453369140625,0.6652927318386733,9.771857503560184,-0.48842524891309436
1667710513124504300,8.83650439453125,0.4537873219804838,9.775777891874313,-0.6313617475990205
1667710513134555400,8.846555419921875,0.26869441049061715,9.77654829172492,-0.7192190408807247
1667710513144606500,8.8566064453125,0.04869831329465378,9.775402044299245,-0.7807108167409896
1667710513154656500,8.866656494140624,-0.24161473518414422,9.76880805286169,-0.8260800175789743
1667710513164707300,8.876707275390626,-0.5836883614718914,9.750630591136217,-0.8688542334876954
1667710513174758400,8.88675830078125,-0.9173812407694757,9.719340549859403,-0.9290892872851342
1667710513184809500,8.8968095703125,-1.1938273613654076,9.679998135030269,-1.0211683629803359
1667710513194860500,8.906860595703124,-1.4111889864385128,9.637505731737614,-1.1390364713832735
1667710513204911400,8.916911376953125,-1.5941452146932482,9.592497546231746,-1.2700740040913223
1667710513214961400,8.92696142578125,-1.7536226599439977,9.546285830155014,-1.401296830238402
1667710513225012200,8.93701220703125,-1.8834810658700762,9.503450897035002,-1.5189834445945918
1667710513235063300,8.947063232421876,-1.9845893242605028,9.464871283271908,-1.6272689011380075
1667710513245114400,8.9571142578125,-2.059228677920252,9.429808153197168,-1.7345565788157282
1667710513255165400,8.96716552734375,-2.102866597986221,9.399372682923078,-1.8439460510782897
1667710513265215500,8.977215576171876,-2.1123627406060694,9.37644773440957,-1.9469290172994136
1667710513275266300,8.987266357421875,-2.0918787555038927,9.365278690141439,-2.0213839543029666
1667710513285317400,8.9973173828125,-2.045651403466612,9.370736955547333,-2.0432751758545638
1667710513295368400,9.007368408203124,-1.975334150789678,9.39530324152708,-1.9991763602785766
1667710513305419500,9.01741943359375,-1.8775481686897575,9.437612104946375,-1.891210929469764
1667710513315469300,9.02746923828125,-1.754979627510905,9.490486201521755,-1.7381367753900587
1667710513325520400,9.037520263671874,-1.6227321344912051,9.542745965591072,-1.5726235571064053
1667710513335571200,9.0475712890625,-1.4748280765257775,9.591420856910943,-1.4141871453411876
1667710513345622300,9.057622314453125,-1.2898230990476907,9.640165306335687,-1.2545678074017166
1667710513355673300,9.06767333984375,-1.0657107576053588,9.687488783046602,-1.089594102822244
1667710513365724400,9.077724365234374,-0.8305567976668476,9.728730894017218,-0.912325930141285
1667710513375774500,9.0877744140625,-0.6076493385022506,9.761416189044713,-0.7182754764202982
1667710513385825300,9.0978251953125,-0.38487120480574666,9.78505250069797,-0.5244241254679859
1667710513395876400,9.10787646484375,-0.15561132614081724,9.798560801568627,-0.36658272045385093
1667710513405927400,9.117927490234376,0.08729482796019875,9.802530874243377,-0.27043869687467814
1667710513415978500,9.127978515625,0.34575167547967284,9.797606861844658,-0.24033251335388048
1667710513426029600,9.138029541015625,0.610291048650071,9.784898771440982,-0.23169992876080794
1667710513436079400,9.148079345703126,0.8762040117286145,9.765966691955924,-0.1688574506776407
1667710513446130200,9.158130126953125,1.122784863153845,9.742156192779541,-0.010107227147830416
1667710513456181200,9.16818115234375,1.3232123045608402,9.71474270067513,0.20802649996755643
1667710513466232300,9.178232421875,1.4759857221283017,9.685805360004306,0.4207592413973063
1667710513476283400,9.188283447265626,1.6079636044263839,9.655686700594424,0.5937556915758178
1667710513486333400,9.19833349609375,1.7485981097802519,9.621595630422235,0.7332660517379641
1667710513496384300,9.20838427734375,1.8989472228102384,9.581794950431584,0.8681116714920848
1667710513506435300,9.218435302734376,2.0409939330495894,9.538044071510434,1.0151230914667249
1667710513516486400,9.228486328125,2.1686238492712375,9.493796933504939,1.1555577633995562
1667710513526537500,9.238537353515625,2.2893778883740303,9.450938619509339,1.2684215607091784
1667710513536588500,9.248588623046874,2.4132497672364113,9.409036583325266,1.34783967307806
1667710513546638600,9.258638671875,2.5429350085526705,9.367829543668032,1.3955769912868736
1667710513556689200,9.268689208984375,2.6743784917131066,9.32775121577978,1.4181478656657038
1667710513566740200,9.278740234375,2.8052050120189786,9.288656053709984,1.4219921200037002
1667710513576791300,9.288791259765626,2.9309014759600163,9.253733793410658,1.3959268276378511
1667710513586842400,9.29884228515625,3.0407775626957414,9.228270266330242,1.3278177525296806
1667710513596892400,9.308892333984375,3.1249297178491946,9.213886351668835,1.2286205884575843
1667710513606943500,9.318943603515624,3.16983824237287,9.212485252699256,1.1191994058825074
1667710513616994300,9.328994384765625,3.1568346761539576,9.228258575892449,1.0217548576314002
1667710513627045400,9.33904541015625,3.0743723737835884,9.263332227361202,0.9535494094766676
1667710513637096400,9.349096435546874,2.928611611457169,9.315326618492604,0.9046051996961235
1667710513647146500,9.359146484375,2.7395193646654485,9.378045232734083,0.8471583153124899
1667710513657197600,9.369197509765625,2.5450349034413695,9.439580774670839,0.7664641185931861
1667710513667248400,9.379248291015625,2.374099660108983,9.491982577559352,0.6605076164539903
1667710513677299200,9.38929931640625,2.232508876943588,9.534194994866848,0.5342173148056492
1667710513687350300,9.399350341796875,2.125590178708732,9.564886485728621,0.40643348666392265
1667710513697401300,9.4094013671875,2.0563241886503993,9.583536241140962,0.31269860658571125
1667710513707451400,9.419451416015624,1.9801061874970793,9.599305472680927,0.32077432448100296
1667710513717502500,9.42950244140625,1.8441556021757424,9.617888008075951,0.5154821095995604
1667710513727553300,9.43955322265625,1.6570697267703711,9.623623921379446,0.9001922055594622
1667710513737604400,9.449604248046874,1.4733949749827384,9.612776948672533,1.2625368865847586
1667710513747655400,9.459655517578126,1.349440094012022,9.612834231817722,1.3938489984504878
1667710513757705500,9.46970556640625,1.306499216299504,9.626727732613682,1.337740596129
1667710513767757000,9.479757080078125,1.3357044141262768,9.638346274214982,1.2200633341230451
1667710513777808000,9.489807861328124,1.3902709938332438,9.64317910119891,1.1165366164140402
1667710513787859000,9.49985888671875,1.4206369060024617,9.647446695515512,1.0387317844606936
1667710513797910000,9.509909912109375,1.3941072109952568,9.659339377883077,0.961260422245413
1667710513807961000,9.519961181640625,1.2963194753296672,9.684503629755973,0.8368773789905011
1667710513818011000,9.530010986328126,1.142202534198761,9.718990421247481,0.6379507706005126
1667710513828061700,9.540061767578125,0.9521472145285457,9.752725517588853,0.3848815070040524
1667710513838112800,9.55011279296875,0.7277418084237725,9.779052968022226,0.10434796183086
1667710513848163800,9.560163818359374,0.4285533658722415,9.79530969081819,-0.1966020013673231
1667710513858215000,9.57021484375,0.04099970791633241,9.795008662045001,-0.475929486085847
1667710513868266000,9.580265869140625,-0.29757644077762957,9.779541043800116,-0.665132865101844
1667710513878316000,9.59031591796875,-0.49368400969151405,9.763442726436256,-0.7757781095791607
1667710513888366800,9.600366943359376,-0.6218234463378787,9.749639826533198,-0.853368933455646
1667710513898418000,9.61041796875,-0.7959685916274786,9.731253690493107,-0.9162601277850567
1667710513908469000,9.620468994140625,-1.0811645665206016,9.69834744619131,-0.9713510966923087
1667710513918520000,9.63052001953125,-1.444932996738702,9.646056117939949,-1.0179110416848212
1667710513928570000,9.640570068359375,-1.7879206508651375,9.581437807556986,-1.0815527621205896
1667710513938621000,9.650620849609375,-2.0490992058329285,9.516294596517085,-1.1881591064706445
1667710513948671700,9.660671630859374,-2.2397676159001887,9.453725035357476,-1.3345143275588751
1667710513958722800,9.670722900390626,-2.3883656474791466,9.39325273873806,-1.4942881254076956
1667710513968774000,9.68077392578125,-2.5012743799090384,9.34017522854507,-1.6355873782806098
1667710513978825000,9.690824951171875,-2.5884020437419415,9.294353388568759,-1.7565771258354186
1667710513988875000,9.700875,-2.660506033705175,9.250866129019856,-1.8744554633714257
1667710513998925800,9.71092578125,-2.7148583861395714,9.208899210906027,-1.9990275994576512
1667710514008977000,9.720976806640625,-2.7396666641816494,9.175130796816944,-2.1169731570109724
1667710514019028000,9.731028076171874,-2.734153161457181,9.156846952107548,-2.2015767091937364
1667710514029079000,9.7410791015625,-2.7064059073537585,9.15995660856068,-2.2228274408847093
1667710514039129000,9.751129150390625,-2.6609932327002284,9.187555978626012,-2.162945365243405
1667710514049180000,9.761179931640624,-2.585686939564347,9.240325445783137,-2.0250933302149177
1667710514059230700,9.771230712890626,-2.4927011973530053,9.307857597786187,-1.8222597044490276
1667710514069281800,9.78128173828125,-2.3905196106426416,9.378847781288624,-1.57892368016392
1667710514079332900,9.791332763671875,-2.254117920552939,9.447954635262489,-1.351105689136684
1667710514089384000,9.801384033203124,-2.0502179807297884,9.519140633597969,-1.1631626854453234
1667710514099434000,9.81143408203125,-1.7680663419686258,9.592598668518661,-1.0131050296425819
1667710514109484800,9.82148486328125,-1.444099468524009,9.658984573096037,-0.8882352257840335
1667710514119535900,9.831535888671874,-1.1268219366502017,9.711801386526226,-0.7626265862569213
1667710514129587000,9.8415869140625,-0.8151367448907345,9.751783852824568,-0.6392515510007739
1667710514139638000,9.851637939453125,-0.5042578280128538,9.779407188287378,-0.5284790999472141
1667710514149688000,9.86168798828125,-0.1846349933882244,9.794857270875573,-0.44390780606623736
1667710514159739100,9.8717392578125,0.14677328210351986,9.797264332017303,-0.4030592609904706
1667710514169790000,9.8817900390625,0.478142705155909,9.787117616534232,-0.3925640973959118
1667710514179840800,9.8918408203125,0.8052699423275888,9.766938751858472,-0.3589378682564944
1667710514189891800,9.901891845703124,1.1194746426273137,9.739577282202243,-0.24041538759805262
1667710514199943000,9.91194287109375,1.3901992437712847,9.70756184926033,-0.03154009106472367
1667710514209993000,9.921992919921875,1.5884857276268303,9.674977091997862,0.20478269574074073
1667710514220043800,9.932043701171875,1.7429207947961984,9.641966218277812,0.40630456305462864
1667710514230094800,9.9420947265625,1.9162780045785008,9.601523148730397,0.5558883177353069
1667710514240146000,9.95214599609375,2.1249752616807815,9.549273321533203,0.6828297767687589
1667710514250197000,9.962197021484375,2.329171992493421,9.490516012138128,0.8218602809920906
1667710514260248000,9.972248046875,2.5007348662048576,9.432415120825171,0.9727431355725973
1667710514270298000,9.982298095703126,2.642332663632929,9.378860640770196,1.1070008724361657
1667710514280349000,9.992348876953125,2.7648928753748536,9.330422480815649,1.2120270349226892
1667710514290400000,10.00239990234375,2.8755019525602457,9.286729469561577,1.2878528218880294
1667710514300450800,10.012450927734376,2.976618686518073,9.248178497371077,1.3346509595505893
1667710514310502000,10.022501953125,3.068003715534508,9.216499749037624,1.346791917590797
1667710514320552000,10.032552001953125,3.1501494993016124,9.194060538214444,1.3100278288170695
1667710514330603000,10.04260302734375,3.220340933641791,9.182388805121183,1.217998437482491
1667710514340653800,10.05265380859375,3.263874662680924,9.183138746705652,1.0897142220705747
1667710514350705000,10.062704833984375,3.2641116863071917,9.197965144437552,0.9557132364470511
1667710514360756000,10.072755859375,3.2082290555655955,9.228661311474442,0.8422965544950216
1667710514370807000,10.08280712890625,3.0852690308511255,9.277871040323376,0.7566998265564441
1667710514380857000,10.092857177734375,2.9000553790584207,9.343409972682595,0.6787914611633866
1667710514390908000,10.102907958984375,2.696091726349294,9.41097018173635,0.5789131464267149
1667710514400959000,10.112958984375,2.528103350123763,9.464832704827188,0.4427603530641645
1667710514411010000,10.123010009765625,2.4172655787490305,9.499978837010264,0.27855644554710013
1667710514421060900,10.133060791015625,2.36327986766994,9.516996607306599,0.10993983615431933
1667710514431111000,10.14311083984375,2.3660597076468166,9.516880871972441,-0.03348188191541703
1667710514441162000,10.153161865234376,2.4311858214214443,9.500009816670417,-0.09767890499625355
1667710514451212800,10.163212890625,2.463872577753663,9.492001866781711,0.04055341632040217
1667710514461264000,10.173263916015625,2.3280001722350714,9.51528045103848,0.45849564580190927
1667710514471315000,10.18331494140625,1.9456316709652541,9.564599485480786,0.9504440638724714
1667710514481365000,10.193364990234375,1.497858969631791,9.611075989973545,1.2466088112212717
1667710514491416000,10.203416015625,1.1845966647487134,9.645191610065101,1.3181038755059242
1667710514501467000,10.213466796875,1.1036750890143214,9.660033205366133,1.2790696498431264
1667710514511518000,10.22351806640625,1.2125398067504167,9.655207392644881,1.2153647279780357
1667710514521569000,10.233569091796875,1.370402510280907,9.644299045139551,1.1313242165055126
1667710514531620000,10.2436201171875,1.485567789465934,9.642606854268909,0.9917699806690216
1667710514541670000,10.253669921875,1.5198985136128962,9.656508538371323,0.7823913171738386
1667710514551721000,10.263720947265625,1.4647434664934873,9.68341057382226,0.5064428439017385
1667710514561771800,10.273771728515625,1.3257085052907467,9.714812258780002,0.18797931711375712
1667710514571822800,10.28382275390625,1.1077896116610615,9.742906718885898,-0.13768865202716551
1667710514581874000,10.2938740234375,0.7959121121998876,9.764288529610633,-0.4422603676527738
1667710514591925000,10.303925048828125,0.39277233331911265,9.774120187795162,-0.6947687094308436
1667710514601975000,10.31397509765625,0.030282994542561937,9.766428464248776,-0.8867646417748183
1667710514612025900,10.32402587890625,-0.19087752277329562,9.749785957005619,-1.0371385969851166
1667710514622077000,10.334076904296875,-0.3330211905810982,9.73299848833382,-1.1524952340237795
1667710514632128000,10.3441279296875,-0.5095668942064047,9.71446388373375,-1.2409319346286356
1667710514642179000,10.354178955078124,-0.7946266024339944,9.686141460090875,-1.3105803481332956
1667710514652228900,10.364228759765625,-1.1604361830908805,9.6408334148556,-1.370442988421768
1667710514662280000,10.374280029296875,-1.5018828183203934,9.581489830005168,-1.4525062084719538
1667710514672330800,10.384330810546874,-1.7580514361716806,9.517818445083499,-1.5782142167203128
1667710514682381800,10.3943818359375,-1.943514094289392,9.453390104314684,-1.7396981794878839
1667710514692433000,10.404432861328125,-2.083030555398762,9.38871801791787,-1.9192060208544135
1667710514702484000,10.41448388671875,-2.1835782572969795,9.3309806992203,-2.082100288811326
1667710514712534000,10.424533935546876,-2.260767587700486,9.282710881569981,-2.211467404089123
1667710514722585000,10.434585205078125,-2.3298414161875844,9.238557267066836,-2.3219133996672925
1667710514732636000,10.444635986328125,-2.387605769022554,9.196104611262678,-2.4292742887116967
1667710514742687000,10.45468701171875,-2.420506168105453,9.161443047726154,-2.525766139347851
1667710514752738000,10.464738037109376,-2.4177216519534586,9.14438436089754,-2.5894512605339286
1667710514762787800,10.474787841796875,-2.3828880928508935,9.152077253487706,-2.594553259848058
1667710514772839200,10.484839111328125,-2.330561401025206,9.18405293894112,-2.5282500651180744
1667710514782890000,10.494889892578126,-2.2648459430553016,9.23513430688083,-2.398575491326302
1667710514792941000,10.504941162109375,-2.199579982418567,9.29507527310252,-2.2212169369481503
1667710514802992000,10.5149921875,-2.120693492708355,9.361123908549546,-2.010571176126599
1667710514813043200,10.525043212890624,-1.995647017108649,9.432536116856337,-1.7930499765776096
1667710514823093200,10.53509326171875,-1.811438158444315,9.506136190596223,-1.5882243002116678
1667710514833144000,10.54514404296875,-1.575282985574007,9.574649170330167,-1.4194908047072587
1667710514843195100,10.555195068359374,-1.3202454175792633,9.633176762622595,-1.2764124133326114
1667710514853246200,10.56524609375,-1.0702435056641697,9.682973351448775,-1.124706259670481
1667710514863297300,10.57529736328125,-0.811402599863708,9.726032740974425,-0.957234966121614
1667710514873347300,10.585347412109375,-0.5296122321629897,9.760384507909416,-0.7904293699398637
1667710514883398100,10.595398193359374,-0.24761872483929617,9.783275554153322,-0.629730566200614
1667710514893449000,10.605448974609375,0.02563353390205884,9.794287946555018,-0.49156310854740437
1667710514903500000,10.6155,0.2978870410967618,9.794042447361349,-0.39796383754760023
1667710514913551000,10.625551025390624,0.5823550305088981,9.783531574741005,-0.3372457129409537
1667710514923602200,10.635602294921876,0.9007041006043552,9.761615511009097,-0.26452824898818506
1667710514933652200,10.64565234375,1.2301733708575366,9.728435710462927,-0.12088977604536338
1667710514943703300,10.655703369140625,1.5044810181200503,9.690078799539803,0.09633539056596345
1667710514953754000,10.665754150390624,1.6790006958104668,9.656617259442806,0.3179728571942076
1667710514963805200,10.67580517578125,1.801049304768443,9.627038698258996,0.496694662749581
1667710514973856300,10.685856201171875,1.9379284031115471,9.591704350027442,0.6434421345584094
1667710514983907300,10.6959072265625,2.098232946836203,9.547124034544826,0.787537009499222
1667710514993957400,10.705957275390626,2.2531382618658244,9.497779281139373,0.9412432509373873
1667710515004008000,10.716008056640625,2.384999093655497,9.44935105805695,1.0917503310080616
1667710515014059000,10.72605908203125,2.4934146063193676,9.405891855558753,1.2175582194343209
1667710515024110000,10.736110107421876,2.5882117818668484,9.367516824457049,1.311939653787762
1667710515034161200,10.7461611328125,2.6760852956309913,9.332730173236131,1.3817071636274456
1667710515044211200,10.756211181640625,2.7541353345170614,9.30266821244955,1.4302064061194657
1667710515054262300,10.76626220703125,2.820798886992037,9.280303820428252,1.4454942838832736
1667710515064313000,10.77631298828125,2.8780855393126603,9.267732508146763,1.4128586732164023
1667710515074364200,10.7863642578125,2.9226822214081882,9.265207373583316,1.3357446000061928
1667710515084415200,10.796415283203125,2.9311709405511617,9.275746887776256,1.2406088401541113
1667710515094466300,10.80646630859375,2.8689865793168545,9.305990634870529,1.1566506732027977
1667710515104516400,10.816516357421875,2.729442207287252,9.356851053535937,1.0815903907172382
1667710515114567200,10.826567138671875,2.544026310920715,9.418734385997057,0.992865301625058
1667710515124618000,10.836617919921874,2.372011455658078,9.475333056053518,0.8729488823901861
1667710515134669000,10.8466689453125,2.252762122029811,9.516834694743157,0.7247986676439643
1667710515144720100,10.85672021484375,2.1794627848021686,9.545228430056572,0.5558026122132316
1667710515154770200,10.866770263671874,2.129946620352566,9.564994622278213,0.3802540298664942
1667710515164821200,10.8768212890625,2.091266322693974,9.578364975982904,0.22783823009766638
1667710515174872000,10.8868720703125,2.067029707060009,9.584913959234953,0.16486914822645485
1667710515184923100,10.896923095703125,2.0175443761400875,9.592167291364072,0.3003279497091658
1667710515194974200,10.90697412109375,1.8765265705570577,9.600242461270094,0.6959734821107239
1667710515205025300,10.917025390625,1.5914625514805316,9.607508068358898,1.1547388482321053
1667710515215075300,10.927075439453125,1.3428617385350168,9.609783027553558,1.4209715447843074
1667710515225126100,10.937126220703124,1.2831085499703883,9.615216158518194,1.439311941986531
1667710515235177200,10.94717724609375,1.3467317118361593,9.620458150824904,1.342936703467369
1667710515245228000,10.95722802734375,1.4579757259242236,9.61891559755802,1.2333527315460144
1667710515255279000,10.967279052734375,1.556282517027855,9.616638884797691,1.1263312305238098
1667710515265329200,10.9773291015625,1.6095383063971995,9.622599839028716,0.9926456675250083
1667710515275380200,10.987380126953125,1.605903603156656,9.641941083836555,0.7901957073144614
1667710515285431000,10.99743115234375,1.5249702639192342,9.674346977400779,0.5018361172912642
1667710515295482000,11.007482177734374,1.3455597454473376,9.71256009593904,0.16131001270646228
1667710515305533200,11.017533203125,1.059748342069611,9.747553083387016,-0.1803603848089464
1667710515315584300,11.027584228515625,0.6485738714236766,9.77218483581841,-0.5041430790593847
1667710515325634300,11.03763427734375,0.07981799840666354,9.774740950042009,-0.7864071286864578
1667710515335685400,11.047685302734376,-0.4755003008883446,9.7466529196769,-0.9731476247202604
1667710515345736200,11.057736083984375,-0.7944855134628712,9.71498352369368,-1.0762211187690496
1667710515355787300,11.067787353515625,-0.9494427778754383,9.694992290544509,-1.12963202563487
1667710515365838000,11.077838134765624,-1.1097990517873317,9.67324398459494,-1.1692208895057439
1667710515375889200,11.08788916015625,-1.3681776738382876,9.63284943036437,-1.2274709800310433
1667710515385939200,11.097939208984375,-1.6786100890576838,9.571347790697217,-1.3198261692538857
1667710515395990000,11.107989990234374,-1.9470440219812093,9.50160848403871,-1.4487373574577271
1667710515406041000,11.118041015625,-2.1354344041138886,9.43484439379871,-1.6105942451909183
1667710515416092200,11.128092041015625,-2.2572771152362225,9.375333051165939,-1.7827568383611738
1667710515426143200,11.138143310546875,-2.3368273295521735,9.324847895553708,-1.938257635065913
1667710515436193300,11.148193359375,-2.394869914806634,9.279815160128473,-2.0784650010488925
1667710515446244400,11.158244384765625,-2.443646951326728,9.235693694329262,-2.2138082681268454
1667710515456295200,11.168295166015625,-2.4833967779129744,9.193474847280978,-2.3416176325686275
1667710515466346200,11.17834619140625,-2.5033298511341213,9.160373372668028,-2.447709962981939
1667710515476397300,11.188397216796876,-2.494831487379968,9.14546747995913,-2.5113018529266116
1667710515486448000,11.1984482421875,-2.463674717094004,9.153280199536681,-2.513593178734183
1667710515496498200,11.208498291015625,-2.449312429742515,9.178449127584695,-2.4346100967817006
1667710515506549000,11.218549072265626,-2.4779335440710186,9.216660492557287,-2.254640190861374
1667710515516600000,11.22860009765625,-2.4995769283413884,9.275093392303585,-1.9736130260854958
1667710515526651100,11.238651123046875,-2.457279463098943,9.353810955187678,-1.6243156042903661
1667710515536702200,11.2487021484375,-2.332524810052663,9.438201303011178,-1.284552611298859
1667710515546752300,11.258752197265625,-2.121099589291215,9.519313652077317,-1.0266470866523683
1667710515556803300,11.26880322265625,-1.8522997456647454,9.593784663432835,-0.8358635988380759
1667710515566854100,11.278854248046875,-1.5783340437076985,9.655594930657744,-0.6698932844366878
1667710515576905200,11.2889052734375,-1.3190233284384012,9.704525258043407,-0.5027543281147256
1667710515586956300,11.298956298828125,-1.061936280567944,9.742913148626684,-0.34398696736209095
1667710515597007400,11.30900732421875,-0.788846046271175,9.772588155922293,-0.21125289640184491
1667710515607057200,11.31905712890625,-0.47155879672095175,9.794534030270576,-0.12296236280202864
1667710515617108200,11.329108154296875,-0.11758365630521439,9.80552947153747,-0.09031870582601986
1667710515627159000,11.339158935546875,0.23285189354121683,9.803446820044517,-0.09270782031910493
1667710515637210000,11.349210205078125,0.560584074336104,9.790375157025457,-0.06843923864429816
1667710515647261200,11.35926123046875,0.8671313552178442,9.768111302769183,0.04979138292809948
1667710515657312300,11.369312255859375,1.1407308542110026,9.736303375098109,0.27114761232901363
1667710515667362300,11.3793623046875,1.3628772293426095,9.696954530528187,0.5310663399614394
1667710515677413000,11.3894130859375,1.5452984739378093,9.653748426008224,0.7665279776096343
1667710515687464200,11.399464111328125,1.7276527907766401,9.604739772689342,0.9667333737637848
1667710515697515300,11.409515380859375,1.932919342777878,9.544589547631144,1.1554312874756754
1667710515707566300,11.41956640625,2.1400635252192615,9.474765485298633,1.3488261998973785
1667710515717616000,11.4296162109375,2.3265781766079363,9.403610466623306,1.5262813465178011
1667710515727667200,11.439667236328125,2.495578798615932,9.335597253105044,1.6700576570287347
1667710515737718000,11.449718017578125,2.663866450048983,9.27001331256032,1.7722940426662563
1667710515747769000,11.45976904296875,2.8412124372065066,9.206075385656952,1.8292236982427537
1667710515757820200,11.469820068359375,3.022320114985108,9.144488405793904,1.847791036068648
1667710515767870700,11.47987060546875,3.1989898103162644,9.08695976141095,1.8341262294620275
1667710515777920800,11.489920654296874,3.366557623042166,9.037326254191994,1.7785929966799914
1667710515787971800,11.499971923828125,3.5153637444138526,9.000757980251311,1.6729995556995272
1667710515798022700,11.510022705078125,3.62670873465836,8.982137450933456,1.5292518867611884
1667710515808073700,11.52007373046875,3.6781989756599067,8.98539440690279,1.3798359629280865
1667710515818124800,11.530124755859376,3.6471865822806953,9.014398383069038,1.2684756289839745
1667710515828176000,11.54017578125,3.526226791472733,9.070182229611277,1.2115866707440466
1667710515838226000,11.550225830078125,3.3391154893651604,9.145948541474342,1.1714638461269438
1667710515848276700,11.56027685546875,3.128167092335224,9.229507114648818,1.0959781778361648
1667710515858327800,11.570327880859375,2.9433640671700236,9.304889980152248,0.9623134384296834
1667710515868378600,11.580378662109375,2.805377445976436,9.364048856085539,0.7841094462033361
1667710515878429700,11.5904296875,2.698658069705963,9.409863681799173,0.5848846220517531
1667710515888479700,11.600479736328126,2.5975103560879824,9.448406470683217,0.38850002629477526
1667710515898530800,11.61053076171875,2.493203593917191,9.481603222364187,0.2313599927493371
1667710515908581600,11.62058154296875,2.401326543600112,9.506164247646927,0.19198995926091447
1667710515918632700,11.6306328125,2.3051515038281676,9.522498127332328,0.42270544356163586
1667710515928683800,11.640683837890625,2.1125686384417115,9.523501751416921,1.0051697065986693
1667710515938734800,11.65073486328125,1.7420355363942681,9.527321017444134,1.538142026311904
1667710515948785000,11.660784912109374,1.536034094247222,9.530153610521554,1.728343841780722
1667710515958836000,11.6708359375,1.6100519550077617,9.522716738519073,1.7017603707596658
1667710515968886800,11.68088671875,1.836623453105241,9.49819370715916,1.6067081975378095
1667710515978937900,11.690937744140625,2.0592406606189906,9.469541028648614,1.5025554568849504
1667710515988988700,11.70098876953125,2.183215561464429,9.457582879829406,1.3993154471628366
1667710515999039700,11.711039794921875,2.189741602232307,9.475121459129452,1.2639235186375677
1667710516009089800,11.72108984375,2.0650744813390074,9.52954570775628,1.0457543035086243
1667710516019140600,11.731140625,1.8021052435621618,9.610458734858035,0.749579473157227
1667710516029191700,11.741191650390626,1.4312809034831822,9.691906014966964,0.43447519366927445
1667710516039242800,11.75124267578125,1.0268550303146242,9.75187445371747,0.13004685030342078
1667710516049293800,11.7612939453125,0.6286594298377632,9.784878313174843,-0.17704221843797713
1667710516059344000,11.77134375,0.17386309521151705,9.793437467205523,-0.4782565773265436
1667710516069395000,11.78139501953125,-0.28705837123151867,9.77776000560224,-0.6952705214731395
1667710516079445800,11.79144580078125,-0.6105688426781445,9.7531422816962,-0.8208719275418669
1667710516089496800,11.801496826171874,-0.8320587997276335,9.729802322641014,-0.8994529314994811
1667710516099548000,11.8115478515625,-1.0609471234001218,9.701161334568262,-0.965531231432408
1667710516109598700,11.8215986328125,-1.3608584368661045,9.655458737057447,-1.0443052737440914
1667710516119648800,11.831648681640624,-1.7097496159479022,9.58855611512959,-1.1431365271132439
1667710516129699600,11.841699462890626,-2.034868289776146,9.508778814059495,-1.2699665981940924
1667710516139750700,11.851750732421875,-2.2787837213844058,9.429572590875624,-1.4355094809636473
1667710516149801700,11.8618017578125,-2.441200873348862,9.358696973663568,-1.6204069064140318
1667710516159852800,11.871852783203124,-2.555322780960798,9.297625542107223,-1.7874208846494555
1667710516169903900,11.88190380859375,-2.653848913903534,9.240161195132135,-1.935692314622551
1667710516179954000,11.891953857421875,-2.749072498169541,9.179770147055386,-2.084422594279051
1667710516190004700,11.902004638671874,-2.82628608623147,9.11950418666303,-2.239897379759699
1667710516200055800,11.912055908203126,-2.8622964340284467,9.070259386500716,-2.3891524139426648
1667710516210107000,11.92210693359375,-2.853025916858017,9.042477061083913,-2.5028446979656813
1667710516220158000,11.932157958984375,-2.805953492298722,9.044117229506373,-2.5496938351631164
1667710516230208500,11.94220849609375,-2.762417717432976,9.068936028942465,-2.5087474922686814
1667710516240258800,11.9522587890625,-2.766272054773569,9.107107646426558,-2.3619296221047636
1667710516250309600,11.9623095703125,-2.7802508957654237,9.1650846190989,-2.1075560709767043
1667710516260360700,11.972360595703124,-2.753714771017432,9.244077491793036,-1.7704403776235877
1667710516270411800,11.982411865234376,-2.6613419000074265,9.330967255216837,-1.4215101817056537
1667710516280462800,11.992462890625,-2.486703710503876,9.416232632309198,-1.1494538205012679
1667710516290513000,12.002512939453124,-2.243928681102395,9.497398172867298,-0.9667437490273266
1667710516300563700,12.012563720703126,-1.9714745527520774,9.569770750638842,-0.8385444354198872
1667710516310614800,12.02261474609375,-1.7065993352234363,9.629549804297088,-0.7277803868684918
1667710516320665900,12.032665771484375,-1.4416488605014979,9.680969610410928,-0.6089662297870964
1667710516330717000,12.042717041015624,-1.150626006085798,9.726760470727086,-0.48636820678543297
1667710516340767700,12.052767822265626,-0.8314446133520453,9.764115511131285,-0.37564821657147257
1667710516350817800,12.06281787109375,-0.4709305087547749,9.79139222511351,-0.27792295168284326
1667710516360868600,12.07286865234375,-0.09551508715902454,9.804109667867422,-0.20179366999259218
1667710516370919700,12.082919677734376,0.2514212223947979,9.802408124646544,-0.14132134597371332
1667710516380970800,12.092970703125,0.5862207294937223,9.788889302381872,-0.0661177094947081
1667710516391021800,12.103021728515625,0.9375842900384217,9.761414435479045,0.07804439459657296
1667710516401072600,12.11307275390625,1.2676590519040822,9.719008541426062,0.3229314294496551
1667710516411122700,12.123122802734375,1.5000246232330798,9.67158452695012,0.6170529440004379
1667710516421173800,12.133173828125,1.6449517112143337,9.628418754440546,0.8706904359389096
1667710516431224800,12.143224853515624,1.7950177695192395,9.583559037494659,1.050559731028974
1667710516441276000,12.15327587890625,1.990374629663676,9.529238249242304,1.1842384258955716
1667710516451326700,12.16332666015625,2.202065661754459,9.46654769205153,1.306048696053028
1667710516461377800,12.173377685546875,2.3910445112995804,9.402142732158303,1.4328461069732903
1667710516471427600,12.183427490234376,2.5487571388348935,9.342517407757043,1.5464821307644248
1667710516481478700,12.193478759765625,2.6878701337099073,9.29059958899319,1.6218730334438383
1667710516491529700,12.20352978515625,2.82093303476572,9.243988059943915,1.6617412257127462
1667710516501580800,12.213580810546874,2.9484666510060427,9.20210648202598,1.6727669159874319
1667710516511631600,12.223631591796876,3.062832158115506,9.168584736174344,1.6512161784365773
1667710516521682700,12.2336826171875,3.161359752362966,9.148220578059554,1.5767798000030218
1667710516531732700,12.243732666015624,3.2375410747677087,9.143436850914359,1.444389537511766
1667710516541783800,12.25378369140625,3.276846664717793,9.153589996138214,1.2823627000391482
1667710516551835000,12.2638349609375,3.261526345989108,9.1786075330168,1.1340030803259462
1667710516561886000,12.273885986328125,3.1754253948554396,9.221980810797215,1.020842272831127
1667710516571936800,12.283936767578124,3.0107603178337214,9.287557737079263,0.9203047270007431
1667710516581986600,12.293986572265625,2.811578638704121,9.3615459333539,0.7917453479092568
1667710516592037600,12.30403759765625,2.6466867671892045,9.422715564587712,0.6147146372459829
1667710516602088700,12.314088623046874,2.5405770472496747,9.463893378150463,0.38807917053420093
1667710516612139800,12.324139892578126,2.4789818840801714,9.487187744498252,0.13529341832054778
1667710516622190600,12.334190673828125,2.444097179312259,9.496593286225199,-0.10724929102924652
1667710516632241700,12.34424169921875,2.4332573669984936,9.49562181084454,-0.28780526234237475
1667710516642291700,12.354291748046874,2.46668500482589,9.486143788403272,-0.3145428462129086
1667710516652342800,12.3643427734375,2.5299457631200553,9.4741552444458,-0.10068416949314996
1667710516662393900,12.374393798828125,2.5350606219157577,9.46611631489694,0.3694553898133337
1667710516672445000,12.38444482421875,2.3558169844433663,9.46887993439138,0.9802146404970437
1667710516682495700,12.394495849609376,2.0458362585142256,9.489639229303599,1.389857590726763
1667710516692546800,12.404546875,1.8715311003573238,9.496798453408479,1.5743518422037361
1667710516702596600,12.4145966796875,1.9213782503269612,9.46889688552618,1.6788972354359923
1667710516712647700,12.424647705078126,2.079000276969373,9.419520567938685,1.7665778569765387
1667710516722698800,12.43469873046875,2.1706588622301815,9.38946328332722,1.8156652746200561
1667710516732749800,12.444749755859375,2.140986339152604,9.403771210142969,1.7764100996829568
1667710516742800600,12.454800537109374,1.9823134882830082,9.467977432593703,1.6119056200504303
1667710516752851700,12.464851806640626,1.7177780241027474,9.562375379690527,1.3343848559603095
1667710516762901800,12.47490185546875,1.4060425634607672,9.654785952362417,0.9891909970264882
1667710516772953000,12.484953125,1.1071237681634722,9.723941321653127,0.6241949247095734
1667710516783004200,12.495004150390624,0.8034427269004285,9.771036250305174,0.22738162717027588
1667710516793055000,12.505054931640625,0.38256303746122866,9.797321030640601,-0.1911042076686397
1667710516803106000,12.51510595703125,-0.09045510035571641,9.793030055448412,-0.5086942760903388
1667710516813156000,12.525156005859374,-0.39960455395933236,9.776298116356134,-0.6593147534076124
1667710516823207200,12.535207275390626,-0.5717719329025596,9.763713944593071,-0.7165000642456114
1667710516833258200,12.54525830078125,-0.7500227599453181,9.749249950432777,-0.748308576438576
1667710516843308800,12.555308837890625,-1.0306103642601518,9.719777187711,-0.7963401283536106
1667710516853359900,12.56535986328125,-1.3974518452480436,9.666648824113606,-0.8794406555622816
1667710516863411000,12.575410888671875,-1.7516547208718956,9.597015900439024,-0.9996798039454966
1667710516873462000,12.5854619140625,-2.033211900871247,9.523917931002378,-1.153880623967573
1667710516883512000,12.595511962890624,-2.247180230244249,9.45261678185463,-1.3298904671505092
1667710516893563100,12.605563232421876,-2.411756313808262,9.385112686902284,-1.507811769977957
1667710516903614000,12.615614013671875,-2.5525185371950267,9.317900268372894,-1.6827859134376049
1667710516913665000,12.6256650390625,-2.69603473546505,9.242136294597387,-1.8667380208618938
1667710516923716000,12.635716064453124,-2.8314477067783472,9.159126587477326,-2.0648710677213966
1667710516933766100,12.64576611328125,-2.9277275220990178,9.081540658971667,-2.263718254199624
1667710516943817200,12.655817138671875,-2.9641391441732643,9.02401785980761,-2.439542877008766
1667710516953868000,12.665867919921874,-2.9268887331873175,8.997600977525115,-2.578158005364239
1667710516963918800,12.6759189453125,-2.8629660038530824,8.996579233261942,-2.652426479884982
1667710516973970000,12.685969970703125,-2.821028896355629,9.021938715445994,-2.6109037984073162
1667710516984021000,12.69602099609375,-2.782380601270497,9.08088424088955,-2.4425993419699368
1667710516994071000,12.706071044921876,-2.7187337662681936,9.165006877687572,-2.186671693267673
1667710517004122000,12.7161220703125,-2.5870082512959836,9.264364493018387,-1.9103262565672396
1667710517014173000,12.7261728515625,-2.366467703925818,9.366026293638347,-1.6875398299664257
1667710517024224000,12.73622412109375,-2.0883334841124714,9.456330249419809,-1.5450107430376112
1667710517034275000,12.746275146484376,-1.7801123152017593,9.533521625649929,-1.4538039931975304
1667710517044326100,12.756326171875,-1.4535310214750468,9.598881109789014,-1.385325792516023
1667710517054376200,12.766376220703124,-1.1159664883758873,9.653731474873423,-1.3154806873954832
1667710517064427300,12.77642724609375,-0.7638809702321887,9.699967740869521,-1.2237264597404747
1667710517074478000,12.78647802734375,-0.4034890307098627,9.736313311970234,-1.100819188126549
1667710517084529000,12.79652880859375,-0.03864790692606475,9.761410928347706,-0.9400753031365573
1667710517094580000,12.806580078125,0.3425832015113905,9.77451298650503,-0.7154825577661394
1667710517104631000,12.816631103515626,0.7380533590797335,9.770292153939604,-0.40873482240885495
1667710517114681000,12.82668115234375,1.0929174020260572,9.745452896237373,-0.045407829515053885
1667710517124732000,12.83673193359375,1.3513079337105154,9.707920745700598,0.3171649383448064
1667710517134783000,12.846782958984376,1.529280820594728,9.663495913040638,0.6697141284774989
