time,seconds_elapsed,z,y,x
1667710504309961000,0.0219609375,-0.33323314785957336,0.07357894629240036,-0.49405524134635925
1667710504320011800,0.03201171875,-0.31078025698661804,0.2691349387168884,-0.3595208525657654
1667710504330062800,0.042062744140625,-0.27402782440185547,0.4435408413410187,-0.2216271609067917
1667710504340113000,0.05211279296875,-0.26615557074546814,0.5586310625076294,-0.10764869302511215
1667710504350164000,0.0621640625,-0.27543801069259644,0.6084175705909729,-0.022116482257843018
1667710504360215000,0.072215087890625,-0.2789324223995209,0.6205062866210938,0.039783578366041183
1667710504370265900,0.082265869140625,-0.26912426948547363,0.6294156312942505,0.09443403780460358
1667710504380316000,0.09231591796875,-0.27507418394088745,0.6116924285888672,0.1343335658311844
1667710504390367000,0.102366943359375,-0.3006439805030823,0.5568883419036865,0.1566106379032135
1667710504400417800,0.112417724609375,-0.30310481786727905,0.49813905358314514,0.1855103075504303
1667710504410468900,0.12246875,-0.2725200355052948,0.4871431291103363,0.23483845591545105
1667710504420519000,0.132518798828125,-0.21301521360874176,0.5215829014778137,0.295949250459671
1667710504430570000,0.142570068359375,-0.17622391879558563,0.5562915802001953,0.3338566720485687
1667710504440620800,0.152620849609375,-0.18548326194286346,0.516230046749115,0.32939818501472473
1667710504450671900,0.162671875,-0.23569422960281372,0.3695617616176605,0.28650984168052673
1667710504460723000,0.172722900390625,-0.28357478976249695,0.1890733242034912,0.2363480031490326
1667710504470773000,0.18277294921875,-0.31114354729652405,0.08361907303333282,0.1967151015996933
1667710504480824000,0.192823974609375,-0.2887013554573059,0.08100168406963348,0.1757163554430008
1667710504490875000,0.202875,-0.2265964299440384,0.15083162486553192,0.15507632493972778
1667710504500926000,0.212926025390625,-0.1509096473455429,0.19139158725738525,0.11716586351394653
1667710504510975700,0.222975830078125,-0.06034007668495178,0.1568290740251541,0.07375127822160721
1667710504521026800,0.23302685546875,0.054155267775058746,0.09593716263771057,0.03179609030485153
1667710504531078000,0.243077880859375,0.17349311709403992,0.06916573643684387,0.015286354348063469
1667710504541129000,0.25312890625,0.2797229290008545,0.08718424290418625,0.01026596873998642
1667710504551179800,0.2631796875,0.3457544147968292,0.11061419546604156,0.00303149176761508
1667710504561229800,0.273229736328125,0.3647260069847107,0.0967462956905365,-0.018207143992185593
1667710504571281000,0.283281005859375,0.31951218843460083,0.02947245165705681,-0.05583307892084122
1667710504581332000,0.29333203125,0.21417632699012756,-0.05834266170859337,-0.10998988896608353
1667710504591383000,0.303383056640625,0.06928066164255142,-0.1619521528482437,-0.17738623917102814
1667710504601432800,0.313432861328125,-0.06356755644083023,-0.2401965856552124,-0.23656894266605377
1667710504611484000,0.32348388671875,-0.1195346862077713,-0.21471625566482544,-0.2566606402397156
1667710504621534700,0.33353466796875,-0.06277096271514893,-0.0340566411614418,-0.22971829771995544
1667710504631585800,0.343585693359375,0.07530328631401062,0.27925148606300354,-0.1748497188091278
1667710504641636900,0.353636962890625,0.2319808453321457,0.5907592177391052,-0.13343589007854462
1667710504651687000,0.36368701171875,0.36081206798553467,0.8161451816558838,-0.13128405809402466
1667710504661738000,0.373738037109375,0.4441937208175659,0.9749049544334412,-0.17835484445095062
1667710504671789000,0.3837890625,0.4673975706100464,1.0528533458709717,-0.24311865866184235
1667710504681839900,0.39383984375,0.41466158628463745,0.9769818782806396,-0.34388160705566406
1667710504691890000,0.403889892578125,0.299557626247406,0.7411136627197266,-0.46108973026275635
1667710504701941000,0.41394091796875,0.14981119334697723,0.5042892694473267,-0.5124967098236084
1667710504711992000,0.423991943359375,0.03449125960469246,0.39245834946632385,-0.4466468095779419
1667710504722043000,0.43404296875,0.00440326239913702,0.3660898506641388,-0.27231693267822266
1667710504732093000,0.444093017578125,0.0917821079492569,0.3958751857280731,-0.02385358139872551
1667710504742143700,0.454143798828125,0.2589426338672638,0.49831536412239075,0.26812344789505005
1667710504752194800,0.46419482421875,0.4604344666004181,0.6079061031341553,0.5283491611480713
1667710504762245400,0.474245361328125,0.656564474105835,0.6558018326759338,0.7218004465103149
1667710504772296400,0.48429638671875,0.8088733553886414,0.6549224257469177,0.80353844165802
1667710504782346500,0.494346435546875,0.9035929441452026,0.5795632004737854,0.7661915421485901
1667710504792397600,0.5043974609375,0.9537575840950012,0.47443631291389465,0.6340614557266235
1667710504802448400,0.514448486328125,0.9759330749511719,0.3525039255619049,0.4269193410873413
1667710504812499500,0.52449951171875,0.9693949818611145,0.22676782310009003,0.18271492421627045
1667710504822549500,0.534549560546875,0.9378976225852966,0.15684163570404053,-0.06209032982587814
1667710504832600600,0.5446005859375,0.876611590385437,0.14801912009716034,-0.2834070324897766
1667710504842651600,0.554651611328125,0.7866061925888062,0.17020349204540253,-0.47036251425743103
1667710504852702700,0.56470263671875,0.6714172959327698,0.21109101176261902,-0.6197741031646729
1667710504862753300,0.574753173828125,0.5560186505317688,0.2887321710586548,-0.7104737758636475
1667710504872803300,0.58480322265625,0.48947158455848694,0.35327762365341187,-0.7394452095031738
1667710504882854400,0.5948544921875,0.4658559560775757,0.4102816879749298,-0.6941930055618286
1667710504892905500,0.604905517578125,0.4709356725215912,0.4785044193267822,-0.6004348397254944
1667710504902956500,0.61495654296875,0.3491581380367279,0.4747436046600342,-0.22710205614566803
1667710504913006600,0.625006591796875,0.25888895988464355,0.46114230155944824,0.15100929141044617
1667710504923057700,0.6350576171875,0.4250633120536804,0.6116247773170471,0.38984400033950806
1667710504933108500,0.6451083984375,0.6916744709014893,0.6481002569198608,0.5208517909049988
1667710504943159600,0.65515966796875,0.9090683460235596,0.4633624255657196,0.6385986804962158
1667710504953210600,0.665210693359375,1.014845371246338,0.20027406513690948,0.7005677819252014
1667710504963260400,0.675260498046875,1.0032966136932373,-0.13370271027088165,0.799634575843811
1667710504973311500,0.6853115234375,0.9390909671783447,-0.4464622139930725,0.912010908126831
1667710504983362600,0.695362548828125,0.8621580004692078,-0.7529006004333496,1.0025922060012817
1667710504993413400,0.705413330078125,0.7826690673828125,-1.0325828790664673,1.076564908027649
1667710505003463400,0.71546337890625,0.6971426010131836,-1.1429657936096191,1.1531108617782593
1667710505013514500,0.725514404296875,0.5903453230857849,-1.0363458395004272,1.2295801639556885
1667710505023565600,0.735565673828125,0.48155418038368225,-0.8684166073799133,1.25812566280365
1667710505033616600,0.74561669921875,0.41153329610824585,-0.7412109971046448,1.1897143125534058
1667710505043667500,0.75566748046875,0.4172276556491852,-0.6389394998550415,1.027232050895691
1667710505053717500,0.765717529296875,0.485492467880249,-0.5408294796943665,0.811145007610321
1667710505063768300,0.775768310546875,0.5835428237915039,-0.49538952112197876,0.6059461236000061
1667710505073819400,0.7858193359375,0.7079800963401794,-0.6335346102714539,0.5031198263168335
1667710505083870500,0.795870361328125,0.8793545365333557,-0.6154487729072571,0.4181278944015503
1667710505093920500,0.80592041015625,0.9667826294898987,-0.7283868193626404,0.4281328618526459
1667710505103971600,0.8159716796875,0.9197236895561218,-0.8760656118392944,0.4729580879211426
1667710505114022400,0.8260224609375,0.8009850978851318,-0.9157463908195496,0.5307305455207825
1667710505124073500,0.836073486328125,0.6696686148643494,-0.8244953155517578,0.5416282415390015
1667710505134124500,0.84612451171875,0.5681006908416748,-0.720464289188385,0.4893738031387329
1667710505144174600,0.856174560546875,0.5229601263999939,-0.6759001612663269,0.34369033575057983
1667710505154225700,0.8662255859375,0.5200207829475403,-0.641748309135437,0.10150327533483505
1667710505164276500,0.8762763671875,0.517238438129425,-0.6296930909156799,-0.1821143627166748
1667710505174327600,0.88632763671875,0.49479302763938904,-0.623630940914154,-0.4669538140296936
1667710505184377300,0.89637744140625,0.4062466025352478,-0.6525046825408936,-0.7151967883110046
1667710505194428400,0.906428466796875,0.23042845726013184,-0.6286169290542603,-0.8994377255439758
1667710505204479500,0.9164794921875,-0.07685573399066925,-0.40177637338638306,-0.937124490737915
1667710505214530600,0.926530517578125,-0.3588908612728119,-0.1669851690530777,-0.8630691766738892
1667710505224581400,0.936581298828125,-0.5352770090103149,-0.16525845229625702,-0.7807023525238037
1667710505234631400,0.94663134765625,-0.6135329604148865,-0.3142833411693573,-0.7339556217193604
1667710505244682500,0.9566826171875,-0.6283702254295349,-0.5186249017715454,-0.6882449388504028
1667710505254733600,0.966733642578125,-0.5767991542816162,-0.6869896650314331,-0.6086568832397461
1667710505264784600,0.97678466796875,-0.48934903740882874,-0.7468118667602539,-0.5118317604064941
1667710505274834400,0.98683447265625,-0.31706780195236206,-0.7129201889038086,-0.4617030918598175
1667710505284885500,0.996885498046875,-0.13553324341773987,-0.6757330298423767,-0.44006413221359253
1667710505294936300,1.006936279296875,-0.038639988750219345,-0.749534547328949,-0.4116806983947754
1667710505304987400,1.0169873046875,-0.033791348338127136,-0.8415936827659607,-0.37408772110939026
1667710505315038500,1.02703857421875,-0.008566152304410934,-0.863328754901886,-0.26595166325569153
1667710505325088500,1.037088623046875,0.09336439520120621,-0.8114259839057922,-0.12173815071582794
1667710505335139600,1.0471396484375,0.14871659874916077,-0.6881040334701538,-0.049175798892974854
1667710505345190400,1.0571904296875,0.09877024590969086,-0.4959772527217865,-0.002776526380330324
1667710505355241500,1.067241455078125,0.007352713495492935,-0.21921701729297638,0.04871010035276413
1667710505365292500,1.07729248046875,-0.05982593819499016,0.07498838752508163,0.12711147964000702
1667710505375342600,1.087342529296875,-0.12364272773265839,0.34612321853637695,0.21846351027488708
1667710505385393400,1.097393310546875,-0.1283286213874817,0.5517913699150085,0.3015404939651489
1667710505395444500,1.107444580078125,-0.008669853210449219,0.6627389192581177,0.3616770803928375
1667710505405495300,1.117495361328125,0.17299076914787292,0.7891380786895752,0.3480222523212433
1667710505415545300,1.12754541015625,0.43106281757354736,0.814947247505188,0.2582622766494751
1667710505425596400,1.137596435546875,0.6700974702835083,0.7983890771865845,0.12066952139139175
1667710505435647500,1.1476474609375,0.8513807058334351,0.7179514765739441,0.03851073607802391
1667710505445698600,1.157698486328125,0.9431012868881226,0.6702007055282593,0.014512693509459496
1667710505455748600,1.16774853515625,0.9307700395584106,0.6771419644355774,0.023839084431529045
1667710505465799700,1.177799560546875,0.8964223265647888,0.6847981214523315,0.026156537234783173
1667710505475850500,1.1878505859375,0.8827978372573853,0.6252554655075073,0.023461420089006424
1667710505485901600,1.197901611328125,0.8861952424049377,0.5070454478263855,0.0262092687189579
1667710505495952600,1.20795263671875,0.8730506896972656,0.35126549005508423,0.032438669353723526
1667710505506002400,1.21800244140625,0.8582963943481445,0.1912454068660736,0.020394057035446167
1667710505516053500,1.228053466796875,0.8411432504653931,0.07609883695840836,-0.04769924283027649
1667710505526104600,1.2381044921875,0.806672215461731,0.03636207431554794,-0.11836471408605576
1667710505536155400,1.2481552734375,0.7709501385688782,0.03567710891366005,-0.1871642768383026
1667710505546206500,1.25820654296875,0.7198199033737183,0.12264615297317505,-0.24056509137153625
1667710505556256500,1.268256591796875,0.6652266979217529,0.28333064913749695,-0.23007488250732422
1667710505566307600,1.2783076171875,0.624976634979248,0.4977785050868988,-0.14508381485939026
1667710505576358700,1.288358642578125,0.6029890775680542,0.6965373754501343,0.00947486236691475
1667710505586409500,1.298409423828125,0.5762147903442383,0.867592453956604,0.20784695446491241
1667710505596459300,1.308459228515625,0.5573550462722778,1.050716519355774,0.41089382767677307
1667710505606510300,1.31851025390625,0.5383145213127136,1.237721562385559,0.6026960015296936
1667710505616561400,1.3285615234375,0.5104416012763977,1.407634973526001,0.7800068855285645
1667710505626612500,1.338612548828125,0.4790583848953247,1.5328919887542725,0.9180684685707092
1667710505636663600,1.34866357421875,0.45192503929138184,1.559680700302124,0.9951123595237732
1667710505646713600,1.358713623046875,0.4356934726238251,1.477777361869812,1.0197540521621704
1667710505656764400,1.368764404296875,0.45867282152175903,1.3413476943969727,0.9940803050994873
1667710505666815500,1.3788154296875,0.4441140294075012,0.9525651335716248,0.832859992980957
1667710505676866600,1.388866455078125,0.44135257601737976,0.5866787433624268,0.557154655456543
1667710505686916600,1.39891650390625,0.4870801568031311,0.422786146402359,0.35505005717277527
1667710505696967700,1.4089677734375,0.5078626871109009,0.19657538831233978,0.2270398885011673
1667710505707018500,1.4190185546875,0.5033465027809143,0.07462482899427414,0.1704094111919403
1667710505717069300,1.4290693359375,0.49845853447914124,0.10278350114822388,0.20283710956573486
1667710505727120400,1.439120361328125,0.5038943886756897,0.1299724131822586,0.2789674699306488
1667710505737170400,1.44917041015625,0.5497987866401672,0.19769607484340668,0.3258897066116333
1667710505747221500,1.459221435546875,0.6425907015800476,0.387637734413147,0.25636598467826843
1667710505757272800,1.46927294921875,0.7400503754615784,0.588243305683136,0.0811702162027359
1667710505767324000,1.479323974609375,0.8120170831680298,0.7331326007843018,-0.18317656219005585
1667710505777374000,1.4893740234375,0.8675019145011902,0.8359873294830322,-0.4639589786529541
1667710505787425000,1.499425048828125,0.8724152445793152,0.8998830318450928,-0.673530101776123
1667710505797476000,1.50947607421875,0.8014012575149536,0.8997712135314941,-0.7469931244850159
1667710505807527200,1.519527099609375,0.6984813809394836,0.8794362545013428,-0.6841017007827759
1667710505817578000,1.529577880859375,0.571347713470459,0.8912239074707031,-0.5225183963775635
1667710505827628000,1.5396279296875,0.4445255398750305,0.9139059782028198,-0.3212175965309143
1667710505837679000,1.54967919921875,0.3862214684486389,0.9789930582046509,-0.1869226098060608
1667710505847730200,1.559730224609375,0.46055662631988525,1.0811896324157715,-0.19661353528499603
1667710505857781000,1.569781005859375,0.6495910286903381,1.168790578842163,-0.3429286777973175
1667710505867831000,1.5798310546875,0.8820504546165466,1.2474970817565918,-0.5921399593353271
1667710505877882000,1.589882080078125,1.0833522081375122,1.306372880935669,-0.8999385237693787
1667710505887933000,1.599932861328125,1.2254307270050049,1.285612940788269,-1.232385516166687
1667710505897984000,1.60998388671875,1.331247091293335,1.1398470401763916,-1.544169545173645
1667710505908035000,1.62003515625,1.402443528175354,0.896332323551178,-1.7641983032226562
1667710505918085000,1.630085205078125,1.4553738832473755,0.6357747912406921,-1.8433821201324463
1667710505928136200,1.64013623046875,1.5015279054641724,0.4510045349597931,-1.7667455673217773
1667710505938187000,1.65018701171875,1.5423589944839478,0.34329190850257874,-1.576628565788269
1667710505948238000,1.660238037109375,1.5756182670593262,0.2926260530948639,-1.3264472484588623
1667710505958288000,1.670287841796875,1.5991235971450806,0.3398926258087158,-1.0784142017364502
1667710505968339000,1.6803388671875,1.6333569288253784,0.47766944766044617,-0.8846473097801208
1667710505978390000,1.69039013671875,1.6773499250411987,0.6215206384658813,-0.7562837600708008
1667710505988441000,1.700441162109375,1.7252248525619507,0.7419734597206116,-0.7371845245361328
1667710505998492000,1.710491943359375,1.7577641010284424,0.8336461186408997,-0.828331470489502
1667710506008542000,1.7205419921875,1.774908185005188,0.8673681616783142,-0.9674819707870483
1667710506018593000,1.730593017578125,1.7468254566192627,0.8328775763511658,-1.113593339920044
1667710506028644000,1.74064404296875,1.6700124740600586,0.7456616163253784,-1.253796935081482
1667710506038695200,1.750695068359375,1.5874624252319336,0.6115975975990295,-1.3730173110961914
1667710506048745200,1.7607451171875,1.5345348119735718,0.4963262975215912,-1.455550193786621
1667710506058796000,1.770796142578125,1.534810185432434,0.47354161739349365,-1.451680302619934
1667710506068846800,1.780846923828125,1.5550466775894165,0.5305865406990051,-1.3356980085372925
1667710506078898000,1.79089794921875,1.598726511001587,0.6290633082389832,-1.1179910898208618
1667710506088949000,1.800948974609375,1.6525440216064453,0.7482516765594482,-0.8373839855194092
1667710506098999000,1.8109990234375,1.697906732559204,0.8427619338035583,-0.5474704504013062
1667710506109050000,1.821050048828125,1.7281659841537476,0.8991715312004089,-0.3376317024230957
1667710506119101000,1.831100830078125,1.7393264770507812,0.9311342239379883,-0.25294503569602966
1667710506129152000,1.841152099609375,1.737741470336914,0.9115081429481506,-0.2763654589653015
1667710506139202000,1.8512021484375,1.728473424911499,0.8109917044639587,-0.33568498492240906
1667710506149253000,1.861253173828125,1.7303944826126099,0.6297571063041687,-0.3989836275577545
1667710506159304200,1.87130419921875,1.7606557607650757,0.43011853098869324,-0.4837336838245392
1667710506169355300,1.881355224609375,1.8043075799942017,0.22926317155361176,-0.5672866106033325
1667710506179405800,1.89140576171875,1.8165018558502197,0.04510531947016716,-0.6533440351486206
1667710506189456000,1.901455810546875,1.8121391534805298,-0.11961974203586578,-0.710595428943634
1667710506199507000,1.9115068359375,1.7938408851623535,-0.24205058813095093,-0.7484440207481384
1667710506209558000,1.92155810546875,1.7686244249343872,-0.32738980650901794,-0.7823710441589355
1667710506219609000,1.931609130859375,1.7625434398651123,-0.3827039301395416,-0.8260942697525024
1667710506229659100,1.9416591796875,1.7696242332458496,-0.453358918428421,-0.8620465397834778
1667710506239710200,1.951710205078125,1.785858154296875,-0.5130427479743958,-0.8759199976921082
1667710506249761000,1.961760986328125,1.8097442388534546,-0.5161661505699158,-0.8459039330482483
1667710506259812000,1.97181201171875,1.830256700515747,-0.41883930563926697,-0.7852832078933716
1667710506269863200,1.98186328125,1.804297924041748,-0.24411603808403015,-0.6895654201507568
1667710506279913000,1.991912841796875,1.6858367919921875,-0.0677758976817131,-0.5966898202896118
1667710506289964000,2.001964111328125,1.508547306060791,0.06619501858949661,-0.5404451489448547
1667710506300014800,2.012014892578125,1.3369675874710083,0.19108529388904572,-0.5565530061721802
1667710506310066000,2.02206591796875,1.1859960556030273,0.3055397570133209,-0.6247740983963013
1667710506320116000,2.032115966796875,1.0308035612106323,0.400240957736969,-0.7137215733528137
1667710506330167000,2.0421669921875,0.8775659799575806,0.4781678020954132,-0.8281655311584473
1667710506340218000,2.052218017578125,0.7216376662254333,0.5847842693328857,-0.9506344795227051
1667710506350269200,2.062269287109375,0.5428292155265808,0.7057539820671082,-1.0456737279891968
1667710506360320000,2.072320068359375,0.307666540145874,0.826355516910553,-1.0741215944290161
1667710506370370000,2.0823701171875,0.027582813054323196,0.9718590974807739,-1.0481690168380737
1667710506380420900,2.0924208984375,-0.24558216333389282,1.101291298866272,-1.0010602474212646
1667710506390472000,2.102471923828125,-0.47184282541275024,1.2237313985824585,-0.8928871154785156
1667710506400523000,2.11252294921875,-0.6173603534698486,1.3212099075317383,-0.7095292806625366
1667710506410573000,2.122572998046875,-0.6779101490974426,1.2641280889511108,-0.4779032766819
1667710506420624100,2.1326240234375,-0.6048492193222046,1.0931891202926636,-0.2462034374475479
1667710506430675000,2.142675048828125,-0.5167431235313416,1.2712857723236084,0.036872342228889465
1667710506440726000,2.15272607421875,-0.484539657831192,1.706692099571228,0.4263221025466919
1667710506450777000,2.162777099609375,-0.42929351329803467,2.4913065433502197,0.8567957878112793
1667710506460827100,2.1728271484375,-0.3094936013221741,3.294736862182617,1.1975946426391602
1667710506470878200,2.182878173828125,-0.2400519698858261,3.4643595218658447,1.2484850883483887
1667710506480929000,2.192928955078125,-0.371320515871048,2.8930463790893555,0.8051167726516724
1667710506490980000,2.20297998046875,-0.6144379377365112,2.286046028137207,0.02006184123456478
1667710506501030000,2.21302978515625,-0.9013091325759888,0.9545981287956238,-1.2151318788528442
1667710506511081000,2.2230810546875,-1.1095590591430664,-0.15906551480293274,-2.055925130844116
1667710506521132000,2.233132080078125,-1.0748053789138794,-0.15867695212364197,-2.509754180908203
1667710506531183000,2.24318310546875,-1.0286628007888794,0.5401380658149719,-2.656991958618164
1667710506541234000,2.25323388671875,-1.0816917419433594,1.5294866561889648,-2.5647339820861816
1667710506551284000,2.263283935546875,-1.102471113204956,2.327376365661621,-2.228968620300293
1667710506561335000,2.2733349609375,-1.1545851230621338,2.7137067317962646,-1.6194465160369873
1667710506571386000,2.28338623046875,-1.263119101524353,2.1295835971832275,-0.5701611638069153
1667710506581437200,2.293437255859375,-1.4730923175811768,2.2721924781799316,0.7401404976844788
1667710506591487000,2.303487060546875,-1.7796356678009033,2.8389828205108643,2.1805217266082764
1667710506601538000,2.3135380859375,-1.9448403120040894,3.2559731006622314,3.6211471557617188
1667710506611588900,2.3235888671875,-1.9730641841888428,3.9455130100250244,4.8940277099609375
1667710506621640000,2.333639892578125,-1.90623140335083,5.008381366729736,5.784489154815674
1667710506631691000,2.34369091796875,-1.7211135625839233,6.3049116134643555,6.247532844543457
1667710506641741000,2.353740966796875,-1.466855525970459,7.43721342086792,6.307985305786133
1667710506651792100,2.363792236328125,-1.3652708530426025,7.954895496368408,5.990095138549805
1667710506661843000,2.373843017578125,-1.623429298400879,7.859589099884033,5.401867866516113
1667710506671894000,2.38389404296875,-2.222248077392578,7.332836627960205,4.695448398590088
1667710506681945000,2.393945068359375,-3.027029275894165,6.693068981170654,3.850965738296509
1667710506691995100,2.4039951171875,-3.875232696533203,6.03566837310791,2.877310276031494
1667710506702046200,2.414046142578125,-4.615061283111572,5.370281219482422,1.9147319793701172
1667710506712097000,2.424096923828125,-5.0609331130981445,4.614990711212158,1.1975421905517578
1667710506722147800,2.43414794921875,-5.24906587600708,3.929112672805786,0.7113467454910278
1667710506732198000,2.444197998046875,-5.248437881469727,3.574300527572632,0.3161287307739258
1667710506742249000,2.4542490234375,-5.20155668258667,3.4664700031280518,-0.14705170691013336
1667710506752300000,2.464300048828125,-5.174644470214844,3.3469622135162354,-0.5635936856269836
1667710506762350800,2.474350830078125,-4.9285993576049805,3.2132937908172607,-0.6432610750198364
1667710506772402000,2.48440185546875,-4.697859287261963,3.3619325160980225,-0.5844714641571045
1667710506782452000,2.494451904296875,-4.576080322265625,3.6317341327667236,-0.5319536924362183
1667710506792502800,2.504502685546875,-4.490455627441406,3.886392593383789,-0.5024611353874207
1667710506802553900,2.514553955078125,-4.507970809936523,4.091687202453613,-0.49397021532058716
1667710506812605000,2.52460498046875,-4.652329444885254,4.250709533691406,-0.4462541341781616
1667710506822655000,2.534655029296875,-4.686417579650879,4.338603973388672,-0.16635800898075104
1667710506832706000,2.5447060546875,-4.680057525634766,4.450864791870117,0.07296226173639297
1667710506842756900,2.5547568359375,-4.562191486358643,4.251546382904053,0.21990883350372314
1667710506852807700,2.5648076171875,-4.302942276000977,3.762179374694824,0.2896314561367035
1667710506862858800,2.574858642578125,-3.9222211837768555,3.290544271469116,0.3607804775238037
1667710506872908800,2.58490869140625,-3.6053714752197266,2.8831536769866943,0.44200271368026733
1667710506882960000,2.5949599609375,-3.4140148162841797,2.5238664150238037,0.5845587849617004
1667710506893011000,2.605010986328125,-3.362790584564209,2.2461307048797607,0.7439428567886353
1667710506903061800,2.615061767578125,-3.392819404602051,1.9829180240631104,0.8595432639122009
1667710506913112800,2.62511279296875,-3.442373514175415,1.6737757921218872,0.8909071087837219
1667710506923163000,2.635162841796875,-3.4828574657440186,1.3371034860610962,0.862657368183136
1667710506933214000,2.6452138671875,-3.4597535133361816,0.998081624507904,0.8622167706489563
1667710506943265000,2.65526513671875,-3.3961164951324463,0.8229233622550964,0.9082332253456116
1667710506953316000,2.665316162109375,-3.2920525074005127,0.8619235157966614,0.9730706214904785
1667710506963366000,2.675365966796875,-3.1747660636901855,1.0082781314849854,1.0683748722076416
1667710506973416700,2.685416748046875,-3.067821502685547,1.142150640487671,1.2021853923797607
1667710506983467800,2.6954677734375,-2.993678092956543,1.1199239492416382,1.3651658296585083
1667710506993518800,2.705518798828125,-2.9134933948516846,1.0155518054962158,1.5620137453079224
1667710507003570000,2.71556982421875,-2.8317885398864746,0.7515814900398254,1.7250052690505981
1667710507013620000,2.725619873046875,-2.85298228263855,0.3996187746524811,1.799370527267456
1667710507023670800,2.7356708984375,-2.9709086418151855,0.007392681669443846,1.7425389289855957
1667710507033721900,2.745721923828125,-3.085294246673584,-0.3897334039211273,1.6219263076782227
1667710507043773000,2.75577294921875,-3.17842698097229,-0.6530982255935669,1.5875848531723022
1667710507053822700,2.76582275390625,-3.190242052078247,-0.7327147722244263,1.7115007638931274
1667710507063873800,2.775873779296875,-3.0355141162872314,-0.6213784217834473,2.155484914779663
1667710507073924900,2.7859248046875,-2.3913204669952393,-0.44016653299331665,2.683335542678833
1667710507083975700,2.7959755859375,-1.705801248550415,-0.4199576675891876,3.2910051345825195
1667710507094026800,2.80602685546875,-1.1712778806686401,-0.8882173895835876,3.853503942489624
1667710507104076800,2.816076904296875,-0.6972301006317139,-1.665213942527771,4.206958293914795
1667710507114128000,2.8261279296875,0.02156231924891472,-2.5254456996917725,4.178171157836914
1667710507124179000,2.836178955078125,0.910961389541626,-3.1091835498809814,3.957951784133911
1667710507134230000,2.84622998046875,1.8099862337112427,-3.281015157699585,3.6606013774871826
1667710507144280000,2.856280029296875,2.548978328704834,-3.300938129425049,3.301847219467163
1667710507154331000,2.866330810546875,3.04536509513855,-3.127763271331787,2.8782176971435547
1667710507164382000,2.8763818359375,3.4070539474487305,-2.920058488845825,2.411436080932617
1667710507174433000,2.88643310546875,3.5601651668548584,-2.6844308376312256,2.0487160682678223
1667710507184483800,2.89648388671875,3.602086305618286,-2.3075358867645264,1.7003947496414185
1667710507194534000,2.906533935546875,3.6220438480377197,-1.9732097387313843,1.4038658142089844
1667710507204585000,2.9165849609375,3.545520305633545,-1.7763017416000366,1.2173683643341064
1667710507214635800,2.9266357421875,3.4402847290039062,-1.6144096851348877,1.2048298120498657
1667710507224686800,2.936686767578125,3.3817336559295654,-1.3136082887649536,1.3305789232254028
1667710507234738000,2.946738037109375,3.3383970260620117,-0.6309688687324524,1.6245063543319702
1667710507244788000,2.9567880859375,3.101735830307007,0.20415101945400238,2.028795003890991
1667710507254839000,2.966839111328125,2.7418644428253174,0.5878663063049316,1.966662049293518
1667710507264889900,2.976889892578125,2.3933589458465576,0.6393537521362305,0.7150880098342896
1667710507274941000,2.98694091796875,2.1655240058898926,1.0606083869934082,-0.17591573297977448
1667710507284992000,2.996991943359375,2.321824550628662,1.6330151557922363,-0.575371265411377
1667710507295041800,3.007041748046875,2.6945340633392334,2.988032579421997,-0.3188613951206207
1667710507305092900,3.0170927734375,2.7906227111816406,4.59428596496582,0.26818186044692993
1667710507315144000,3.02714404296875,2.8046276569366455,5.89811897277832,0.7500715851783752
1667710507325194800,3.03719482421875,2.89302659034729,6.6086297035217285,1.046533226966858
1667710507335244800,3.047244873046875,2.8058881759643555,6.892340660095215,1.2824333906173706
1667710507345296000,3.0572958984375,2.5173563957214355,6.878781795501709,1.5092154741287231
1667710507355347000,3.067346923828125,2.207883834838867,6.69237756729126,1.6945079565048218
1667710507365398000,3.07739794921875,2.103048801422119,6.3854570388793945,1.9018155336380005
1667710507375448800,3.08744873046875,2.074850559234619,5.93912410736084,2.0497682094573975
1667710507385499000,3.097498779296875,2.032200574874878,5.445984363555908,2.0860114097595215
1667710507395549700,3.1075498046875,2.1518921852111816,5.034867763519287,2.206798791885376
1667710507405600800,3.117600830078125,2.2928333282470703,4.554651737213135,2.4547972679138184
1667710507415651800,3.12765185546875,2.2801432609558105,4.0943989753723145,2.6018776893615723
1667710507425702000,3.137701904296875,2.301192283630371,3.639350652694702,2.575066089630127
1667710507435753000,3.1477529296875,2.0672905445098877,3.5194554328918457,2.4863357543945312
1667710507445803800,3.1578037109375,1.409911036491394,3.360751152038574,2.458639144897461
1667710507455854800,3.167854736328125,1.148232102394104,3.6815199851989746,2.639789581298828
1667710507465906000,3.177906005859375,0.8356494307518005,4.113974094390869,3.283385992050171
1667710507475956000,3.1879560546875,0.30403539538383484,4.1700005531311035,3.881683826446533
1667710507486007000,3.198007080078125,-0.18690849840641022,3.9523725509643555,4.064876556396484
1667710507496058000,3.20805810546875,-0.6264936923980713,3.5270707607269287,3.5934743881225586
1667710507506108700,3.218108642578125,-0.7903137803077698,2.85813307762146,2.8256735801696777
1667710507516159700,3.22815966796875,-0.6759109497070312,1.881240963935852,2.3304238319396973
1667710507526209800,3.238209716796875,-0.43779507279396057,1.1987923383712769,1.8749370574951172
1667710507536260900,3.2482607421875,-0.06605267524719238,0.8944425582885742,1.3612200021743774
1667710507546312000,3.25831201171875,0.283029705286026,0.7789250016212463,0.6488955020904541
1667710507556362800,3.26836279296875,0.5301317572593689,0.5671344995498657,-0.21775464713573456
1667710507566412800,3.278412841796875,0.7407225370407104,0.17758643627166748,-0.9196014404296875
1667710507576464000,3.2884638671875,0.8901875019073486,-0.15799477696418762,-1.1615287065505981
1667710507586515000,3.298514892578125,0.7405359745025635,-0.18391132354736328,-0.96338951587677
1667710507596566000,3.30856591796875,0.16851550340652466,-0.08102720230817795,-0.6714131832122803
1667710507606617000,3.3186171875,-0.3529098629951477,-0.22870880365371704,-0.40066665410995483
1667710507616667000,3.3286669921875,-0.5374220609664917,-0.2841927111148834,-0.31229642033576965
1667710507626717700,3.3387177734375,-0.7663609385490417,-0.16950979828834534,-0.6302006244659424
1667710507636768800,3.348768798828125,-0.8253094553947449,-0.30311134457588196,-0.9420002698898315
1667710507646819800,3.35881982421875,-0.6280280351638794,-0.36632147431373596,-0.582882821559906
1667710507656871000,3.368870849609375,-0.5876083970069885,-0.05725487321615219,0.07770168036222458
1667710507666921000,3.3789208984375,-0.7345962524414062,0.34688034653663635,0.936816394329071
1667710507676972000,3.388971923828125,-0.7730006575584412,0.8071574568748474,1.8122336864471436
1667710507687022800,3.39902294921875,-0.49479326605796814,1.1285535097122192,2.2615809440612793
1667710507697074000,3.409073974609375,-0.44966983795166016,0.9847279787063599,2.4605953693389893
1667710507707123700,3.419123779296875,-0.4861634075641632,0.725758969783783,2.2593915462493896
1667710507717174800,3.4291748046875,-0.4471953213214874,0.47095340490341187,1.83599853515625
1667710507727225900,3.439225830078125,-0.4113752841949463,0.4454911947250366,1.418182373046875
1667710507737276700,3.449276611328125,-0.2500385344028473,0.46404674649238586,0.9429312944412231
1667710507747327700,3.45932763671875,0.08761405944824219,0.1485271155834198,0.9784970283508301
1667710507757377800,3.469377685546875,0.44210585951805115,-0.27273744344711304,1.0099096298217773
1667710507767428900,3.479428955078125,0.6507560014724731,-0.7846720814704895,0.9155377745628357
1667710507777480000,3.48947998046875,0.6447720527648926,-1.2772955894470215,0.8879837989807129
1667710507787531000,3.499531005859375,0.6232374310493469,-1.6979725360870361,0.8201421499252319
1667710507797581800,3.509581787109375,0.6929144263267517,-2.0073814392089844,0.7133020758628845
1667710507807632000,3.5196318359375,0.8445183038711548,-2.1962273120880127,0.5616467595100403
1667710507817683000,3.529682861328125,1.016101598739624,-2.2233471870422363,0.4074508547782898
1667710507827734000,3.539734130859375,1.1521856784820557,-2.0748703479766846,0.2732725441455841
1667710507837785000,3.54978515625,1.2020894289016724,-1.9378025531768799,0.13572059571743011
1667710507847835000,3.5598349609375,1.176408290863037,-1.8197239637374878,-0.11016693711280823
1667710507857886000,3.569885986328125,1.2668383121490479,-1.7822412252426147,-0.46052247285842896
1667710507867936800,3.579936767578125,1.4954766035079956,-1.9333878755569458,-0.406312495470047
1667710507877987800,3.58998779296875,1.3456114530563354,-2.0406885147094727,-0.1919204443693161
1667710507888039000,3.600038818359375,1.1661514043807983,-2.100318193435669,0.08805420994758606
1667710507898089000,3.6100888671875,0.9718917608261108,-2.090730667114258,0.28107088804244995
1667710507908140000,3.62014013671875,0.6482591032981873,-1.9412503242492676,0.3015085458755493
1667710507918190800,3.63019091796875,0.32181516289711,-1.685376524925232,0.2591722309589386
1667710507928242000,3.640241943359375,0.11385530978441238,-1.3901104927062988,0.22039952874183655
1667710507938293000,3.65029296875,0.012034241110086441,-1.1841731071472168,0.22764626145362854
1667710507948342800,3.6603427734375,-0.03918074443936348,-0.8439581990242004,0.21167394518852234
1667710507958393900,3.670393798828125,-0.0838216096162796,-0.3151334822177887,0.164793461561203
1667710507968445000,3.68044482421875,-0.307475209236145,0.2711308002471924,0.10888224840164185
1667710507978495700,3.690495849609375,-0.570591926574707,1.050004482269287,0.19246050715446472
1667710507988546800,3.700546875,-0.7473680377006531,1.6376522779464722,0.053115397691726685
1667710507998596900,3.710596923828125,-0.8497018218040466,1.7576994895935059,-0.2689034044742584
1667710508008648000,3.72064794921875,-0.9343909025192261,1.5485066175460815,-0.48577338457107544
1667710508018699000,3.730698974609375,-1.0623631477355957,0.8391284346580505,-0.4477700889110565
1667710508028749800,3.740749755859375,-1.1671383380889893,-0.038555726408958435,-0.5078883171081543
1667710508038800100,3.750800048828125,-1.1609578132629395,-1.0638822317123413,-0.6509292125701904
1667710508048851000,3.760850830078125,-0.9623200297355652,-1.825539469718933,-0.9392696619033813
1667710508058902000,3.770902099609375,-0.6324471831321716,-2.349250078201294,-1.349684715270996
1667710508068952800,3.780952880859375,-0.3390621542930603,-2.4496800899505615,-1.8315457105636597
1667710508079004000,3.79100390625,-0.22956226766109467,-2.0771443843841553,-2.2044832706451416
1667710508089054000,3.801053955078125,-0.20287632942199707,-1.7868436574935913,-2.390348196029663
1667710508099104800,3.811104736328125,-0.30979737639427185,-1.8041058778762817,-2.4302127361297607
1667710508109155800,3.82115576171875,-0.6814620494842529,-1.7469490766525269,-2.4398958683013916
1667710508119207000,3.83120703125,-1.4954744577407837,-1.5453437566757202,-2.5559241771698
1667710508129258000,3.841258056640625,-2.2675297260284424,-1.2756630182266235,-2.3493428230285645
1667710508139308000,3.85130810546875,-2.848886728286743,-1.067530632019043,-2.0438232421875
1667710508149359000,3.861359130859375,-3.289048194885254,-1.4248170852661133,-2.2396740913391113
1667710508159410000,3.871409912109375,-3.5767502784729004,-2.0101864337921143,-2.776165008544922
1667710508169461000,3.8814609375,-3.9701271057128906,-2.1103193759918213,-3.141702175140381
1667710508179512000,3.891511962890625,-4.419497966766357,-1.7466540336608887,-3.260364532470703
1667710508189561900,3.901561767578125,-4.793572902679443,-1.1332638263702393,-3.2052783966064453
1667710508199613000,3.911613037109375,-5.1077728271484375,-0.3621487319469452,-3.040635347366333
1667710508209663700,3.921663818359375,-5.279421806335449,0.4149933457374573,-2.729912281036377
1667710508219714800,3.93171484375,-5.301575183868408,1.2202880382537842,-2.299224376678467
1667710508229764900,3.941764892578125,-5.149847030639648,1.7562707662582397,-1.9344942569732666
1667710508239816000,3.95181591796875,-4.972457408905029,1.944537878036499,-1.6659613847732544
1667710508249867000,3.961866943359375,-4.805800914764404,1.672196626663208,-1.4232107400894165
1667710508259918000,3.97191796875,-4.545386791229248,0.9047601222991943,-1.2222789525985718
1667710508269969000,3.981968994140625,-4.162666320800781,-0.11522076278924942,-1.119584321975708
1667710508280018700,3.992018798828125,-3.6865646839141846,-0.952072024345398,-1.144543170928955
1667710508290069800,4.00206982421875,-3.1699106693267822,-1.5972015857696533,-1.2237108945846558
1667710508300120800,4.012120849609375,-2.6212007999420166,-1.8150355815887451,-1.3012988567352295
1667710508310172000,4.022171875,-2.005767345428467,-1.4126050472259521,-1.433509111404419
1667710508320223000,4.032222900390625,-1.2502645254135132,-0.7237010598182678,-1.7534332275390625
1667710508330273000,4.04227294921875,-0.3577632009983063,0.04738736152648926,-2.4392027854919434
1667710508340323800,4.05232373046875,0.5533596277236938,0.805518627166748,-3.342653751373291
1667710508350375000,4.062375,0.8385027050971985,1.9051841497421265,-3.9539787769317627
1667710508360426000,4.072426025390625,0.027404971420764923,3.7944724559783936,-3.944941282272339
1667710508370477000,4.08247705078125,-1.148019790649414,5.4322099685668945,-3.3505499362945557
1667710508380527000,4.092527099609375,-1.6204100847244263,5.507201671600342,-2.3692681789398193
1667710508390578000,4.102577880859375,-0.770924985408783,3.9320671558380127,-1.5904096364974976
1667710508400628700,4.112628662109375,0.4813905656337738,1.644493818283081,-1.0388163328170776
1667710508410679800,4.1226796875,1.0249295234680176,-0.5200676918029785,-0.46181875467300415
1667710508420729900,4.132729736328125,1.128637433052063,-1.8749805688858032,-0.03785771131515503
1667710508430781000,4.142781005859375,1.1738944053649902,-1.9334967136383057,-0.009137649089097977
1667710508440832000,4.15283203125,1.1872309446334839,-0.8544782996177673,-0.3834744691848755
1667710508450882800,4.1628828125,1.1675161123275757,0.4584944546222687,-0.8858047127723694
1667710508460934000,4.172933837890625,1.1652556657791138,1.3593488931655884,-1.3674062490463257
1667710508470984000,4.18298388671875,1.160135269165039,1.6077520847320557,-1.7443702220916748
1667710508481035000,4.193034912109375,1.017146348953247,1.5174955129623413,-1.978458046913147
1667710508491086000,4.203086181640625,0.7652482986450195,1.353153109550476,-2.0828938484191895
1667710508501137000,4.213136962890625,0.5354447364807129,1.465254545211792,-1.9801576137542725
1667710508511188000,4.22318798828125,0.3902750611305237,1.8989790678024292,-1.702492117881775
1667710508521237800,4.23323779296875,0.27698633074760437,2.3257291316986084,-1.3688722848892212
1667710508531288800,4.243288818359375,0.10024885088205338,2.6135549545288086,-1.0859546661376953
1667710508541340000,4.25333984375,-0.15808072686195374,2.7341485023498535,-0.9228320717811584
1667710508551391000,4.263390869140625,-0.38848650455474854,2.698563814163208,-0.7900570034980774
1667710508561441000,4.27344091796875,-0.424723744392395,2.511967658996582,-0.5849382877349854
1667710508571491800,4.283491943359375,-0.3767511546611786,2.2621381282806396,-0.2865355908870697
1667710508581543000,4.29354296875,-0.3570670187473297,2.2204296588897705,0.04039103165268898
1667710508591594000,4.303593994140625,-0.34917953610420227,2.3346617221832275,0.3680173456668854
1667710508601645000,4.31364501953125,-0.3587619662284851,2.3608157634735107,0.5708301067352295
1667710508611694800,4.32369482421875,-0.40715399384498596,2.159071683883667,0.4456077218055725
1667710508621746000,4.333745849609375,-0.28104034066200256,1.7289621829986572,0.2786490321159363
1667710508631796700,4.343796630859375,0.16166971623897552,0.8012810349464417,-0.15936455130577087
1667710508641847800,4.353847900390625,0.8584599494934082,-0.14507390558719635,-1.0296473503112793
1667710508651899000,4.36389892578125,1.3281501531600952,-0.09989311546087265,-1.426783800125122
1667710508661949000,4.373948974609375,1.5099509954452515,0.024145537987351418,-1.173585295677185
1667710508672000000,4.384,1.5029503107070923,-0.025089651346206665,-0.5577232241630554
1667710508682050800,4.39405078125,1.3814561367034912,-0.45414331555366516,0.13487833738327026
1667710508692102000,4.404101806640625,1.1225800514221191,-0.8166400194168091,0.41726744174957275
1667710508702153000,4.414153076171875,0.5772060751914978,-0.26299992203712463,0.10177269577980042
1667710508712203000,4.424203125,-0.09869462251663208,0.4015841782093048,-0.5610686540603638
1667710508722253800,4.43425390625,-0.6733550429344177,0.3362749516963959,-1.1490421295166016
1667710508732305000,4.444304931640625,-0.8786171674728394,-0.4906357526779175,-1.728082537651062
1667710508742355700,4.454355712890625,-0.3765767514705658,-1.022496223449707,-2.194993019104004
1667710508752405800,4.46440576171875,-0.049646563827991486,0.9069386720657349,-1.368566870689392
1667710508762456300,4.474456298828125,-0.17963328957557678,2.2452406883239746,-0.12911133468151093
1667710508772507400,4.48450732421875,-0.1554187685251236,2.2309341430664062,0.9345693588256836
1667710508782558500,4.494558349609375,-0.13411352038383484,0.8395453095436096,1.0220603942871094
1667710508792609500,4.504609619140625,-0.013330653309822083,-1.2983235120773315,0.9650309681892395
1667710508802659600,4.51465966796875,0.14932943880558014,-3.479825973510742,1.9061323404312134
1667710508812710400,4.52471044921875,-0.12217343598604202,-4.283885955810547,2.7048118114471436
1667710508822761500,4.534761474609375,-0.6608690619468689,-2.6629085540771484,3.3886475563049316
1667710508832812500,4.5448125,-1.2968013286590576,-1.1797055006027222,3.7339417934417725
1667710508842863600,4.554863525390625,-1.9219977855682373,-1.028610110282898,3.2926268577575684
1667710508852913700,4.56491357421875,-2.4430816173553467,-1.171197533607483,2.564730167388916
1667710508862964500,4.574964599609375,-2.428208112716675,-1.2403366565704346,2.0417439937591553
1667710508873015300,4.585015380859375,-1.8949872255325317,-0.8097559809684753,1.982027292251587
1667710508883066400,4.59506640625,-1.0652135610580444,-0.27909404039382935,2.1118991374969482
1667710508893116400,4.605116455078125,-0.37031498551368713,0.24888218939304352,2.1268208026885986
1667710508903167500,4.61516748046875,-0.20827046036720276,0.7773622870445251,1.9885891675949097
1667710508913218600,4.625218505859375,-0.3355059027671814,1.2422633171081543,1.8371553421020508
1667710508923269600,4.63526953125,-0.35632601380348206,2.175902843475342,1.9618605375289917
1667710508933320400,4.645320556640625,-0.5667122602462769,2.370170831680298,2.2531495094299316
1667710508943370500,4.65537060546875,-0.7412330508232117,1.9830996990203857,2.4963791370391846
1667710508953421600,4.665421630859375,-0.7949734926223755,1.4926940202713013,2.555093765258789
1667710508963472600,4.67547265625,-0.7297426462173462,1.023125171661377,2.399139165878296
1667710508973523700,4.685523681640625,-0.6017814874649048,0.5707814693450928,2.14652156829834
1667710508983574300,4.69557421875,-0.5302135348320007,0.022666865959763527,1.8937489986419678
1667710508993624600,4.70562451171875,-0.5716856122016907,-0.5872641205787659,1.759100317955017
1667710509003675400,4.71567529296875,-0.6787331104278564,-1.1206742525100708,1.873606562614441
1667710509013726500,4.7257265625,-0.7410742044448853,-1.4240056276321411,2.219522714614868
1667710509023777500,4.735777587890625,-0.6811414957046509,-1.4124809503555298,2.5622103214263916
1667710509033828600,4.74582861328125,-0.6513644456863403,-1.3525499105453491,2.716975688934326
1667710509043878700,4.755878662109375,-0.6798959374427795,-1.4782999753952026,2.6430492401123047
1667710509053929500,4.765929443359375,-0.7387502193450928,-1.635329246520996,2.3915083408355713
1667710509063980500,4.77598046875,-0.8157896399497986,-1.6253641843795776,2.0259790420532227
1667710509074031600,4.786031494140625,-0.8641231060028076,-1.456427812576294,1.6670219898223877
1667710509084082700,4.796082763671875,-0.8546677827835083,-1.234183669090271,1.3663257360458374
1667710509094132500,4.806132568359375,-0.8148751258850098,-1.0439194440841675,1.1272451877593994
1667710509104183600,4.81618359375,-0.8031718134880066,-0.9082646369934082,0.9506828784942627
1667710509114234400,4.826234375,-0.8749216198921204,-0.8547458052635193,0.8057991862297058
1667710509124285400,4.836285400390625,-1.0013331174850464,-0.8089123368263245,0.6806955337524414
1667710509134335500,4.84633544921875,-1.1284234523773193,-0.6969895362854004,0.6174929141998291
1667710509144386600,4.856386474609375,-1.1955305337905884,-0.40302774310112,0.678695797920227
1667710509154437600,4.866437744140625,-1.173082709312439,0.09804200381040573,0.8790022730827332
1667710509164488400,4.876488525390625,-1.0749540328979492,0.6286242604255676,1.1498150825500488
1667710509174539500,4.88653955078125,-0.937524676322937,0.9133896827697754,1.366918921470642
1667710509184589300,4.89658935546875,-0.8112969994544983,0.8729500770568848,1.4660484790802002
1667710509194640400,4.906640380859375,-0.7019981741905212,0.5668431520462036,1.4202666282653809
1667710509204691500,4.91669140625,-0.609663724899292,0.15473634004592896,1.2416179180145264
1667710509214742500,4.926742431640625,-0.5395299196243286,-0.16470611095428467,1.060356616973877
1667710509224793300,4.93679345703125,-0.4926553964614868,-0.21580417454242706,1.0058821439743042
1667710509234843400,4.946843505859375,-0.4440419375896454,-0.07040887326002121,0.9995600581169128
1667710509244894500,4.95689453125,-0.400455504655838,0.13580629229545593,0.8996122479438782
1667710509254945500,4.966945556640625,-0.40025389194488525,0.27224668860435486,0.668141782283783
1667710509264996600,4.97699658203125,-0.4387306571006775,0.22821925580501556,0.3396703600883484
1667710509275047400,4.98704736328125,-0.4577930271625519,-0.1533733755350113,0.008360335603356361
1667710509285097500,4.997097412109375,-0.3623492121696472,-0.7953087687492371,-0.31988000869750977
1667710509295148500,5.0071484375,-0.11502329260110855,-1.3749721050262451,-0.6947013139724731
1667710509305199400,5.017199462890625,0.12189943343400955,-1.4862080812454224,-1.091832160949707
1667710509315250400,5.02725048828125,0.3073153793811798,-1.3121087551116943,-1.4393064975738525
1667710509325301500,5.037301513671875,0.5308173894882202,-1.0318164825439453,-1.8229056596755981
1667710509335351600,5.0473515625,0.8054838180541992,-0.7028704881668091,-2.227020025253296
1667710509345402400,5.05740234375,1.106627106666565,-0.28518515825271606,-2.533355712890625
1667710509355453400,5.067453369140625,1.2616084814071655,0.21889182925224304,-2.6392407417297363
1667710509365504500,5.07750439453125,1.1943469047546387,0.6354460120201111,-2.6673202514648438
1667710509375554600,5.087554443359375,1.1912647485733032,0.8117586970329285,-2.7937657833099365
1667710509385605600,5.097605712890625,1.3578730821609497,0.8032801151275635,-3.0426013469696045
1667710509395656700,5.10765673828125,1.567652940750122,0.864208996295929,-3.0773956775665283
1667710509405707500,5.11770751953125,1.6184613704681396,1.1236604452133179,-2.8824079036712646
1667710509415758600,5.127758544921875,1.5158945322036743,1.4474855661392212,-2.662745237350464
1667710509425808400,5.137808349609375,1.3495913743972778,1.5933899879455566,-2.5055415630340576
1667710509435859500,5.147859375,1.2349647283554077,1.4494013786315918,-2.407702922821045
1667710509445910500,5.15791064453125,1.1795194149017334,0.936127781867981,-2.3587982654571533
1667710509455961300,5.16796142578125,1.1501023769378662,0.15187157690525055,-2.323214054107666
1667710509466012400,5.178012451171875,1.1270558834075928,-0.6335939764976501,-2.2905704975128174
1667710509476062500,5.1880625,1.1193788051605225,-1.2208905220031738,-2.272808074951172
1667710509486113500,5.198113525390625,1.1571630239486694,-1.540690541267395,-2.2284739017486572
1667710509496164600,5.20816455078125,1.1853387355804443,-1.5789306163787842,-2.124224901199341
1667710509506215700,5.218215576171875,1.1819127798080444,-1.393039345741272,-1.9634135961532593
1667710509516266500,5.2282666015625,1.1568297147750854,-1.1540621519088745,-1.7399970293045044
1667710509526316300,5.23831640625,1.156578540802002,-0.9523481130599976,-1.486976981163025
1667710509536367400,5.248367431640625,1.2167319059371948,-0.8409907221794128,-1.2494012117385864
1667710509546418400,5.25841845703125,1.3423327207565308,-0.6956485509872437,-1.0757485628128052
1667710509556469500,5.268469482421875,1.4889298677444458,-0.4215696454048157,-1.0131906270980835
1667710509566519600,5.27851953125,1.5473520755767822,-0.016396496444940567,-1.067153811454773
1667710509576570600,5.288570556640625,1.5259455442428589,0.433562695980072,-1.2285048961639404
1667710509586621400,5.298621337890625,1.4582629203796387,0.7979283332824707,-1.4290590286254883
1667710509596672500,5.308672607421875,1.3763704299926758,1.1341558694839478,-1.6221102476119995
1667710509606723600,5.3187236328125,1.2772067785263062,1.4176099300384521,-1.7458209991455078
1667710509616773600,5.328773681640625,1.1757313013076782,1.6507337093353271,-1.7680394649505615
1667710509626824700,5.33882470703125,1.062756061553955,1.7924755811691284,-1.7016352415084839
1667710509636875300,5.348875244140625,0.9145123362541199,1.8577005863189697,-1.5931055545806885
1667710509646926300,5.35892626953125,0.7270071506500244,1.8789114952087402,-1.482069492340088
1667710509656977400,5.368977294921875,0.5160940885543823,1.931122064590454,-1.3629838228225708
1667710509667027500,5.37902734375,0.2931387424468994,2.07724666595459,-1.2518115043640137
1667710509677078500,5.38907861328125,0.0718819797039032,2.3077874183654785,-1.163698434829712
1667710509687129600,5.399129638671875,-0.13091665506362915,2.509622097015381,-1.1114869117736816
1667710509697180400,5.409180419921875,-0.27409350872039795,2.6213700771331787,-1.075454831123352
1667710509707231500,5.4192314453125,-0.30756449699401855,2.6645255088806152,-1.0369501113891602
1667710509717281500,5.429281494140625,-0.3137153089046478,2.640732526779175,-0.9647523164749146
1667710509727332600,5.43933251953125,-0.2991391718387604,2.5223898887634277,-0.8568723201751709
1667710509737383700,5.4493837890625,-0.18335796892642975,2.2721283435821533,-0.8019920587539673
1667710509747434500,5.4594345703125,0.0245361290872097,1.869589924812317,-0.8253834247589111
1667710509757485300,5.4694853515625,0.28756481409072876,1.31496000289917,-0.7412805557250977
1667710509767535600,5.47953564453125,0.5570816993713379,0.49277934432029724,-0.4807945191860199
1667710509777586700,5.489586669921875,0.6647183895111084,-0.23433180153369904,-0.3106241226196289
1667710509787637800,5.4996376953125,0.7767792344093323,-0.2942614257335663,-0.24598288536071777
1667710509797688800,5.509688720703125,0.861161470413208,-0.23882080614566803,-0.013143514283001423
1667710509807739600,5.51973974609375,0.8290854692459106,-0.19737888872623444,0.36941900849342346
1667710509817789400,5.52978955078125,0.7365776300430298,-0.11632158607244492,0.7661927342414856
1667710509827840500,5.539840576171875,0.6435535550117493,-0.16506661474704742,1.004047155380249
1667710509837891600,5.5498916015625,0.4905805289745331,-0.10463708639144897,0.9130309820175171
1667710509847942700,5.559942626953125,0.31054723262786865,-0.2931048572063446,0.5500929951667786
1667710509857992700,5.56999267578125,0.3426617681980133,-1.8340058326721191,0.35361671447753906
1667710509868043800,5.580043701171875,0.5641986131668091,-3.257978916168213,1.1161220073699951
1667710509878094600,5.590094482421875,0.47383594512939453,-2.9539952278137207,1.822733759880066
1667710509888145700,5.600145751953125,-0.09923027455806732,-1.010669469833374,2.0704545974731445
1667710509898196700,5.61019677734375,-0.9878730773925781,1.9158451557159424,2.3552534580230713
1667710509908246500,5.62024658203125,-1.46256685256958,1.265470266342163,1.6111013889312744
1667710509918297600,5.630297607421875,-1.3447190523147583,-2.285090684890747,0.6234143972396851
1667710509928348400,5.640348388671875,-1.0819154977798462,-3.2978179454803467,0.7416056394577026
1667710509938399500,5.6503994140625,-0.8933543562889099,-3.063840627670288,1.1810730695724487
1667710509948450600,5.660450439453125,-1.0332270860671997,-2.4730968475341797,1.7560336589813232
1667710509958500600,5.67050048828125,-1.4848915338516235,-1.8814791440963745,2.340219259262085
1667710509968551700,5.6805517578125,-1.9405784606933594,-1.616666555404663,2.8528947830200195
1667710509978602800,5.690602783203125,-2.1569974422454834,-1.6564652919769287,3.2411391735076904
1667710509988653600,5.700653564453125,-2.210895299911499,-1.8123319149017334,3.34051251411438
1667710509998704600,5.71070458984375,-2.146155834197998,-1.8699473142623901,3.1202986240386963
1667710510008754700,5.720754638671875,-1.9033416509628296,-1.6190985441207886,2.786090850830078
1667710510018805800,5.7308056640625,-1.35966956615448,-0.9876444339752197,2.6557061672210693
1667710510028856600,5.740856689453125,-0.7104709148406982,-0.15651828050613403,2.7052230834960938
1667710510038907600,5.75090771484375,-0.2539616525173187,0.6630706191062927,2.808232069015503
1667710510048958500,5.76095849609375,-0.16435815393924713,1.033033013343811,2.7230753898620605
1667710510059008500,5.771008544921875,-0.3324882984161377,0.9697147607803345,2.4720346927642822
1667710510069059600,5.7810595703125,-0.6326201558113098,0.8049018383026123,2.2423276901245117
1667710510079110700,5.791110595703125,-1.0806474685668945,0.6700097918510437,2.03279447555542
1667710510089161700,5.80116162109375,-1.3999605178833008,0.7999224662780762,1.9624680280685425
1667710510099212500,5.811212646484375,-1.5331376791000366,0.9917342662811279,1.9913302659988403
1667710510109262600,5.8212626953125,-1.486088514328003,1.0050338506698608,2.025127410888672
1667710510119313700,5.831313720703125,-1.4119794368743896,0.9889196753501892,1.9722490310668945
1667710510129364700,5.84136474609375,-1.3578985929489136,1.024411916732788,1.7321107387542725
1667710510139415800,5.851415771484375,-1.275464415550232,1.1565289497375488,1.3845871686935425
1667710510149465600,5.861465576171875,-1.102979063987732,1.2703123092651367,1.0831459760665894
1667710510159516700,5.8715166015625,-0.922595202922821,1.1875848770141602,0.8585799336433411
1667710510169567500,5.8815673828125,-0.8227710723876953,0.9423795342445374,0.7165200114250183
1667710510179618600,5.89161865234375,-0.674024224281311,0.45199888944625854,0.690240740776062
1667710510189669600,5.901669677734375,-0.4581505060195923,-0.22676432132720947,0.8044905662536621
1667710510199720700,5.911720703125,-0.27615565061569214,-0.8489935398101807,0.9535670876502991
1667710510209770800,5.921770751953125,-0.15417708456516266,-1.2074590921401978,1.0539233684539795
1667710510219821600,5.931821533203125,-0.14691011607646942,-1.4093754291534424,1.0535449981689453
1667710510229872600,5.94187255859375,-0.22917789220809937,-1.605769395828247,0.9528722763061523
1667710510239923700,5.951923828125,-0.332913875579834,-1.8154011964797974,0.7446489930152893
1667710510249973500,5.961973388671875,-0.43930813670158386,-1.996846318244934,0.41686487197875977
1667710510260024600,5.972024658203125,-0.499859094619751,-2.1114790439605713,-0.008137524127960205
1667710510270075600,5.98207568359375,-0.4685610830783844,-2.0743019580841064,-0.4672815203666687
1667710510280126500,5.99212646484375,-0.296512633562088,-1.7860283851623535,-0.8384361863136292
1667710510290177500,6.002177490234375,-0.0026122843846678734,-1.2347325086593628,-1.0229921340942383
1667710510300227600,6.0122275390625,0.39684322476387024,-0.5296202898025513,-1.0403598546981812
1667710510310278700,6.022278564453125,0.8268405795097351,0.11183677613735199,-1.1054911613464355
1667710510320329700,6.032329833984375,1.060100793838501,0.5482156872749329,-1.4186949729919434
1667710510330380800,6.042380859375,1.2522703409194946,0.6838053464889526,-1.8993312120437622
1667710510340431600,6.052431640625,1.4765324592590332,0.45981699228286743,-2.3804025650024414
1667710510350481400,6.0624814453125,1.6428581476211548,0.09245115518569946,-2.9213061332702637
1667710510360532500,6.072532470703125,1.7325475215911865,-0.11327910423278809,-3.4228320121765137
1667710510370583600,6.08258349609375,1.5486953258514404,0.07737807929515839,-3.435314178466797
1667710510380634600,6.092634521484375,1.1813387870788574,0.6125190258026123,-2.9553446769714355
1667710510390685400,6.102685546875,0.7596731185913086,0.9234395027160645,-2.413907766342163
1667710510400735700,6.11273583984375,0.6190483570098877,0.7835047841072083,-2.0350708961486816
1667710510410786600,6.12278662109375,0.7233649492263794,0.23547643423080444,-1.9491842985153198
1667710510420837600,6.132837646484375,0.7387470602989197,-0.5324497818946838,-2.0208728313446045
1667710510430888700,6.142888671875,0.6248018741607666,-1.1311728954315186,-2.078324556350708
1667710510440939800,6.152939697265625,0.5821875333786011,-1.119645118713379,-1.849396824836731
1667710510450989800,6.16298974609375,0.8215612769126892,-0.6056762337684631,-1.3636174201965332
1667710510461040600,6.17304052734375,1.2245111465454102,-0.4611928164958954,-0.991084635257721
1667710510471091500,6.183091552734375,1.5516021251678467,-1.0444819927215576,-0.7217329144477844
1667710510481142500,6.193142578125,1.8364639282226562,-1.9662766456604004,-0.5086537003517151
1667710510491193600,6.203193603515625,1.9885226488113403,-2.369330406188965,-0.3170098066329956
1667710510501243600,6.21324365234375,2.046673536300659,-1.9357296228408813,-0.15300434827804565
1667710510511294700,6.223294677734375,1.9950242042541504,-0.8675967454910278,-0.11701315641403198
1667710510521345500,6.233345458984375,1.857711672782898,0.11332187801599503,-0.1769864708185196
1667710510531396600,6.243396728515625,1.6359610557556152,0.6737842559814453,-0.28250959515571594
1667710510541447700,6.25344775390625,1.3522560596466064,0.9442445039749146,-0.3482547700405121
1667710510551497700,6.263497802734375,1.0586189031600952,1.1100974082946777,-0.3693128228187561
1667710510561548800,6.273548828125,0.7853440046310425,1.2305006980895996,-0.3491436243057251
1667710510571599600,6.283599609375,0.561805248260498,1.317213535308838,-0.3200770318508148
1667710510581650700,6.293650634765625,0.3702896237373352,1.399558186531067,-0.20350009202957153
1667710510591701500,6.303701416015625,0.23147183656692505,1.5063390731811523,-0.010258596390485764
1667710510601751600,6.31375146484375,0.10675361007452011,1.5321801900863647,0.2189737856388092
1667710510611802600,6.323802734375,-0.01150041539222002,1.40175461769104,0.43164852261543274
1667710510621853700,6.333853759765625,-0.13175012171268463,1.0155971050262451,0.5187011361122131
1667710510631904500,6.343904541015625,-0.2588730752468109,0.4966527819633484,0.5342127084732056
1667710510641955600,6.35395556640625,-0.49069565534591675,0.21918842196464539,0.5024744868278503
1667710510652005600,6.364005615234375,-0.8781932592391968,0.22163228690624237,0.280080109834671
1667710510662056700,6.374056640625,-1.2901546955108643,0.45244231820106506,-0.15830177068710327
1667710510672107800,6.384107666015625,-1.452928900718689,1.1603025197982788,-0.714638888835907
1667710510682158600,6.39415869140625,-1.2543833255767822,2.3953466415405273,-1.1992201805114746
1667710510692209700,6.404209716796875,-0.8606128096580505,3.5624749660491943,-1.4246412515640259
1667710510702259500,6.414259521484375,-0.3162400722503662,3.5757057666778564,-1.0843781232833862
1667710510712310500,6.424310546875,0.26432472467422485,1.7319053411483765,0.0318487286567688
1667710510722361600,6.434361572265625,0.9128025770187378,-2.952197551727295,0.46723267436027527
1667710510732412700,6.44441259765625,1.0990867614746094,-7.658600807189941,1.090496301651001
1667710510742463500,6.45446337890625,0.2893604040145874,-7.974462509155273,2.1941099166870117
1667710510752513500,6.464513427734375,-1.065998911857605,-8.032346725463867,0.5415446162223816
1667710510762564900,6.47456494140625,-2.0776889324188232,-6.696253299713135,0.22416290640830994
1667710510772616000,6.484615966796875,-2.2485172748565674,-3.4715795516967773,0.27208632230758667
1667710510782667000,6.4946669921875,-1.011431097984314,-0.6041291356086731,0.47647249698638916
1667710510792717800,6.5047177734375,-0.33599555492401123,0.776919424533844,0.9448320269584656
1667710510802768000,6.514767822265625,-0.07800422608852386,1.9986823797225952,1.5264785289764404
1667710510812819000,6.52481884765625,-0.006480990443378687,3.1922593116760254,2.088778018951416
1667710510822870000,6.5348701171875,-0.13384880125522614,4.009438991546631,2.3834726810455322
1667710510832921000,6.544921142578125,-0.5009366273880005,4.351416110992432,2.373656749725342
1667710510842972000,6.554971923828125,-1.2132022380828857,3.9816954135894775,2.1022660732269287
1667710510853022000,6.56502197265625,-2.03147292137146,2.2583024501800537,1.9755185842514038
1667710510863072800,6.57507275390625,-2.2399370670318604,1.2342228889465332,1.8829013109207153
1667710510873123800,6.585123779296875,-1.6088496446609497,1.8984969854354858,1.4942048788070679
1667710510883175000,6.5951748046875,-1.0662665367126465,2.4192564487457275,1.284145474433899
1667710510893226000,6.60522607421875,-0.765569806098938,2.323310375213623,1.5640238523483276
1667710510903276000,6.615276123046875,-0.632636308670044,1.8351781368255615,2.157994031906128
1667710510913327000,6.6253271484375,-0.5752044916152954,1.1469346284866333,2.814358949661255
1667710510923378000,6.6353779296875,-0.6639511585235596,0.48211801052093506,3.224759817123413
1667710510933429000,6.645428955078125,-0.8671769499778748,0.05122119560837746,3.1841535568237305
1667710510943480000,6.65547998046875,-1.0811244249343872,-0.2509130835533142,2.7396233081817627
1667710510953529900,6.66552978515625,-1.132727026939392,-0.5587303042411804,2.1595160961151123
1667710510963581000,6.675580810546875,-1.0035277605056763,-0.5559097528457642,1.6442482471466064
1667710510973631700,6.6856318359375,-0.7544187307357788,-0.166227787733078,1.2200491428375244
1667710510983682800,6.695682861328125,-0.5548853874206543,0.0424569770693779,0.9477846026420593
1667710510993734000,6.70573388671875,-0.3993183970451355,-0.18003560602664948,0.6958956718444824
1667710511003784000,6.715783935546875,-0.16253836452960968,-0.5589461922645569,0.3479856252670288
1667710511013835000,6.7258349609375,0.13430798053741455,-0.8941187262535095,-0.13828144967556
1667710511023886000,6.735885986328125,0.5406211614608765,-1.0120019912719727,-0.6631993055343628
1667710511033937000,6.74593701171875,1.063530445098877,-0.8140800595283508,-1.0744534730911255
1667710511043988000,6.755988037109375,1.5321693420410156,-0.5004296898841858,-1.3843799829483032
1667710511054037800,6.766037841796875,1.7778562307357788,-0.3854122459888458,-1.673945426940918
1667710511064088800,6.7760888671875,1.653491735458374,-0.37052786350250244,-1.9404220581054688
1667710511074140000,6.786139892578125,1.3080518245697021,-0.08733025938272476,-2.1966986656188965
1667710511084190700,6.796190673828125,0.9906355142593384,0.5664893388748169,-2.6330766677856445
1667710511094241800,6.80624169921875,0.7955901622772217,1.575199007987976,-3.1217920780181885
1667710511104291800,6.816291748046875,0.7877820134162903,2.975554943084717,-3.2666842937469482
1667710511114343000,6.826343017578125,0.8421120643615723,3.86869478225708,-3.2374207973480225
1667710511124394000,6.83639404296875,0.7075366973876953,4.216431140899658,-3.2066900730133057
1667710511134445000,6.846445068359375,0.4278576374053955,4.031530857086182,-3.1576390266418457
1667710511144495900,6.856495849609375,-0.09108351171016693,3.0306992530822754,-3.0401885509490967
1667710511154546000,6.8665458984375,-0.7244609594345093,0.620721161365509,-2.8298163414001465
1667710511164597000,6.876596923828125,-0.6392816305160522,-2.826730489730835,-2.558014392852783
1667710511174647800,6.886647705078125,0.1533089578151703,-5.554319858551025,-2.3589463233947754
1667710511184699000,6.896698974609375,0.9736882448196411,-6.168622016906738,-2.057560682296753
1667710511194750000,6.90675,1.1479994058609009,-4.898438930511475,-1.6689064502716064
1667710511204800000,6.916800048828125,0.9342728853225708,-2.825474739074707,-1.5367788076400757
1667710511214850800,6.926850830078125,0.675596296787262,-1.3418444395065308,-1.8466047048568726
1667710511224902000,6.93690185546875,0.5269631147384644,-0.9815629720687866,-2.0896589756011963
1667710511234953000,6.946952880859375,0.5885308980941772,-1.218332290649414,-1.9391145706176758
1667710511245004000,6.957004150390625,0.7793972492218018,-1.3430142402648926,-1.532269835472107
1667710511255054000,6.96705419921875,0.8867731690406799,-1.116560459136963,-1.133396863937378
1667710511265105000,6.97710498046875,0.9453845024108887,-0.589338481426239,-0.8305573463439941
1667710511275156000,6.987156005859375,0.9703587889671326,-0.03283180668950081,-0.6074125170707703
1667710511285207000,6.99720703125,0.9029475450515747,0.3884139657020569,-0.43553581833839417
1667710511295257900,7.0072578125,0.7397083640098572,0.6692898869514465,-0.3029211163520813
1667710511305308000,7.017307861328125,0.547386884689331,0.9994900822639465,-0.18630848824977875
1667710511315359000,7.02735888671875,0.35644567012786865,1.350792646408081,-0.018440335988998413
1667710511325409800,7.037409912109375,0.13354012370109558,1.571111798286438,0.18612372875213623
1667710511335460900,7.0474609375,-0.04040506109595299,1.5973454713821411,0.3976491093635559
1667710511345512000,7.057511962890625,-0.13270676136016846,1.3732357025146484,0.6324818730354309
1667710511355562000,7.06756201171875,-0.2060316652059555,0.941224217414856,0.9080232977867126
1667710511365613000,7.077613037109375,-0.2782331705093384,0.37050744891166687,1.1970162391662598
1667710511375663900,7.087663818359375,-0.3461547791957855,-0.013286178931593895,1.5069501399993896
1667710511385715000,7.09771484375,-0.5562787652015686,-0.025445640087127686,1.6393585205078125
1667710511395766000,7.10776611328125,-0.9271256923675537,0.17198243737220764,1.2742193937301636
1667710511405815800,7.11781591796875,-1.3060580492019653,0.46162864565849304,0.5283907651901245
1667710511415867000,7.127866943359375,-1.3450685739517212,1.2468522787094116,-0.35822975635528564
1667710511425918000,7.13791796875,-0.7290527820587158,2.5475337505340576,-1.9250112771987915
1667710511435968800,7.14796875,1.161383867263794,1.0931947231292725,-3.003640651702881
1667710511446019800,7.158019775390625,2.9075992107391357,-6.252302169799805,-1.4143458604812622
1667710511456070000,7.16806982421875,2.1378605365753174,-10.542753219604492,3.4012482166290283
1667710511466121000,7.178120849609375,0.9298160672187805,-9.484293937683105,5.039451599121094
1667710511476172000,7.188172119140625,0.27979031205177307,-6.43379545211792,3.043689250946045
1667710511486223000,7.19822314453125,0.39363619685173035,-2.875861167907715,0.3543153405189514
1667710511496274000,7.20827392578125,0.22011245787143707,-0.5279523134231567,-0.8933141827583313
1667710511506325000,7.218324951171875,-0.609113335609436,1.0653722286224365,-0.9179079532623291
1667710511516374800,7.228374755859375,-1.6782441139221191,1.96846342086792,-0.11063850671052933
1667710511526425900,7.23842578125,-2.534071683883667,2.29148006439209,0.575278103351593
1667710511536477000,7.248476806640625,-3.057455539703369,2.894136667251587,1.1158545017242432
1667710511546527700,7.25852783203125,-3.293163776397705,4.197092056274414,1.788243293762207
1667710511556578800,7.268578857421875,-3.111421585083008,5.941547393798828,2.5774922370910645
1667710511566628900,7.27862890625,-2.476443290710449,7.044118881225586,3.1003012657165527
1667710511576680000,7.288679931640625,-1.4874138832092285,5.501143455505371,2.732877731323242
1667710511586731000,7.29873095703125,-0.9574098587036133,2.4381964206695557,1.8715590238571167
1667710511596782000,7.308781982421875,-0.6850677728652954,0.9174546003341675,1.5029889345169067
1667710511606833000,7.3188330078125,-0.46231701970100403,0.6176106333732605,1.6663432121276855
1667710511616882700,7.328882568359375,-0.3712315559387207,0.4964502453804016,2.407677412033081
1667710511626933800,7.338933837890625,-0.4025537967681885,0.6426127552986145,3.3605093955993652
1667710511636984800,7.34898486328125,-0.4912900924682617,0.8447387218475342,3.8142781257629395
1667710511647036000,7.359035888671875,-0.7201887965202332,0.5348889827728271,3.3345999717712402
1667710511657087000,7.3690869140625,-0.9444186091423035,-0.31146571040153503,2.5640172958374023
1667710511667137000,7.379136962890625,-1.0864760875701904,-1.1429764032363892,2.051748275756836
1667710511677187800,7.389187744140625,-1.2121930122375488,-1.5017699003219604,1.8108608722686768
1667710511687239000,7.399239013671875,-1.136879324913025,-1.4175357818603516,1.5207960605621338
1667710511697290000,7.4092900390625,-0.9436801671981812,-1.259414553642273,1.2281849384307861
1667710511707341000,7.419341064453125,-0.8151450753211975,-1.2911473512649536,1.003271460533142
1667710511717391000,7.42939111328125,-0.7444626688957214,-1.567449927330017,0.9144543409347534
1667710511727442000,7.43944189453125,-0.6301496624946594,-1.8592239618301392,0.8766430616378784
1667710511737492700,7.44949267578125,-0.48158499598503113,-1.9467341899871826,0.663021445274353
1667710511747543800,7.459543701171875,-0.16756130754947662,-1.6686009168624878,0.28116118907928467
1667710511757595000,7.469594970703125,0.31643736362457275,-0.911396324634552,-0.14377370476722717
1667710511767645200,7.479645263671875,0.9157900214195251,-0.03207724168896675,-0.46535784006118774
1667710511777695200,7.4896953125,1.5603325366973877,0.22306986153125763,-0.7438631653785706
1667710511787746300,7.499746337890625,2.1283304691314697,-0.29612138867378235,-1.0736240148544312
1667710511797797000,7.509797119140625,2.369490146636963,-0.7858482003211975,-1.2823755741119385
1667710511807848200,7.51984814453125,1.9506503343582153,-0.35049325227737427,-1.3343461751937866
1667710511817898000,7.52989794921875,1.3441358804702759,0.6071981191635132,-1.6931688785552979
1667710511827949000,7.539948974609375,1.0740584135055542,1.1349804401397705,-2.4155235290527344
1667710511838000000,7.550000244140625,0.9497154951095581,1.3590097427368164,-3.046434164047241
1667710511848051000,7.560051025390625,1.019952654838562,1.720381498336792,-3.333588123321533
1667710511858102000,7.57010205078125,1.1175206899642944,2.0876011848449707,-3.47444224357605
1667710511868153000,7.580153076171875,1.045833945274353,2.891056776046753,-3.5380897521972656
1667710511878203100,7.590203125,0.9837331175804138,3.592618703842163,-3.5025014877319336
1667710511888254200,7.600254150390625,0.7896072864532471,3.460479497909546,-3.1052865982055664
1667710511898305300,7.61030517578125,0.34826213121414185,1.577640414237976,-2.4786195755004883
1667710511908356000,7.620356201171875,0.0602833516895771,-2.010704278945923,-2.1751904487609863
1667710511918407200,7.6304072265625,0.3385000228881836,-5.46092414855957,-2.3104851245880127
1667710511928457000,7.64045703125,1.0153677463531494,-7.304649829864502,-2.401902914047241
1667710511938508000,7.650508056640625,1.5746521949768066,-6.485865592956543,-2.07456111907959
1667710511948559000,7.66055908203125,1.54781174659729,-3.840535879135132,-1.5140775442123413
1667710511958610200,7.670610107421875,1.1380563974380493,-1.1919331550598145,-1.31895112991333
1667710511968661000,7.680660888671875,0.7895156741142273,0.15029287338256836,-1.6716026067733765
1667710511978711000,7.6907109375,0.6672928929328918,0.40775230526924133,-2.089918613433838
1667710511988762000,7.70076220703125,0.7299043536186218,0.007143375463783741,-2.041569471359253
1667710511998813200,7.710813232421875,0.8664502501487732,-0.11236536502838135,-1.6248259544372559
1667710512008864300,7.7208642578125,0.94633549451828,0.29289132356643677,-1.1223583221435547
1667710512018915000,7.7309150390625,1.0081924200057983,0.9087048768997192,-0.6980476975440979
1667710512028966100,7.740966064453125,1.0323821306228638,1.3069186210632324,-0.39216548204421997
1667710512039016000,7.751015869140625,0.9868955016136169,1.3409842252731323,-0.17363937199115753
1667710512049067000,7.76106689453125,0.7933627367019653,1.3040757179260254,-0.021124135702848434
1667710512059118000,7.7711181640625,0.5375778079032898,1.56356942653656,0.15931497514247894
1667710512069169200,7.781169189453125,0.2868260443210602,2.0525615215301514,0.32882997393608093
1667710512079220000,7.791219970703125,0.08445709943771362,2.325896978378296,0.4808809459209442
1667710512089270000,7.80127001953125,-0.0032538459636271,2.1251296997070312,0.7274688482284546
1667710512099321000,7.811321044921875,-0.023933539167046547,1.667349100112915,1.0941963195800781
1667710512109372200,7.8213720703125,-0.07775628566741943,1.3031669855117798,1.5327692031860352
1667710512119423200,7.83142333984375,-0.3733113706111908,1.3368638753890991,1.7319086790084839
1667710512129474000,7.84147412109375,-0.8670486211776733,1.6656664609909058,1.3479442596435547
1667710512139524000,7.851524169921875,-1.4384459257125854,1.907402515411377,0.5289983153343201
1667710512149575200,7.8615751953125,-1.7263309955596924,2.3227055072784424,-0.10824362933635712
1667710512159626000,7.8716259765625,-1.5056612491607666,3.1166276931762695,-0.42857709527015686
1667710512169677000,7.881677001953125,-0.854459822177887,3.600281000137329,-0.6717082858085632
1667710512179728100,7.89172802734375,0.01719200238585472,2.9072341918945312,-0.905146062374115
1667710512189778200,7.901778076171875,0.8577055931091309,0.18451307713985443,-0.7887193560600281
1667710512199829000,7.9118291015625,1.1493173837661743,-5.233522891998291,-0.17103654146194458
1667710512209880000,7.921880126953125,1.0079607963562012,-9.164006233215332,1.4741991758346558
1667710512219931100,7.93193115234375,0.7236087918281555,-9.13703727722168,3.3098320960998535
1667710512229982200,7.941982177734375,0.18106400966644287,-7.392391204833984,3.3050038814544678
1667710512240032300,7.9520322265625,-0.6456133127212524,-4.600916862487793,1.6341280937194824
1667710512250083300,7.962083251953125,-1.1263062953948975,-0.3854210376739502,-0.6517671942710876
1667710512260134100,7.972134033203125,-1.0623095035552979,0.8475027680397034,-1.5789806842803955
1667710512270185200,7.982185302734375,-0.9230377078056335,-0.5018202662467957,-1.3526256084442139
1667710512280236000,7.992236083984375,-0.9463041424751282,-1.6084764003753662,-0.6566492319107056
1667710512290287000,8.002287109375,-0.726283609867096,-0.7484338879585266,0.049572087824344635
1667710512300337200,8.012337158203126,-0.22789087891578674,1.2122039794921875,0.9893078207969666
1667710512310388000,8.022387939453125,0.08742047101259232,3.0933806896209717,1.9846529960632324
1667710512320439000,8.03243896484375,-0.09617870301008224,4.235066890716553,2.865752935409546
1667710512330490000,8.042489990234374,-0.8482367396354675,4.370471000671387,3.48197865486145
1667710512340541200,8.052541259765626,-1.8230472803115845,3.5859031677246094,3.7226827144622803
1667710512350591200,8.06259130859375,-2.208116054534912,2.538233518600464,3.434612512588501
1667710512360642300,8.072642333984374,-1.6916801929473877,1.9555952548980713,2.4986460208892822
1667710512370693000,8.082693115234376,-0.8395150303840637,1.7878265380859375,1.719476580619812
1667710512380744200,8.092744140625,-0.45704999566078186,1.5194627046585083,1.778425931930542
1667710512390795300,8.102795166015625,-0.482030987739563,0.9966099262237549,2.351872205734253
1667710512400845000,8.112844970703126,-0.5055593252182007,0.3955167531967163,2.918980360031128
1667710512410896100,8.122896240234375,-0.5773655772209167,-0.059260882437229156,3.0454821586608887
1667710512420947200,8.132947265625,-0.7639955282211304,-0.3490796983242035,2.708188056945801
1667710512430998000,8.142998046875,-1.1197501420974731,-0.40619197487831116,2.1529486179351807
1667710512441049000,8.153049072265626,-1.3052526712417603,-0.5979663729667664,1.60289466381073
1667710512451100200,8.16310009765625,-1.149605631828308,-0.9230930805206299,1.1616320610046387
1667710512461150200,8.173150146484375,-0.8219553828239441,-1.1010332107543945,0.8579757809638977
1667710512471201300,8.183201171875,-0.5951089262962341,-1.1228644847869873,0.6876059174537659
1667710512481252000,8.193252197265625,-0.5221011638641357,-1.1882860660552979,0.6382301449775696
1667710512491303200,8.20330322265625,-0.47104328870773315,-1.3480198383331299,0.5566561818122864
1667710512501354200,8.213354248046874,-0.3167261779308319,-1.5133826732635498,0.2504706382751465
1667710512511404000,8.223404052734375,0.03924309462308884,-1.628051519393921,-0.2534891664981842
1667710512521455000,8.233455078125,0.6095930933952332,-1.3578826189041138,-0.655145525932312
1667710512531506200,8.243506103515625,1.1530954837799072,-0.47622770071029663,-0.7681010961532593
1667710512541557000,8.253556884765626,1.6523175239562988,0.20889584720134735,-0.8088021874427795
1667710512551608000,8.263608154296875,2.09599232673645,0.35268017649650574,-0.9373918175697327
1667710512561658000,8.273658203125,2.165804386138916,0.5881298184394836,-1.091667890548706
1667710512571709200,8.283709228515624,1.735789179801941,1.1808067560195923,-1.4154906272888184
1667710512581760300,8.29376025390625,1.3101221323013306,1.774166226387024,-2.0302863121032715
1667710512591811000,8.30381103515625,0.9876301288604736,1.8733972311019897,-2.7604918479919434
1667710512601862100,8.313862060546874,0.7945920825004578,2.0711119174957275,-3.244337797164917
1667710512611912000,8.323911865234376,0.836114227771759,2.7854995727539062,-3.337313652038574
1667710512621963000,8.333962890625,0.9069409966468811,3.4629769325256348,-3.418527126312256
1667710512632014000,8.34401416015625,0.8769381046295166,4.436385631561279,-3.393014907836914
1667710512642065200,8.354065185546874,0.7643923759460449,5.1175923347473145,-3.334815263748169
1667710512652116000,8.364115966796875,0.48333248496055603,4.431818962097168,-2.9806129932403564
1667710512662167000,8.3741669921875,0.0060174427926540375,0.9545162916183472,-2.2758073806762695
1667710512672217000,8.384217041015624,-0.14169424772262573,-4.071213245391846,-1.9137831926345825
1667710512682268200,8.39426806640625,0.5349180698394775,-7.900953769683838,-2.01764178276062
1667710512692319200,8.4043193359375,1.5928316116333008,-9.120942115783691,-1.932882308959961
1667710512702370000,8.4143701171875,2.2118947505950928,-7.171572208404541,-1.4129732847213745
1667710512712421000,8.424421142578124,2.0654220581054688,-3.2756447792053223,-0.9631813764572144
1667710512722471200,8.43447119140625,1.5102522373199463,-0.4950923025608063,-0.9856439232826233
1667710512732522000,8.44452197265625,1.1040229797363281,0.05586140230298042,-1.405500888824463
1667710512742573000,8.454572998046874,0.9535324573516846,-0.2243059128522873,-1.751833200454712
1667710512752624000,8.4646240234375,0.9209771752357483,-0.33456718921661377,-1.732844352722168
1667710512762675000,8.474675048828125,0.8659132122993469,-0.07991162687540054,-1.4194209575653076
1667710512772725200,8.484725341796874,0.7604738473892212,0.6862214803695679,-1.1125832796096802
1667710512782776300,8.4947763671875,0.6914247274398804,1.5495717525482178,-0.8925571441650391
1667710512792827400,8.504827392578125,0.5796371698379517,2.0965828895568848,-0.7713702917098999
1667710512802878500,8.51487841796875,0.39151936769485474,2.190081834793091,-0.7069698572158813
1667710512812929300,8.52492919921875,0.14139634370803833,2.0610523223876953,-0.6190482378005981
1667710512822980400,8.53498046875,-0.15354986488819122,2.1460092067718506,-0.4772203862667084
1667710512833030400,8.545030517578125,-0.4676516056060791,2.3079779148101807,-0.27009594440460205
1667710512843081500,8.55508154296875,-0.6917575001716614,2.2147414684295654,-0.056543245911598206
1667710512853132500,8.565132568359376,-0.7666690349578857,1.8403546810150146,0.19052618741989136
1667710512863183400,8.575183349609375,-0.764116108417511,1.2749046087265015,0.49542850255966187
1667710512873234200,8.585234130859375,-0.7495651245117188,0.4797651469707489,0.8632131814956665
1667710512883284200,8.5952841796875,-0.830545961856842,-0.31340309977531433,1.2621057033538818
1667710512893335300,8.605335205078125,-1.014864206314087,-0.6096931099891663,1.3122919797897339
1667710512903386400,8.615386474609375,-1.223796010017395,-0.36438292264938354,0.7757803201675415
1667710512913437400,8.6254375,-1.3355686664581299,-0.07091294974088669,0.11350222676992416
1667710512923488300,8.63548828125,-1.1729985475540161,0.7501800060272217,-0.20978592336177826
1667710512933538600,8.64553857421875,-0.6716412305831909,1.9255176782608032,-0.16481471061706543
1667710512943589400,8.65558935546875,0.13531166315078735,2.1219799518585205,0.5886313915252686
1667710512953640400,8.665640380859376,0.9615621566772461,0.0767136886715889,2.1319384574890137
1667710512963691500,8.67569140625,1.6911553144454956,-4.982676982879639,2.933288812637329
1667710512973742600,8.68574267578125,1.8463408946990967,-9.385111808776855,2.2973010540008545
1667710512983793200,8.695793212890624,1.288221001625061,-7.927048683166504,0.30202263593673706
1667710512993843200,8.70584326171875,0.1491127610206604,-2.903831958770752,-1.243782639503479
1667710513003894300,8.715894287109375,-0.7527379989624023,0.5910386443138123,-1.1869251728057861
1667710513013945300,8.7259453125,-0.9971975684165955,1.3226279020309448,-0.7369993925094604
1667710513023996400,8.735996337890626,-0.6307686567306519,0.0015600230544805527,-0.20933657884597778
1667710513034047500,8.746047607421875,-0.5766862630844116,-1.3270087242126465,0.17855949699878693
1667710513044097500,8.75609765625,-0.4415951073169708,-0.8081576824188232,0.4258018136024475
1667710513054148400,8.7661484375,-0.0937042236328125,1.1404037475585938,0.7839775681495667
1667710513064199400,8.776199462890625,-0.005694670602679253,3.100817918777466,1.2079882621765137
1667710513074250500,8.78625048828125,-0.4631122946739197,3.9601948261260986,1.7691413164138794
1667710513084301600,8.796301513671875,-1.3589894771575928,3.4415786266326904,2.408853769302368
1667710513094351400,8.806351318359376,-2.146757125854492,2.20408034324646,3.0517356395721436
1667710513104402200,8.816402099609375,-2.1660568714141846,1.7684298753738403,3.0550355911254883
1667710513114453200,8.826453369140625,-1.670780897140503,2.2618672847747803,2.3597536087036133
1667710513124504300,8.83650439453125,-0.9665446281433105,2.9123191833496094,1.7103272676467896
1667710513134555400,8.846555419921875,-0.6457322835922241,3.069723606109619,1.7228542566299438
1667710513144606500,8.8566064453125,-0.5158149003982544,2.6268415451049805,2.3664934635162354
1667710513154656500,8.866656494140624,-0.46034950017929077,1.712158203125,3.1631054878234863
1667710513164707300,8.876707275390626,-0.519153356552124,0.5521291494369507,3.530433177947998
1667710513174758400,8.88675830078125,-0.7274115085601807,-0.4848055839538574,3.213078260421753
1667710513184809500,8.8968095703125,-0.9763827919960022,-1.0659278631210327,2.612642288208008
1667710513194860500,8.906860595703124,-1.1238361597061157,-1.2391563653945923,2.1651272773742676
1667710513204911400,8.916911376953125,-1.2107431888580322,-1.0997319221496582,1.9318445920944214
1667710513214961400,8.92696142578125,-1.1761740446090698,-0.7306771874427795,1.6232043504714966
1667710513225012200,8.93701220703125,-1.0506322383880615,-0.5553664565086365,1.2894655466079712
1667710513235063300,8.947063232421876,-0.9345706701278687,-0.8854866027832031,1.0791552066802979
1667710513245114400,8.9571142578125,-0.8266115188598633,-1.4729130268096924,0.9061333537101746
1667710513255165400,8.96716552734375,-0.7064907550811768,-2.0173070430755615,0.6744316816329956
1667710513265215500,8.977215576171876,-0.4699363708496094,-2.3235268592834473,0.41642627120018005
1667710513275266300,8.987266357421875,-0.04246547073125839,-2.28830623626709,0.1391342282295227
1667710513285317400,8.9973173828125,0.507163941860199,-1.8473012447357178,-0.2102200835943222
1667710513295368400,9.007368408203124,1.0803430080413818,-1.20413076877594,-0.6230055093765259
1667710513305419500,9.01741943359375,1.5837292671203613,-0.7884938716888428,-1.031572699546814
1667710513315469300,9.02746923828125,1.8232393264770508,-0.4579121768474579,-1.2730671167373657
1667710513325520400,9.037520263671874,1.6904581785202026,0.0015320680104196072,-1.417593240737915
1667710513335571200,9.0475712890625,1.5376313924789429,0.6096640825271606,-1.779479742050171
1667710513345622300,9.057622314453125,1.5142905712127686,1.1515698432922363,-2.2925477027893066
1667710513355673300,9.06767333984375,1.5515674352645874,1.7068520784378052,-2.6207568645477295
1667710513365724400,9.077724365234374,1.6776854991912842,2.560666561126709,-2.5897231101989746
1667710513375774500,9.0877744140625,1.8506416082382202,3.22286319732666,-2.4753618240356445
1667710513385825300,9.0978251953125,1.685187578201294,4.007207870483398,-2.506298303604126
1667710513395876400,9.10787646484375,1.2661570310592651,4.155767917633057,-2.5309033393859863
1667710513405927400,9.117927490234376,0.6384705305099487,2.981555938720703,-2.640350103378296
1667710513415978500,9.127978515625,0.08084429800510406,0.31018850207328796,-2.675494432449341
1667710513426029600,9.138029541015625,0.015143591910600662,-3.342311143875122,-2.6174378395080566
1667710513436079400,9.148079345703126,0.5723879337310791,-6.213835716247559,-2.551668882369995
1667710513446130200,9.158130126953125,1.2449325323104858,-7.014585494995117,-2.3081984519958496
1667710513456181200,9.16818115234375,1.4856959581375122,-6.074199199676514,-1.9082551002502441
1667710513466232300,9.178232421875,1.3607382774353027,-4.1993818283081055,-1.5779967308044434
1667710513476283400,9.188283447265626,1.157187581062317,-2.4626779556274414,-1.515486717224121
1667710513486333400,9.19833349609375,1.0965919494628906,-1.409988284111023,-1.6475261449813843
1667710513496384300,9.20838427734375,1.247423529624939,-1.1101858615875244,-1.6457810401916504
1667710513506435300,9.218435302734376,1.3845469951629639,-0.8177711367607117,-1.4896641969680786
1667710513516486400,9.228486328125,1.3026620149612427,-0.19189125299453735,-1.3004794120788574
1667710513526537500,9.238537353515625,1.1794400215148926,0.6778138279914856,-1.1814982891082764
1667710513536588500,9.248588623046874,1.0236965417861938,1.4110870361328125,-1.1427021026611328
1667710513546638600,9.258638671875,0.8465091586112976,1.7932991981506348,-1.1298751831054688
1667710513556689200,9.268689208984375,0.6735414266586304,1.8882269859313965,-1.1100884675979614
1667710513566740200,9.278740234375,0.5367714762687683,2.0131986141204834,-1.0953373908996582
1667710513576791300,9.288791259765626,0.2484169453382492,2.3784141540527344,-0.9238793849945068
1667710513586842400,9.29884228515625,-0.040837064385414124,2.735093832015991,-0.6729531288146973
1667710513596892400,9.308892333984375,-0.2493218332529068,2.7227418422698975,-0.36672157049179077
1667710513606943500,9.318943603515624,-0.3961576521396637,2.2247579097747803,0.057662978768348694
1667710513616994300,9.328994384765625,-0.4399682283401489,1.356491208076477,0.6596689224243164
1667710513627045400,9.33904541015625,-0.45687034726142883,0.38492563366889954,1.2923606634140015
1667710513637096400,9.349096435546874,-0.623813807964325,-0.3547806739807129,1.8165132999420166
1667710513647146500,9.359146484375,-0.8912242650985718,-0.561614990234375,2.0678343772888184
1667710513657197600,9.369197509765625,-1.059548258781433,-0.2988573908805847,1.9300700426101685
1667710513667248400,9.379248291015625,-1.235688328742981,0.03677330166101456,1.6420496702194214
1667710513677299200,9.38929931640625,-1.2665892839431763,0.4557915925979614,1.3410775661468506
1667710513687350300,9.399350341796875,-1.0066715478897095,1.092973232269287,0.9500839710235596
1667710513697401300,9.4094013671875,-0.339046448469162,1.2257381677627563,0.6262081861495972
1667710513707451400,9.419451416015624,0.7242773175239563,-0.7604949474334717,1.0653423070907593
1667710513717502500,9.42950244140625,2.1110005378723145,-5.628117561340332,1.4053059816360474
1667710513727553300,9.43955322265625,2.786665916442871,-9.495614051818848,1.2121038436889648
1667710513737604400,9.449604248046874,1.805346131324768,-6.072267055511475,0.8393653631210327
1667710513747655400,9.459655517578126,-0.06543312221765518,-1.3313724994659424,0.6785481572151184
1667710513757705500,9.46970556640625,-1.0398467779159546,0.5380128622055054,0.09110543876886368
1667710513767757000,9.479757080078125,-1.1288930177688599,0.6097555756568909,-0.4666405916213989
1667710513777808000,9.489807861328124,-0.9989056587219238,-0.5897582769393921,-0.5872176289558411
1667710513787859000,9.49985888671875,-0.990719735622406,-1.837589144706726,-0.26816144585609436
1667710513797910000,9.509909912109375,-1.218314290046692,-1.9010090827941895,0.4476432502269745
1667710513807961000,9.519961181640625,-1.6875331401824951,-0.2591106593608856,1.3251419067382812
1667710513818011000,9.530010986328126,-2.138266086578369,2.0767154693603516,1.927316665649414
1667710513828061700,9.540061767578125,-2.3662281036376953,3.902369260787964,2.2438974380493164
1667710513838112800,9.55011279296875,-2.590167284011841,5.096529006958008,2.5942909717559814
1667710513848163800,9.560163818359374,-2.840244770050049,5.7181172370910645,3.4878952503204346
1667710513858215000,9.57021484375,-2.4487619400024414,4.870389461517334,3.801184892654419
1667710513868266000,9.580265869140625,-1.4956945180892944,2.699253559112549,2.5131282806396484
1667710513878316000,9.59031591796875,-0.9845305681228638,1.5678009986877441,1.2955416440963745
1667710513888366800,9.600366943359376,-0.7594702243804932,1.1357290744781494,1.2485179901123047
1667710513898418000,9.61041796875,-0.6909774541854858,0.9765779972076416,2.2106590270996094
1667710513908469000,9.620468994140625,-0.5922954678535461,0.7876754403114319,3.415266990661621
1667710513918520000,9.63052001953125,-0.5580711960792542,0.3901198208332062,3.8005731105804443
1667710513928570000,9.640570068359375,-0.8089498281478882,-0.2636106610298157,3.204288959503174
1667710513938621000,9.650620849609375,-1.1900171041488647,-0.7797397971153259,2.3888208866119385
1667710513948671700,9.660671630859374,-1.4744149446487427,-0.8635619282722473,1.877742886543274
1667710513958722800,9.670722900390626,-1.4011571407318115,-0.9262650012969971,1.526469111442566
1667710513968774000,9.68077392578125,-1.0981440544128418,-1.0030888319015503,1.213376760482788
1667710513978825000,9.690824951171875,-0.9030112624168396,-1.2134511470794678,1.0703092813491821
1667710513988875000,9.700875,-0.858764111995697,-1.5707827806472778,1.0192428827285767
1667710513998925800,9.71092578125,-0.7689122557640076,-1.9937652349472046,0.8838784098625183
1667710514008977000,9.720976806640625,-0.5147080421447754,-2.171194076538086,0.5888724327087402
1667710514019028000,9.731028076171874,-0.06349452584981918,-1.88900625705719,0.2645401656627655
1667710514029079000,9.7410791015625,0.5485110878944397,-1.2088972330093384,-0.0789485052227974
1667710514039129000,9.751129150390625,1.224515676498413,-0.4455682337284088,-0.5305529832839966
1667710514049180000,9.761179931640624,1.829504132270813,0.12152383476495743,-0.9833605289459229
1667710514059230700,9.771230712890626,2.263805866241455,0.7360170483589172,-1.1676506996154785
1667710514069281800,9.78128173828125,2.31400728225708,1.2611401081085205,-1.405243992805481
1667710514079332900,9.791332763671875,1.8108142614364624,1.4908015727996826,-1.9464366436004639
1667710514089384000,9.801384033203124,1.5081990957260132,1.2182315587997437,-2.7089884281158447
1667710514099434000,9.81143408203125,1.194339394569397,0.958548367023468,-3.362811326980591
1667710514109484800,9.82148486328125,1.0150090456008911,1.5902272462844849,-3.4943666458129883
1667710514119535900,9.831535888671874,1.0374714136123657,2.361074447631836,-3.3922109603881836
1667710514129587000,9.8415869140625,0.932011604309082,3.2179863452911377,-3.3684661388397217
1667710514139638000,9.851637939453125,0.8323561549186707,3.93503475189209,-3.402200222015381
1667710514149688000,9.86168798828125,0.5923770070075989,3.640256404876709,-3.474214553833008
1667710514159739100,9.8717392578125,0.21864494681358337,1.6511989831924438,-3.457634449005127
1667710514169790000,9.8817900390625,0.014343548566102982,-1.9246697425842285,-3.2574102878570557
1667710514179840800,9.8918408203125,0.20999640226364136,-5.765012741088867,-3.0721817016601562
1667710514189891800,9.901891845703124,0.836882472038269,-7.951231002807617,-2.874382257461548
1667710514199943000,9.91194287109375,1.3471052646636963,-7.527043342590332,-2.3918821811676025
1667710514209993000,9.921992919921875,1.4830098152160645,-5.1873393058776855,-1.8062666654586792
1667710514220043800,9.932043701171875,1.323970913887024,-2.576216459274292,-1.6953595876693726
1667710514230094800,9.9420947265625,1.1240519285202026,-1.0980472564697266,-2.087101697921753
1667710514240146000,9.95214599609375,1.11107337474823,-1.0367825031280518,-2.317939043045044
1667710514250197000,9.962197021484375,1.255605697631836,-1.2740142345428467,-2.0907866954803467
1667710514260248000,9.972248046875,1.2991372346878052,-0.9566583633422852,-1.730695366859436
1667710514270298000,9.982298095703126,1.2496432065963745,-0.08000469207763672,-1.391059398651123
1667710514280349000,9.992348876953125,1.2024729251861572,0.8151974678039551,-1.1281335353851318
1667710514290400000,10.00239990234375,1.0898442268371582,1.3812493085861206,-0.9412827491760254
1667710514300450800,10.012450927734376,0.8577883839607239,1.6205623149871826,-0.8040918707847595
1667710514310502000,10.022501953125,0.5367235541343689,1.9097588062286377,-0.6527132391929626
1667710514320552000,10.032552001953125,0.14114531874656677,2.481289863586426,-0.4897642731666565
1667710514330603000,10.04260302734375,-0.2433541864156723,2.8904693126678467,-0.26854047179222107
1667710514340653800,10.05265380859375,-0.4905783534049988,2.7829360961914062,0.06431978940963745
1667710514350705000,10.062704833984375,-0.5974324941635132,2.2100882530212402,0.508005678653717
1667710514360756000,10.072755859375,-0.5883830785751343,1.3449442386627197,1.066322684288025
1667710514370807000,10.08280712890625,-0.6534952521324158,0.49764737486839294,1.7412763833999634
1667710514380857000,10.092857177734375,-0.8951337337493896,-0.01526222750544548,2.2061734199523926
1667710514390908000,10.102907958984375,-1.2286807298660278,0.06050330772995949,2.044856309890747
1667710514400959000,10.112958984375,-1.5613023042678833,0.19590960443019867,1.4854923486709595
1667710514411010000,10.123010009765625,-1.7178914546966553,0.32351255416870117,0.8663801550865173
1667710514421060900,10.133060791015625,-1.4861594438552856,0.8301989436149597,0.2893706262111664
1667710514431111000,10.14311083984375,-0.8496115803718567,1.5997925996780396,-0.3774659335613251
1667710514441162000,10.153161865234376,0.3664037585258484,1.0704680681228638,-0.8440693020820618
1667710514451212800,10.163212890625,2.0971920490264893,-3.3232321739196777,0.3138670027256012
1667710514461264000,10.173263916015625,2.876690149307251,-10.418386459350586,2.252934455871582
1667710514471315000,10.18331494140625,2.233151912689209,-10.888511657714844,3.7830753326416016
1667710514481365000,10.193364990234375,0.7374069094657898,-6.353222370147705,3.3732376098632812
1667710514491416000,10.203416015625,-0.4859217703342438,-3.3938701152801514,1.6678121089935303
1667710514501467000,10.213466796875,-0.7557670474052429,-1.2638972997665405,-0.5790505409240723
1667710514511518000,10.22351806640625,-0.7636087536811829,-0.5644547343254089,-1.686869502067566
1667710514521569000,10.233569091796875,-1.1843727827072144,-0.6057513356208801,-1.5952240228652954
1667710514531620000,10.2436201171875,-1.8124548196792603,-0.11602196097373962,-0.8184673190116882
1667710514541670000,10.253669921875,-2.2894930839538574,1.4790676832199097,0.23077954351902008
1667710514551721000,10.263720947265625,-2.5603580474853516,3.673356056213379,1.2128560543060303
1667710514561771800,10.273771728515625,-2.629951238632202,5.368232727050781,1.9294354915618896
1667710514571822800,10.28382275390625,-2.5534586906433105,6.218567848205566,2.5634937286376953
1667710514581874000,10.2938740234375,-2.435257911682129,5.753002643585205,3.4846043586730957
1667710514591925000,10.303925048828125,-2.088759183883667,3.6433308124542236,3.9854965209960938
1667710514601975000,10.31397509765625,-1.7134346961975098,1.701677918434143,2.828110694885254
1667710514612025900,10.32402587890625,-1.372862458229065,1.3099207878112793,1.4951400756835938
1667710514622077000,10.334076904296875,-1.0666769742965698,1.3976783752441406,1.2550100088119507
1667710514632128000,10.3441279296875,-0.8721376061439514,1.3802790641784668,2.122792959213257
1667710514642179000,10.354178955078124,-0.725041925907135,1.15361750125885,3.3560667037963867
1667710514652228900,10.364228759765625,-0.7186070680618286,0.5468220114707947,3.780083179473877
1667710514662280000,10.374280029296875,-1.0308459997177124,-0.31204667687416077,3.171656370162964
1667710514672330800,10.384330810546874,-1.3652125597000122,-0.8733605146408081,2.3836288452148438
1667710514682381800,10.3943818359375,-1.6142349243164062,-1.1141594648361206,1.8913121223449707
1667710514692433000,10.404432861328125,-1.6016775369644165,-1.2902836799621582,1.5207481384277344
1667710514702484000,10.41448388671875,-1.2598704099655151,-1.2454807758331299,1.1828453540802002
1667710514712534000,10.424533935546876,-0.9572218060493469,-1.1460062265396118,1.0428122282028198
1667710514722585000,10.434585205078125,-0.857406497001648,-1.2209268808364868,1.0173156261444092
1667710514732636000,10.444635986328125,-0.7766096591949463,-1.3945547342300415,0.8901693820953369
1667710514742687000,10.45468701171875,-0.5423737168312073,-1.4424852132797241,0.5736345648765564
1667710514752738000,10.464738037109376,-0.09504690021276474,-1.249585747718811,0.1302984207868576
1667710514762787800,10.474787841796875,0.5135709047317505,-0.7240737080574036,-0.2631916105747223
1667710514772839200,10.484839111328125,1.1360036134719849,-0.1544959843158722,-0.625909149646759
1667710514782890000,10.494889892578126,1.587180733680725,0.3635072112083435,-0.8114380240440369
1667710514792941000,10.504941162109375,1.9176946878433228,0.8452636003494263,-0.9085482358932495
1667710514802992000,10.5149921875,2.0569729804992676,1.2132229804992676,-1.2883731126785278
1667710514813043200,10.525043212890624,1.9397475719451904,1.5538913011550903,-1.9186413288116455
1667710514823093200,10.53509326171875,1.6985021829605103,1.5175896883010864,-2.4945309162139893
1667710514833144000,10.54514404296875,1.3183797597885132,1.4206548929214478,-2.839967727661133
1667710514843195100,10.555195068359374,1.2049083709716797,1.8818949460983276,-2.8727550506591797
1667710514853246200,10.56524609375,1.3808854818344116,2.585996627807617,-2.8467750549316406
1667710514863297300,10.57529736328125,1.4843037128448486,2.8894131183624268,-3.093883991241455
1667710514873347300,10.585347412109375,1.510381817817688,3.246392011642456,-3.168262243270874
1667710514883398100,10.595398193359374,1.4906057119369507,3.022897958755493,-3.0136659145355225
1667710514893449000,10.605448974609375,1.2070677280426025,1.899097204208374,-2.8486359119415283
1667710514903500000,10.6155,0.724526047706604,-0.05505950376391411,-2.7753541469573975
1667710514913551000,10.625551025390624,0.4166630208492279,-2.5212552547454834,-2.959970474243164
1667710514923602200,10.635602294921876,0.5811600685119629,-4.672859191894531,-3.260777711868286
1667710514933652200,10.64565234375,1.2773078680038452,-5.192615985870361,-3.1744191646575928
1667710514943703300,10.655703369140625,1.7575657367706299,-4.1751556396484375,-2.3450703620910645
1667710514953754000,10.665754150390624,1.6495893001556396,-2.4999735355377197,-1.4522825479507446
1667710514963805200,10.67580517578125,1.37773859500885,-1.3167004585266113,-1.321046233177185
1667710514973856300,10.685856201171875,1.2968641519546509,-0.7803413271903992,-1.6395047903060913
1667710514983907300,10.6959072265625,1.4102047681808472,-0.6643255352973938,-1.7526060342788696
1667710514993957400,10.705957275390626,1.501522183418274,-0.5809302926063538,-1.5738388299942017
1667710515004008000,10.716008056640625,1.4094455242156982,-0.3138749301433563,-1.2884398698806763
1667710515014059000,10.72605908203125,1.2371635437011719,0.287249356508255,-1.0133777856826782
1667710515024110000,10.736110107421876,1.0904446840286255,0.8620977401733398,-0.8506208062171936
1667710515034161200,10.7461611328125,0.8953302502632141,0.8954910635948181,-0.7606837749481201
1667710515044211200,10.756211181640625,0.5650337934494019,0.6333526372909546,-0.6756106615066528
1667710515054262300,10.76626220703125,0.16223230957984924,0.7805982828140259,-0.5343418717384338
1667710515064313000,10.77631298828125,-0.2012854516506195,1.3509443998336792,-0.36293601989746094
1667710515074364200,10.7863642578125,-0.48327744007110596,1.6254656314849854,-0.12258370220661163
1667710515084415200,10.796415283203125,-0.6341394186019897,1.1450982093811035,0.3878966271877289
1667710515094466300,10.80646630859375,-0.7170182466506958,0.30478253960609436,1.143014907836914
1667710515104516400,10.816516357421875,-0.9488285779953003,-0.43873900175094604,1.7786110639572144
1667710515114567200,10.826567138671875,-1.2732462882995605,-0.7074189782142639,1.9492093324661255
1667710515124618000,10.836617919921874,-1.4906811714172363,-0.2556757628917694,1.523816466331482
1667710515134669000,10.8466689453125,-1.6285459995269775,0.1945568323135376,0.9819616079330444
1667710515144720100,10.85672021484375,-1.68109130859375,0.6601663827896118,0.6381645798683167
1667710515154770200,10.866770263671874,-1.48238205909729,1.368427038192749,0.5124325156211853
1667710515164821200,10.8768212890625,-0.9045611619949341,1.784896969795227,0.3575901687145233
1667710515174872000,10.8868720703125,0.2071056067943573,0.35115084052085876,0.2679429054260254
1667710515184923100,10.896923095703125,1.8312047719955444,-4.684343338012695,0.6781584024429321
1667710515194974200,10.90697412109375,2.9030258655548096,-10.88315200805664,1.5138466358184814
1667710515205025300,10.917025390625,2.495455503463745,-9.771101951599121,2.0915560722351074
1667710515215075300,10.927075439453125,0.7883778214454651,-3.783254384994507,1.0323768854141235
1667710515225126100,10.937126220703124,-0.5686771869659424,0.945693850517273,-0.05093923211097717
1667710515235177200,10.94717724609375,-0.9246967434883118,1.7255451679229736,-0.7929419279098511
1667710515245228000,10.95722802734375,-1.0563488006591797,0.21671421825885773,-1.1593269109725952
1667710515255279000,10.967279052734375,-1.404024600982666,-1.4829293489456177,-0.981654703617096
1667710515265329200,10.9773291015625,-1.9263410568237305,-1.5920134782791138,-0.4463481307029724
1667710515275380200,10.987380126953125,-2.5167083740234375,0.1703093945980072,0.4031539857387543
1667710515285431000,10.99743115234375,-2.911118507385254,2.744676351547241,1.4595324993133545
1667710515295482000,11.007482177734374,-2.9042069911956787,4.770820617675781,2.4646220207214355
1667710515305533200,11.017533203125,-2.7420079708099365,5.983930587768555,3.354496955871582
1667710515315584300,11.027584228515625,-2.7253575325012207,7.012009143829346,4.681959629058838
1667710515325634300,11.03763427734375,-2.402726173400879,6.88071346282959,5.748223304748535
1667710515335685400,11.047685302734376,-1.6037200689315796,4.245951175689697,4.181993007659912
1667710515345736200,11.057736083984375,-0.8807991147041321,1.5145299434661865,1.9123799800872803
1667710515355787300,11.067787353515625,-0.38791680335998535,-0.07971847802400589,1.3318771123886108
1667710515365838000,11.077838134765624,-0.3562086820602417,-0.8746680617332458,2.215306282043457
1667710515375889200,11.08788916015625,-0.6256797909736633,-0.9548671841621399,3.260866641998291
1667710515385939200,11.097939208984375,-1.055394172668457,-0.5493226051330566,3.2278525829315186
1667710515395990000,11.107989990234374,-1.4375379085540771,-0.4958916902542114,2.4756529331207275
1667710515406041000,11.118041015625,-1.5549122095108032,-1.2207673788070679,1.7944761514663696
1667710515416092200,11.128092041015625,-1.3203779458999634,-1.8475333452224731,1.3758167028427124
1667710515426143200,11.138143310546875,-1.056957483291626,-1.9677655696868896,1.1083719730377197
1667710515436193300,11.148193359375,-0.9699849486351013,-1.9195520877838135,0.989224910736084
1667710515446244400,11.158244384765625,-0.9445440173149109,-1.864237666130066,0.937969446182251
1667710515456295200,11.168295166015625,-0.8510807156562805,-1.675374984741211,0.7766624689102173
1667710515466346200,11.17834619140625,-0.5882259011268616,-1.3765573501586914,0.4401763379573822
1667710515476397300,11.188397216796876,-0.13541610538959503,-0.9522543549537659,0.022180581465363503
1667710515486448000,11.1984482421875,0.47098568081855774,-0.3818337321281433,-0.25646647810935974
1667710515496498200,11.208498291015625,1.189450740814209,0.7000183463096619,-0.07762123644351959
1667710515506549000,11.218549072265626,2.052715539932251,1.7506157159805298,0.0002634436823427677
1667710515516600000,11.22860009765625,2.8553097248077393,2.318580389022827,-0.5450393557548523
1667710515526651100,11.238651123046875,3.179724931716919,2.6258420944213867,-1.3200408220291138
1667710515536702200,11.2487021484375,2.622053384780884,2.3117775917053223,-2.1024668216705322
1667710515546752300,11.258752197265625,1.9238697290420532,1.5655442476272583,-2.771178722381592
1667710515556803300,11.26880322265625,1.5103169679641724,1.304747462272644,-3.0292327404022217
1667710515566854100,11.278854248046875,1.4022775888442993,1.840466856956482,-2.8410234451293945
1667710515576905200,11.2889052734375,1.3915693759918213,2.3388829231262207,-2.7729852199554443
1667710515586956300,11.298956298828125,1.1787279844284058,3.071904420852661,-2.743636131286621
1667710515597007400,11.30900732421875,0.8877582550048828,3.4251999855041504,-3.0473968982696533
1667710515607057200,11.31905712890625,0.4822770655155182,2.8554368019104004,-3.5052738189697266
1667710515617108200,11.329108154296875,0.05999336391687393,1.139464259147644,-3.65983510017395
1667710515627159000,11.339158935546875,-0.06758963316679001,-1.6984206438064575,-3.4208388328552246
1667710515637210000,11.349210205078125,0.36468762159347534,-4.539590358734131,-3.1779839992523193
1667710515647261200,11.35926123046875,1.2583796977996826,-6.14033842086792,-3.028160810470581
1667710515657312300,11.369312255859375,1.878381609916687,-6.267668724060059,-2.7228925228118896
1667710515667362300,11.3793623046875,1.9443905353546143,-4.770667552947998,-2.2780263423919678
1667710515677413000,11.3894130859375,1.7653957605361938,-2.8050129413604736,-2.0167503356933594
1667710515687464200,11.399464111328125,1.7191179990768433,-1.322382926940918,-2.149704694747925
1667710515697515300,11.409515380859375,1.8549319505691528,-0.7169108390808105,-2.298502206802368
1667710515707566300,11.41956640625,1.8917046785354614,-0.4872089922428131,-2.1563546657562256
1667710515717616000,11.4296162109375,1.7293798923492432,0.05489511415362358,-1.8409022092819214
1667710515727667200,11.439667236328125,1.5945816040039062,1.0036505460739136,-1.585235834121704
1667710515737718000,11.449718017578125,1.4052006006240845,1.9408073425292969,-1.4793415069580078
1667710515747769000,11.45976904296875,1.1152760982513428,2.3543612957000732,-1.4903496503829956
1667710515757820200,11.469820068359375,0.7570139169692993,2.2049002647399902,-1.5138782262802124
1667710515767870700,11.47987060546875,0.39529672265052795,2.1025516986846924,-1.4730935096740723
1667710515777920800,11.489920654296874,0.007613272871822119,2.4032537937164307,-1.2981107234954834
1667710515787971800,11.499971923828125,-0.39239779114723206,2.6425118446350098,-0.9965417981147766
1667710515798022700,11.510022705078125,-0.7399280071258545,2.3891868591308594,-0.5367740392684937
1667710515808073700,11.52007373046875,-0.9015664458274841,1.5352059602737427,0.07749391347169876
1667710515818124800,11.530124755859376,-0.8956760764122009,0.026911208406090736,0.8609510064125061
1667710515828176000,11.54017578125,-0.9915391802787781,-1.4941868782043457,1.5688623189926147
1667710515838226000,11.550225830078125,-1.3685309886932373,-2.2671310901641846,1.9881882667541504
1667710515848276700,11.56027685546875,-1.7935371398925781,-1.9666963815689087,1.9825053215026855
1667710515858327800,11.570327880859375,-2.0181145668029785,-0.9629486799240112,1.627604365348816
1667710515868378600,11.580378662109375,-2.0619418621063232,-0.037218183279037476,1.243984580039978
1667710515878429700,11.5904296875,-1.906273603439331,0.8150973320007324,1.106870174407959
1667710515888479700,11.600479736328126,-1.49093496799469,1.705026388168335,1.1735339164733887
1667710515898530800,11.61053076171875,-0.660572350025177,2.2219948768615723,1.0855215787887573
1667710515908581600,11.62058154296875,0.7923540472984314,0.7429458498954773,0.9753745198249817
1667710515918632700,11.6306328125,3.1663601398468018,-5.517369270324707,0.8558855056762695
1667710515928683800,11.640683837890625,4.163413047790527,-12.27026653289795,2.0052618980407715
1667710515938734800,11.65073486328125,2.348281145095825,-8.044831275939941,2.4371204376220703
1667710515948785000,11.660784912109374,0.1785384565591812,-1.7428960800170898,0.1689387559890747
1667710515958836000,11.6708359375,-0.7662267684936523,0.3310384750366211,-1.7850699424743652
1667710515968886800,11.68088671875,-1.0377850532531738,0.3426799476146698,-2.6432433128356934
1667710515978937900,11.690937744140625,-1.1531537771224976,-0.42661407589912415,-1.9088068008422852
1667710515988988700,11.70098876953125,-1.4362525939941406,-1.261651873588562,-0.929558515548706
1667710515999039700,11.711039794921875,-1.831690788269043,-0.17998948693275452,0.5954279899597168
1667710516009089800,11.72108984375,-2.364896535873413,1.8705755472183228,2.2217698097229004
1667710516019140600,11.731140625,-2.600680112838745,3.617255926132202,3.7054550647735596
1667710516029191700,11.741191650390626,-2.4874913692474365,4.6643242835998535,4.329226016998291
1667710516039242800,11.75124267578125,-2.5111026763916016,5.3598761558532715,4.151846885681152
1667710516049293800,11.7612939453125,-2.7861521244049072,6.321013927459717,4.081014156341553
1667710516059344000,11.77134375,-2.672851085662842,6.573679447174072,4.662525177001953
1667710516069395000,11.78139501953125,-1.775517225265503,4.522042751312256,3.799161911010742
1667710516079445800,11.79144580078125,-1.1000466346740723,1.8822554349899292,2.3938398361206055
1667710516089496800,11.801496826171874,-0.6984491944313049,0.37136343121528625,2.0824508666992188
1667710516099548000,11.8115478515625,-0.6702112555503845,-0.45406198501586914,2.704746723175049
1667710516109598700,11.8215986328125,-0.8067243099212646,-0.732027530670166,3.5452327728271484
1667710516119648800,11.831648681640624,-1.0119398832321167,-0.7152398824691772,3.732071876525879
1667710516129699600,11.841699462890626,-1.3341256380081177,-0.9045994281768799,3.161785840988159
1667710516139750700,11.851750732421875,-1.5721375942230225,-1.4827394485473633,2.3155324459075928
1667710516149801700,11.8618017578125,-1.351038932800293,-2.174328088760376,1.770592451095581
1667710516159852800,11.871852783203124,-1.041176676750183,-2.2194089889526367,1.5139951705932617
1667710516169903900,11.88190380859375,-0.9495335817337036,-2.148606061935425,1.4947240352630615
1667710516179954000,11.891953857421875,-0.9880507588386536,-2.214900493621826,1.4964706897735596
1667710516190004700,11.902004638671874,-0.9858373999595642,-2.333228826522827,1.2214484214782715
1667710516200055800,11.912055908203126,-0.8219432234764099,-2.1842777729034424,0.7107207179069519
1667710516210107000,11.92210693359375,-0.3987331688404083,-1.704272747039795,0.14938338100910187
1667710516220158000,11.932157958984375,0.26112937927246094,-1.069996953010559,-0.3308713138103485
1667710516230208500,11.94220849609375,0.9394679069519043,0.1949877291917801,-0.2760898172855377
1667710516240258800,11.9522587890625,1.7274411916732788,1.5877060890197754,-0.18313263356685638
1667710516250309600,11.9623095703125,2.5155200958251953,2.583547353744507,-0.5975974798202515
1667710516260360700,11.972360595703124,2.9663307666778564,3.089942216873169,-1.183841347694397
1667710516270411800,11.982411865234376,2.6964573860168457,2.6241443157196045,-1.8148564100265503
1667710516280462800,11.992462890625,1.9855830669403076,1.3573426008224487,-2.424253463745117
1667710516290513000,12.002512939453124,1.4683550596237183,0.36686426401138306,-2.82999324798584
1667710516300563700,12.012563720703126,1.03476881980896,0.6426476240158081,-2.8878073692321777
1667710516310614800,12.02261474609375,0.8837947249412537,1.5805450677871704,-2.7897655963897705
1667710516320665900,12.032665771484375,0.9307152032852173,2.320122003555298,-2.995468854904175
1667710516330717000,12.042717041015624,0.8252385854721069,3.169867753982544,-3.259321451187134
1667710516340767700,12.052767822265626,0.7271705269813538,3.9877660274505615,-3.605748176574707
1667710516350817800,12.06281787109375,0.7226918935775757,3.8836896419525146,-3.953563690185547
1667710516360868600,12.07286865234375,0.6342114210128784,2.0831642150878906,-3.747117280960083
1667710516370919700,12.082919677734376,0.5736671090126038,-1.7233127355575562,-3.3334238529205322
1667710516380970800,12.092970703125,0.673434317111969,-5.53691291809082,-3.4376511573791504
1667710516391021800,12.103021728515625,1.2741785049438477,-7.47267484664917,-3.669161081314087
1667710516401072600,12.11307275390625,2.0413146018981934,-6.807530403137207,-3.2312395572662354
1667710516411122700,12.123122802734375,2.385934591293335,-3.7264747619628906,-2.023550271987915
1667710516421173800,12.133173828125,2.0376126766204834,-1.0333014726638794,-1.4542213678359985
1667710516431224800,12.143224853515624,1.5188816785812378,-0.20350225269794464,-1.8224276304244995
1667710516441276000,12.15327587890625,1.228211760520935,-0.2268344759941101,-2.243774652481079
1667710516451326700,12.16332666015625,1.2086035013198853,-0.39601391553878784,-2.2117016315460205
1667710516461377800,12.173377685546875,1.2888988256454468,-0.2299644947052002,-1.8538401126861572
1667710516471427600,12.183427490234376,1.1676467657089233,0.5322763919830322,-1.4593966007232666
1667710516481478700,12.193478759765625,1.031754970550537,1.5058345794677734,-1.1758540868759155
1667710516491529700,12.20352978515625,0.8921904563903809,2.061797618865967,-1.0461511611938477
1667710516501580800,12.213580810546874,0.6164013147354126,2.0089704990386963,-0.955498218536377
1667710516511631600,12.223631591796876,0.2090878188610077,2.048907995223999,-0.7849262356758118
1667710516521682700,12.2336826171875,-0.25357842445373535,2.5924153327941895,-0.5294117331504822
1667710516531732700,12.243732666015624,-0.6748159527778625,2.8565781116485596,-0.21180714666843414
1667710516541783800,12.25378369140625,-0.8832301497459412,2.4835808277130127,0.1824549287557602
1667710516551835000,12.2638349609375,-0.858060896396637,1.5617649555206299,0.7134346961975098
1667710516561886000,12.273885986328125,-0.866237223148346,0.6052383184432983,1.4314563274383545
1667710516571936800,12.283936767578124,-1.1801960468292236,-0.09153994917869568,2.0986783504486084
1667710516581986600,12.293986572265625,-1.6010768413543701,0.02919256128370762,2.042046308517456
1667710516592037600,12.30403759765625,-1.9518529176712036,0.6898903250694275,1.4716856479644775
1667710516602088700,12.314088623046874,-2.23868727684021,1.313413381576538,0.894298255443573
1667710516612139800,12.324139892578126,-2.1708984375,1.915384292602539,0.5061500072479248
1667710516622190600,12.334190673828125,-1.6813219785690308,2.6016275882720947,0.232900932431221
1667710516632241700,12.34424169921875,-0.6576026082038879,2.5409512519836426,-0.1421792060136795
1667710516642291700,12.354291748046874,0.9543932676315308,0.2368224412202835,-0.6209449768066406
1667710516652342800,12.3643427734375,2.3099584579467773,-4.926456451416016,-0.526610791683197
1667710516662393900,12.374393798828125,3.469167470932007,-10.294612884521484,0.2357511967420578
1667710516672445000,12.38444482421875,3.260031223297119,-10.543136596679688,2.016294240951538
1667710516682495700,12.394495849609376,1.3564491271972656,-6.791706085205078,1.9681787490844727
1667710516692546800,12.404546875,0.3025291860103607,-4.919794082641602,-0.244578555226326
1667710516702596600,12.4145966796875,0.09212180227041245,-4.460343837738037,-2.214578151702881
1667710516712647700,12.424647705078126,-0.11453763395547867,-4.14382266998291,-2.379507303237915
1667710516722698800,12.43469873046875,-0.4477008283138275,-2.665522813796997,-0.8827323913574219
1667710516732749800,12.444749755859375,-1.0350255966186523,0.12310175597667694,1.0565210580825806
1667710516742800600,12.454800537109374,-1.8745561838150024,2.4041588306427,2.698925018310547
1667710516752851700,12.464851806640626,-2.67824387550354,3.785438299179077,3.6946821212768555
1667710516762901800,12.47490185546875,-3.0154075622558594,4.638242244720459,3.669872760772705
1667710516772953000,12.484953125,-3.2163312435150146,5.418000221252441,3.2769083976745605
1667710516783004200,12.495004150390624,-3.6476380825042725,7.651123523712158,3.6828744411468506
1667710516793055000,12.505054931640625,-3.689460039138794,9.133776664733887,4.8117265701293945
1667710516803106000,12.51510595703125,-2.361964464187622,6.407121181488037,3.884103536605835
1667710516813156000,12.525156005859374,-0.9883727431297302,1.9826252460479736,2.02524995803833
1667710516823207200,12.535207275390626,-0.33626797795295715,-0.19798171520233154,1.545989990234375
1667710516833258200,12.54525830078125,-0.24891391396522522,-1.3065581321716309,2.3379275798797607
1667710516843308800,12.555308837890625,-0.48610031604766846,-1.5844331979751587,3.6073436737060547
1667710516853359900,12.56535986328125,-0.8895559310913086,-1.0771297216415405,3.999558687210083
1667710516863411000,12.575410888671875,-1.305761456489563,-0.681347668170929,3.4075067043304443
1667710516873462000,12.5854619140625,-1.5901693105697632,-0.8227365016937256,2.643688678741455
1667710516883512000,12.595511962890624,-1.5552537441253662,-1.434774398803711,2.1635348796844482
1667710516893563100,12.605563232421876,-1.3621494770050049,-1.9207184314727783,1.8578917980194092
1667710516903614000,12.615614013671875,-1.3066548109054565,-2.139508008956909,1.879747748374939
1667710516913665000,12.6256650390625,-1.4162489175796509,-2.2026917934417725,2.00990629196167
1667710516923716000,12.635716064453124,-1.5395137071609497,-2.149263858795166,1.7959985733032227
1667710516933766100,12.64576611328125,-1.5102187395095825,-1.825178861618042,1.2230488061904907
