time,seconds_elapsed,z,y,x
1667710013568404500,0.028404541015625,-0.6968827789753675,1.744416732442379,-1.3757125993877648
1667710013578455600,0.03845556640625,0.08519874159693717,1.5537152968883514,-1.7335516395568846
1667710013588506400,0.04850634765625,1.110286469978094,1.316526543186605,-1.4159557624489068
1667710013598556200,0.05855615234375,1.7863766362935303,1.0910457629352808,-1.5484282963961362
1667710013608607200,0.068607177734375,2.5361329273223876,0.6753840638726949,-1.5107161131173372
1667710013618658300,0.078658203125,2.8683558801978823,0.20799539244323967,-1.0110837529480456
1667710013628709400,0.08870947265625,2.839472900062799,0.21218729117512702,-0.7993272544056177
1667710013638759400,0.098759521484375,2.535947049361467,0.46415626537948845,-0.3236053466558456
1667710013648810500,0.108810546875,2.069763369807601,0.7029992160290479,0.4099307541951537
1667710013658861300,0.118861328125,1.7170406497389077,0.9417331533461809,1.0006599740892648
1667710013668912400,0.128912353515625,1.2612591217339038,1.073626426100731,1.3020476437181234
1667710013678962400,0.13896240234375,0.9904922158181667,1.2170043849438428,1.5215617706499993
1667710013689013500,0.149013427734375,0.8041162422478199,1.3864169487535953,1.5939083371974527
1667710013699064600,0.159064697265625,0.5236135397374629,1.4678617446444928,1.4720589040733874
1667710013709115400,0.169115478515625,0.2164624842762947,1.4176109823100267,1.13834834298864
1667710013719165400,0.17916552734375,0.053013797307014464,1.1655005538083612,0.724399000801891
1667710013729216300,0.18921630859375,0.05459668258428573,0.905568491770327,0.35489831054210663
1667710013739267300,0.199267333984375,0.16487258229255675,0.6972508816353976,-0.07506620076969266
1667710013749318400,0.209318359375,0.4379144474029541,0.476027904959023,-0.42676659205332396
1667710013759368400,0.219368408203125,0.7867536040365696,0.32056437152475115,-0.6495619326129556
1667710013769419500,0.22941943359375,1.1437930182605982,0.2596061910845339,-0.7677934675008058
1667710013779470300,0.23947021484375,1.4753162984341381,0.03884177183061838,-0.8007859287813306
1667710013789521400,0.249521484375,1.7773329136162994,-0.270151696626842,-0.8133072644412517
1667710013799571500,0.259571533203125,2.1221558203458786,-0.4010502592556178,-0.8691519012600183
1667710013809622300,0.269622314453125,2.5394880829691884,-0.2360819615036249,-1.0140791353717447
1667710013819673300,0.27967333984375,2.860258498460054,-0.11436726067513227,-1.0792889819070697
1667710013829724400,0.289724365234375,2.918797781190276,-0.151326579760015,-1.082881745702028
1667710013839774500,0.2997744140625,2.8370903888404366,-0.2140045697301626,-0.9472194758027791
1667710013849825300,0.3098251953125,2.6851959460645913,-0.3174509156793356,-0.8285542256727814
1667710013859876400,0.31987646484375,2.473872578242421,-0.3922378611162305,-0.7767085953623056
1667710013869927400,0.329927490234375,2.275100648957491,-0.4351414755582809,-0.6527259496018291
1667710013879977500,0.3399775390625,2.2695693183153867,-0.39243630629777904,-0.5727370516076684
1667710013890028500,0.350028564453125,2.2252567138582466,-0.49369215646535153,-0.5485206019788981
1667710013900079600,0.36007958984375,2.0875708291769026,-0.6261871945053339,-0.49245472362488507
1667710013910130400,0.37013037109375,1.9922166042685507,-0.6255889363512397,-0.6366244173675775
1667710013920180200,0.38018017578125,1.8787223270356654,-0.2332648582562804,-1.1432964669153094
1667710013930231300,0.390231201171875,1.8445792344152927,-0.6824623316958546,-1.1479358171537517
1667710013940282400,0.400282470703125,1.5935574779331683,-1.7279256163686514,-0.3683434830486774
1667710013950333400,0.41033349609375,1.0123118334382772,-1.6738725391417741,-0.09263152194619179
1667710013960383500,0.420383544921875,0.631718525147438,-1.2611515697062015,-0.32652152636349197
1667710013970434300,0.430434326171875,0.3195265529096126,-1.132856905965507,-0.7008546052157878
1667710013980485400,0.4404853515625,0.06971124960780144,-1.1282087878987193,-1.1109864349409937
1667710013990536400,0.450536376953125,-0.3068395052939653,-1.1045081788375972,-1.4511045249804853
1667710014000586500,0.46058642578125,-0.8061351808547973,-0.9022492842197418,-1.356592596115172
1667710014010637300,0.47063720703125,-1.3914181180417537,-0.4948375271081924,-0.7886059539049863
1667710014020688400,0.4806884765625,-2.1810931624829766,-0.3212847947537899,-0.09007599224448204
1667710014030739200,0.4907392578125,-2.768375164532661,-0.42031127843409777,0.5587672707051038
1667710014040789200,0.500789306640625,-2.950105942645669,-0.7042588607013225,1.0133262711778281
1667710014050840300,0.51084033203125,-2.870671171402931,-1.1015274094611405,1.2541519200772047
1667710014060891400,0.520891357421875,-2.5468741015672682,-1.4158721758186816,1.3453081087738274
1667710014070942500,0.5309423828125,-1.9311141930520532,-1.575842665283382,1.3403700678497552
1667710014080992500,0.540992431640625,-1.1901742456853388,-1.5719754684612155,1.429969090232253
1667710014091043600,0.551043701171875,-0.7226701311826705,-1.2248495454862713,1.735119327265024
1667710014101094400,0.561094482421875,-0.636914340224862,-0.46436114030182357,2.3524206200033424
1667710014111145500,0.5711455078125,-1.1590759275883435,0.16275895113945008,3.172596601170301
1667710014121195300,0.5811953125,-1.9105290856629609,0.3151099055111408,3.85797014413774
1667710014131246300,0.591246337890625,-2.5413141293525694,0.3052656801059842,4.1089258496463295
1667710014141297400,0.60129736328125,-2.622618201598525,0.30537147856801744,4.071461503648758
1667710014151348500,0.611348388671875,-1.9766461101710795,0.29054420405328274,3.893638254368305
1667710014161398500,0.6213984375,-1.2510989622473716,0.6934227016493678,4.008479854556918
1667710014171449300,0.631449462890625,-0.8278595214068889,1.3795514468982815,4.401186209967732
1667710014181500400,0.64150048828125,-0.5577209765225648,1.7822414361849426,4.529169031280279
1667710014191551500,0.651551513671875,-0.539589107504487,1.8605664926201104,4.2853333869099615
1667710014201601500,0.6616015625,-0.5550520495742559,1.8349772933334112,4.012997039720416
1667710014211652400,0.67165234375,-0.2806494175046682,1.8743185391187667,3.830440332177281
1667710014221703200,0.681703125,0.355994289085269,2.2059821045458317,3.803677997457981
1667710014231754200,0.691754150390625,0.9388461997330189,2.3252909132763744,3.4455244845122097
1667710014241804300,0.70180419921875,1.094172955045104,2.034014303295314,2.5677485472917554
1667710014251855400,0.71185546875,0.9452116431117057,1.4920263179555535,1.4687860198825597
1667710014261906400,0.721906494140625,0.8136381038308144,0.9748188458681106,0.34392917276024815
1667710014271957500,0.73195751953125,0.888971869495511,0.8941916499704122,-0.6170879422485828
1667710014282007600,0.742007568359375,1.0720943942278622,0.9312772257834673,-1.381248021683097
1667710014292058400,0.752058349609375,1.167422900173068,0.9587225743308663,-1.944873253813386
1667710014302109400,0.762109375,1.2068325350195168,1.0575903603181243,-2.487378541025519
1667710014312160500,0.772160400390625,1.1693541604965925,1.222666356228292,-2.963814734524488
1667710014322210300,0.782210205078125,1.066990349087119,1.2464303859144448,-3.229962748467922
1667710014332261400,0.792261474609375,1.0731950489461421,1.2684484487161038,-3.2741829984664914
1667710014342312400,0.8023125,1.103736317682266,1.3327122465729713,-3.3553888710349797
1667710014352363300,0.81236328125,1.1928940260380505,1.3851014822408556,-3.231016056913137
1667710014362413300,0.822413330078125,1.1892495320558547,1.5047379154905676,-3.087537560304999
1667710014372464400,0.83246435546875,1.2192986333608626,1.7567799549311398,-2.9199247393935917
1667710014382515500,0.842515380859375,1.219160101673007,2.030493727953732,-2.752763753902912
1667710014392566500,0.85256640625,1.1098638606518507,2.13900320251137,-2.576688225072622
1667710014402616600,0.862616455078125,0.7554144629210233,2.122276524116099,-2.2568565517365933
1667710014412667400,0.87266748046875,0.162649061024189,2.056334856174886,-1.9354186122477053
1667710014422718200,0.88271826171875,-0.3770066819757223,1.8734893948182463,-1.8359832555055617
1667710014432769300,0.892769287109375,-0.616466595479846,1.5177169317901134,-1.856052230066061
1667710014442819300,0.9028193359375,-0.6335235287427902,1.0556479940786958,-1.8870850817114113
1667710014452870400,0.912870361328125,-0.6216098035871982,0.5517796037748456,-1.8435054677039384
1667710014462921500,0.92292138671875,-0.6471323673784732,0.102107206299901,-1.9161486791104076
1667710014472972300,0.93297216796875,-0.6165507666319608,-0.41588732451200483,-2.057477888730168
1667710014483022300,0.943022216796875,-0.5321884758591652,-0.9315437677651643,-2.0446967330902814
1667710014493073400,0.953073486328125,-0.5031704711675644,-1.4260738363593817,-2.0819626339063046
1667710014503124500,0.96312451171875,-0.47490240806043144,-1.8207777953281998,-2.005144182641804
1667710014513175600,0.973175537109375,-0.4521130686253309,-2.0341127952337263,-1.7039280701875685
1667710014523225300,0.983225341796875,-0.48906303535997864,-2.080002439749241,-1.1821356083974242
1667710014533276400,0.9932763671875,-0.5325754293501377,-1.943576784262061,-0.607145224905014
1667710014543327200,1.0033271484375,-0.6607108108758926,-1.7461720516771078,-0.04308773883730173
1667710014553378300,1.01337841796875,-0.878348768672347,-1.685118740299344,0.45753187880367036
1667710014563428400,1.023428466796875,-1.1263485469847916,-1.6464824279129504,0.8781982542857527
1667710014573479400,1.0334794921875,-1.29366150816679,-1.6663444817245006,1.1736994962245226
1667710014583530500,1.043530517578125,-1.3659089982539414,-1.839901305732131,1.2694208008795975
1667710014593581300,1.053581298828125,-1.4331179096519946,-2.0120856723427774,1.1700818902492522
1667710014603631600,1.063631591796875,-1.4379349545449018,-2.0962097704455256,0.8292194115832447
1667710014613682400,1.073682373046875,-1.3571394163429735,-2.1826433145344257,0.2641103706359863
1667710014623733200,1.083733154296875,-1.1984072365015745,-2.319500639437139,-0.30187516088485716
1667710014633784300,1.093784423828125,-1.1706909620583057,-2.3874457561552522,-0.5964163256198167
1667710014643834400,1.10383447265625,-1.279877312964201,-2.2367025292411444,-0.4963987850755453
1667710014653885400,1.113885498046875,-1.8482699056267737,-1.880912530556321,-0.3758358846306801
1667710014663936300,1.123936279296875,-2.6023335384607313,-1.451151578992605,-0.11830080073177814
1667710014673987300,1.1339873046875,-3.3529420624047517,-0.9266434285029769,0.3163093444287777
1667710014684037400,1.144037353515625,-4.023015744909644,-0.32243396478891373,0.5967401507467031
1667710014694088400,1.15408837890625,-4.35204779278934,0.3574529634609818,0.8992141543075441
1667710014704139500,1.164139404296875,-4.25566480935514,1.0326467654585838,1.2650748806297778
1667710014714190600,1.174190673828125,-3.8121442125082012,1.6550868823900817,1.6355270263954995
1667710014724240400,1.184240478515625,-3.179432584670186,2.070632553857565,1.9056161791801451
1667710014734291200,1.194291259765625,-2.507694183823466,2.1535013912022114,1.832640374818444
1667710014744342300,1.20434228515625,-1.8791349994897841,2.0770745696038007,1.4128250632077455
1667710014754393300,1.214393310546875,-1.3163421265304087,1.992216019746661,0.895102335074544
1667710014764443400,1.224443359375,-0.8841764519125223,1.9194757777065037,0.4527510742679238
1667710014774494500,1.234494384765625,-0.5085989259570837,1.975561822065711,0.2543503163829446
1667710014784545500,1.244545654296875,-0.268191502469778,1.9951959123402834,0.3015013591364026
1667710014794596400,1.254596435546875,-0.15512100360691547,1.9830989395722747,0.5896726965785026
1667710014804646400,1.264646484375,-0.07758475946187973,2.0543439746186136,0.9875427183628082
1667710014814697500,1.274697509765625,-0.0022387188374996185,2.069330239087343,1.44295482853353
1667710014824748500,1.28474853515625,0.06540566136837005,1.9371178173810242,1.8608456018224357
1667710014834799400,1.29479931640625,0.1716144577682018,1.7134265508949755,1.9716382188811896
1667710014844849400,1.304849365234375,0.34231355425715443,1.4952981792330742,1.6753920037940144
1667710014854900500,1.314900390625,0.5028507376939058,1.1963178630068898,1.0437211171805858
1667710014864951300,1.324951416015625,0.6817161895036697,0.8328031152889132,0.21111820063889025
1667710014875002400,1.33500244140625,1.0560276410460472,0.6320172158330678,-0.6705196727067232
1667710014885052400,1.345052490234375,1.5428239005178213,0.5767322587236762,-1.510296718661487
1667710014895103500,1.355103515625,1.9705875407844782,0.5132534737646579,-2.1396716032922267
1667710014905154600,1.365154541015625,2.360230416971445,0.4244523237615824,-2.4883517699718474
1667710014915205400,1.375205322265625,2.632583130773902,0.4274532591432333,-2.6788269955545663
1667710014925255400,1.38525537109375,2.7112434105128047,0.5501233610004186,-2.72278742557317
1667710014935306200,1.39530615234375,2.6786551461189982,0.6910439898192882,-2.5430714944139123
1667710014945357300,1.405357421875,2.43957692540884,0.7718275453224778,-2.2114634585663673
1667710014955408400,1.415408447265625,2.087064633220434,0.8146423124372959,-1.9759023060664533
1667710014965458400,1.42545849609375,1.9295207863807677,0.8276172370836138,-1.7153788540065287
1667710014975509500,1.435509521484375,2.007636291718483,0.8146838134914636,-1.5211013135313987
1667710014985560300,1.445560302734375,2.268289799898863,0.8345783082678914,-1.5330726140931248
1667710014995611400,1.455611328125,2.6653853301793333,0.8652081320703029,-1.6614003033205866
1667710015005661400,1.465661376953125,3.1022201656520365,0.836514829288423,-1.8606264061138034
1667710015015712500,1.47571240234375,3.47594241912961,0.7318202368438244,-2.2565648753136394
1667710015025763600,1.485763671875,3.9397453410267826,0.5557482151448726,-2.7742905260562893
1667710015035814400,1.495814453125,4.477846840322018,0.373472954891622,-3.375430957588553
1667710015045864400,1.505864501953125,5.056224235904216,0.38340895023345944,-3.8355908468082545
1667710015055915300,1.515915283203125,5.600874718451499,0.5456710577666759,-4.018293392562866
1667710015065966300,1.52596630859375,5.998524960005283,0.8101572759777307,-4.414539612537622
1667710015076017400,1.536017333984375,6.102475163823366,1.2865563523367047,-5.126805838605761
1667710015086068500,1.546068359375,6.2065305815815925,2.102523483636975,-5.871905243739485
1667710015096118500,1.556118408203125,7.350427060216665,3.9548277593463657,-6.613349633496999
1667710015106169300,1.56616943359375,7.776412584894895,4.320325205314159,-6.370397201701999
1667710015116220400,1.576220458984375,7.33055390048921,3.875741070888936,-5.795101990044117
1667710015126271500,1.586271484375,7.508835414931178,3.5001886793747543,-5.648944045093655
1667710015136321300,1.5963212890625,7.757811929321289,3.584922141547501,-5.562911775282025
1667710015146372400,1.606372314453125,7.997457136264443,3.740924311903119,-5.3131923335701225
1667710015156423400,1.61642333984375,8.46283768274188,4.083154571790993,-4.635107194045186
1667710015166473500,1.626473388671875,8.29774824282825,4.0736014382869,-3.403600236496329
1667710015176524300,1.636524169921875,7.2589108060359955,4.151145281216502,-2.0755174032896755
1667710015186575400,1.646575439453125,6.192175893014669,5.225155153676867,-0.800999571532011
1667710015196626400,1.65662646484375,5.276197943171859,6.536594310596585,0.28407296221256256
1667710015206677500,1.666677490234375,4.752385081470012,7.3763295632362365,2.159783247950673
1667710015216727600,1.6767275390625,4.012700102600455,7.246670917665958,4.182030248823762
1667710015226778600,1.686778564453125,4.421059954217076,7.452030993169545,3.848797826644778
1667710015236829200,1.6968291015625,6.121598381966352,7.745098578220605,3.2006869696229696
1667710015246880300,1.70688037109375,6.5833227440238,7.386801857411861,3.6828619990348814
1667710015256930300,1.716930419921875,6.521843900710344,7.099134670099616,4.003070688989758
1667710015266981400,1.7269814453125,6.463604477709532,7.428453133705258,4.218825317257642
1667710015277032400,1.737032470703125,6.156994689518213,7.817187078353762,4.812169395825267
1667710015287083300,1.747083251953125,5.667272897988558,7.864457948094606,6.426205013641715
1667710015297133600,1.757133544921875,4.193561112141609,8.05348998913169,8.279101410025358
1667710015307184400,1.767184326171875,2.6033874314278362,8.708369609636067,10.03456911331415
1667710015317235500,1.7772353515625,1.0779562719985842,10.004634578299521,11.080666896498203
1667710015327286500,1.78728662109375,-1.4515344408303499,11.783607075816391,11.08572651797533
1667710015337336300,1.79733642578125,-2.461955345955491,12.19687924939394,11.125630658340453
1667710015347387400,1.807387451171875,-2.2129662643447516,11.923109070008993,11.71704990632534
1667710015357438200,1.817438232421875,-2.279464689385891,11.106404564344881,11.726049205338954
1667710015367489300,1.8274892578125,-2.2335788442626594,9.889514161169528,11.335887858235836
1667710015377539300,1.837539306640625,-1.5772794200882314,8.364286707618833,10.749462765276432
1667710015387590400,1.84759033203125,-0.34517741925567386,6.638225131556391,10.20126657294631
1667710015397641500,1.857641357421875,0.6772025114715099,5.111505978143215,10.029288542562723
1667710015407692500,1.867692626953125,0.7441501415848731,3.7114053719520568,10.15075920550227
1667710015417742600,1.87774267578125,0.23085107511281966,2.173618296557665,10.32428154271841
1667710015427793400,1.88779345703125,-0.18262831147462127,0.40368659910857674,10.001978510832785
1667710015437844500,1.897844482421875,-0.2810655970901251,-1.345307524251938,9.26108006452024
1667710015447895300,1.907895263671875,-0.14084697906076907,-2.777770184865594,8.688766499021648
1667710015457945300,1.9179453125,0.551961682343483,-4.040212963426113,8.398649580469726
1667710015467996400,1.927996337890625,1.428120832017064,-5.315792871457338,8.171129111084342
1667710015478047500,1.938047607421875,1.8001792439356445,-6.284377206850052,8.014419961503148
1667710015488098300,1.948098388671875,2.0131316742643715,-7.063115262213349,7.763301174387335
1667710015498148400,1.9581484375,2.3793757008157668,-7.198554244750738,7.879917967554927
1667710015508199400,1.968199462890625,2.590862880897522,-6.862814808186888,7.75603790538609
1667710015518250500,1.97825048828125,2.6868472204029556,-6.367901877754926,7.902576958608627
1667710015528301600,1.988301513671875,2.3353540421292185,-5.5662844665855165,8.53889099485278
1667710015538351400,1.998351318359375,2.1465958495974538,-4.92902350488007,9.267595730024576
1667710015548402400,2.00840234375,2.5300936471581457,-4.273901307791471,10.186106413215398
1667710015558453200,2.018453369140625,2.6438182260155676,-4.079562977039814,11.713028395724296
1667710015568504300,2.02850439453125,2.6697195599913597,-4.159285333052277,12.749839295125007
1667710015578554400,2.038554443359375,3.426654948869347,-3.6949890746802088,12.795605020999908
1667710015588605400,2.04860546875,7.534560807818174,-3.2608898016512393,9.720436528402566
1667710015598656500,2.058656494140625,11.329976003843544,-3.979128087866306,5.330927312225103
1667710015608707300,2.068707275390625,8.10294697073996,-4.836379123452305,3.634993747922778
1667710015618757400,2.07875732421875,6.506272237569093,-3.7738095134168863,2.9225860675573347
1667710015628808400,2.088808349609375,7.0331211059659715,-2.3800842874765396,3.393531262424588
1667710015638859500,2.098859619140625,9.95648283407092,-3.0430361552774903,-1.925191817265749
1667710015648910300,2.108910400390625,8.066083513244987,-3.603585048702359,-0.8791811278432607
1667710015658960400,2.11896044921875,6.575529898190498,-3.7415012350082395,-4.404028739917278
1667710015669011500,2.129011474609375,3.2462358378767964,-1.2564461684942245,-3.698713648161292
1667710015679062300,2.139062255859375,0.2864921521835029,2.2911866913616654,-2.5439251886337995
1667710015689113300,2.14911328125,-0.41524201234579083,3.15331497759521,-4.094077824604511
1667710015699163400,2.159163330078125,-0.727741296967119,3.420379521861672,-4.558861574232578
1667710015709214500,2.16921435546875,0.38173210306242106,1.5635393562883138,-6.358411580353975
1667710015719265500,2.179265625,1.1675783829957247,-0.3566296643793583,-4.109977989047765
1667710015729316400,2.18931640625,-0.022059856116771696,-0.3621498891055584,1.5786498316586017
1667710015739367400,2.199367431640625,-0.7409200005572288,-0.8189981695592403,4.404071994537115
1667710015749417200,2.209417236328125,-0.7128045707285404,-1.3298463357478378,4.187303220790624
1667710015759468300,2.21946826171875,-0.23127361137382685,-1.0838917995274067,3.6767145823210474
1667710015769519400,2.229519287109375,1.5102011493325234,-1.471469559878111,4.378300424420833
1667710015779570400,2.2395703125,3.3576603230983015,-1.695225123772025,5.317193385905027
1667710015789620500,2.249620361328125,4.067134288099408,0.19870120213627815,4.150187834361195
1667710015799671300,2.25967138671875,-0.6435106697499752,6.668380031323433,3.4273224728673695
1667710015809722400,2.269722412109375,-2.1139514711022374,10.103391889649629,2.157753787949681
1667710015819773400,2.2797734375,1.1174264048606157,8.910780772206186,-0.16417524767816066
1667710015829823500,2.289823486328125,1.0345850400447845,6.628502194443345,-0.35435762779414653
1667710015839874600,2.29987451171875,-1.5867039587765932,2.720347923466563,0.40762510760128495
1667710015849925400,2.30992529296875,-1.5965841322779655,0.2855003646671772,1.0631932948917149
1667710015859976200,2.31997607421875,-1.5109300481289625,-0.4756020807623863,2.1162474730849263
1667710015870026200,2.330026123046875,-2.506497082993388,-0.42167642930746074,1.3901666566759348
1667710015880077300,2.340077392578125,-4.717732870283722,-0.034572131687402724,-1.3879314449697733
1667710015890128400,2.35012841796875,-6.743277159136533,1.16176823541224,-1.4467939683049917
1667710015900179500,2.360179443359375,-8.389126549842953,1.9810230100810526,-1.0533604676634072
1667710015910229500,2.3702294921875,-6.976972517764568,1.1263169828027486,-2.212943760251999
1667710015920280600,2.380280517578125,-5.424309360277652,-0.7839818012356757,-3.6707127115577456
1667710015930331400,2.390331298828125,-3.6275977924525735,-1.7501590754866598,-4.106424680480361
1667710015940382500,2.400382568359375,-0.9511468053143471,-2.8821424134880305,-3.91860143071115
1667710015950432300,2.410432373046875,1.8859896876901387,-3.7896179079234598,-3.676062840414047
1667710015960483300,2.4204833984375,1.988309075435996,-2.955126401156187,-2.451592941895127
1667710015970534400,2.430534423828125,1.1451030048806219,-2.593576816031337,-1.6790432197779417
1667710015980585200,2.440585205078125,0.45829329163022337,-3.6673411892980337,-2.0006150147795676
1667710015990635500,2.450635498046875,1.1028794816572218,-3.886375569888949,-2.097466200247407
1667710016000686300,2.460686279296875,1.4147703520566224,-4.479667041486501,-2.115358999812603
1667710016010737400,2.4707373046875,1.6089420940697192,-5.420287849676609,-2.759417951095104
1667710016020788500,2.48078857421875,1.4922095655679701,-6.200867148992419,-3.799123987415433
1667710016030838500,2.490838623046875,1.378107531700283,-4.913938163951039,-4.168776799497008
1667710016040889600,2.5008896484375,0.5606530844517051,-1.1656927153795957,-4.832587329953909
1667710016050940400,2.5109404296875,-0.6645803457856178,0.5964496433675289,-4.464887990027666
1667710016060991200,2.5209912109375,-1.9006813531264661,-0.3403980760246515,-4.24451154717803
1667710016071041300,2.531041259765625,-1.9717050005070864,-0.5788695630133152,-3.6940462408721446
1667710016081092400,2.54109228515625,-0.7431693138539791,-0.45630233700871464,-2.9730922659575936
1667710016091143400,2.551143310546875,0.07169657820612192,-1.2746481801390648,-2.8141654403269287
1667710016101194500,2.561194580078125,0.9487282729305326,-3.1501503760844467,-2.7476486028462648
1667710016111244500,2.57124462890625,2.0899340511769053,-6.102300976300239,-2.5441075594633817
1667710016121295400,2.58129541015625,2.2593770101249215,-7.185688917958736,-0.8223726144284009
1667710016131346400,2.591346435546875,2.3112562504440546,-6.464773521488905,0.6769535051465034
1667710016141397500,2.6013974609375,0.7169302723564207,-5.167560458320379,1.1793091527998447
1667710016151448600,2.611448486328125,0.7010156409963965,-2.2238059305280444,1.5799077227652072
1667710016161498400,2.621498291015625,-1.3041472463458776,1.1727671838104725,1.0348837307304144
1667710016171549400,2.631549560546875,-1.6110351208262144,2.7715532100468874,1.3771493541926145
1667710016181600300,2.641600341796875,-4.142873711955547,2.1361375839471815,1.7139584658145903
1667710016191650300,2.651650390625,-1.9703139845401048,4.68560287105143,1.7852385721743105
1667710016201701400,2.661701416015625,0.1364464060142636,3.255645471256971,1.5006103141665459
1667710016211752400,2.67175244140625,2.499234690774977,0.99570790463984,1.1435837594240903
1667710016221803500,2.681803466796875,4.1028094125926495,-1.4269190550118684,1.493258197838068
1667710016231854300,2.691854248046875,3.92744173977077,-3.5399873135387896,1.7903484625339507
1667710016241904400,2.701904296875,3.280319309264421,-4.349967479383945,1.8019114745557308
1667710016251955500,2.71195556640625,3.1045120759814977,-3.777463359749317,1.716021828085184
1667710016262006300,2.72200634765625,2.963403523375094,-2.35356277577579,0.775784758515656
1667710016272056300,2.732056396484375,2.3368586014732715,-0.9917021761298179,-0.008402794425189495
1667710016282107400,2.742107421875,1.9685650950461624,0.1404711314857006,-0.8140919850781559
1667710016292158500,2.752158447265625,0.6998629638299345,1.1197598162442446,-1.7881848547592758
1667710016302209300,2.762209228515625,-1.5200608645677565,1.2461737808048725,-1.109600241279602
1667710016312260400,2.77226025390625,-2.8552152435958384,0.013882394880056381,-0.9977774043902754
1667710016322310100,2.78231005859375,-3.0748437906876203,-1.857711687710881,-1.170168107227981
1667710016332361200,2.792361328125,-3.103613958097994,-3.1660189763456583,0.7837754650086164
1667710016342412300,2.802412353515625,-2.500890933549404,-3.219669317990541,4.171394288519025
1667710016352463400,2.81246337890625,-1.721633822748065,-1.7578864548683166,7.752231498840451
1667710016362513400,2.822513427734375,-0.8965291530072689,-0.0817161601781845,11.168540410262345
1667710016372564200,2.832564208984375,-0.30996815870851274,1.5268740517139434,14.077480229783058
1667710016382615300,2.842615234375,1.147898115491867,3.1192788524806496,14.774963312739134
1667710016392665300,2.852665283203125,2.6180326273739336,4.664502215355634,12.317316477632522
1667710016402716400,2.86271630859375,2.8001754934191703,6.067454119324684,9.296909502792358
1667710016412767500,2.872767578125,0.901256766051054,3.967919296109676,3.92307711482048
1667710016422818300,2.882818359375,-1.731087295269966,-2.546121237373352,-1.217310089892149
1667710016432869000,2.892869140625,-3.4945319687873124,-6.732649382138252,-2.599889067918062
1667710016442919200,2.902919189453125,-3.2901661650180816,-5.065732068961858,-1.381546127846837
1667710016452970200,2.91297021484375,-2.7904022874236105,-3.2940643415004014,0.14880699815452098
1667710016463021300,2.923021240234375,-2.0802678126871585,-0.04285656042993068,1.3428513632714747
1667710016473072400,2.933072265625,-0.8700701851487159,0.8694289646357297,2.0114134721696377
1667710016483122400,2.943122314453125,0.3957119669675827,2.131015418627858,2.2694109128832816
1667710016493173200,2.95317333984375,2.9288416208207604,4.461043589559197,1.9392653508037327
1667710016503224300,2.963224365234375,4.399071994292735,6.841395588061213,2.3009634044885634
1667710016513275400,2.973275390625,2.704140885031223,7.25586193985939,2.4195684488639233
1667710016523325200,2.9833251953125,1.4148562767744064,7.042195223781466,2.6236767707407473
1667710016533376300,2.993376220703125,0.036314153049141165,9.169326494452356,3.2181875550001857
1667710016543427300,3.00342724609375,0.05986293254941701,10.846894380980729,3.500046932816505
1667710016553478100,3.01347802734375,-0.8513258833207189,11.654082870280742,3.2639167482569813
1667710016563528200,3.023528076171875,-1.815958120086789,9.864571443092823,3.103351507769525
1667710016573579300,3.033579345703125,-2.2732637889191505,5.223608508756756,3.8175603923380375
1667710016583630300,3.04363037109375,-3.343306511314213,2.689948693549633,3.0652316204726695
1667710016593681400,3.053681396484375,-4.256076020504534,2.342957210609317,0.7194102526038885
1667710016603731500,3.0637314453125,-4.804342647722363,1.0686100592434407,-1.1723416518747807
1667710016613782500,3.073782470703125,-4.2897795526638625,-0.36687341049611566,-2.882936778736114
1667710016623833300,3.083833251953125,-4.163537437538802,-1.2898708837121724,-4.571663772660494
1667710016633884400,3.093884521484375,-3.8822845011830327,-2.127829774329066,-5.559994426530599
1667710016643934200,3.103934326171875,-3.275376299904287,-2.8865228205293416,-6.05082622512877
1667710016653985300,3.1139853515625,-3.000629968963563,-3.5733389635205266,-5.792808910670876
1667710016664036400,3.124036376953125,-3.4306291131973263,-4.172672637891769,-5.36157554846704
1667710016674087200,3.134087158203125,-4.36781731659025,-4.573963866296411,-5.2010278436362745
1667710016684137500,3.144137451171875,-5.330489505329727,-4.810851883485913,-4.934183664122224
1667710016694188300,3.154188232421875,-5.878600357463956,-5.1768596170634025,-4.433965613019466
1667710016704239400,3.1642392578125,-6.0096349675625556,-5.552596717494726,-4.398969702962041
1667710016714290400,3.17429052734375,-6.20677724981904,-5.819723221081495,-5.021876560622453
1667710016724340200,3.18434033203125,-6.247120366123318,-5.351753827154636,-5.306041877293587
1667710016734391300,3.194391357421875,-6.09754355264008,-5.118943434667587,-4.788967968457937
1667710016744442000,3.204442138671875,-6.05073328614831,-5.582137869277596,-3.9724221604868766
1667710016754493200,3.2144931640625,-6.07562924247384,-6.004650164887309,-3.6511385347768663
1667710016764543200,3.224543212890625,-5.659083746314049,-5.8154784231185905,-3.6666716194733975
1667710016774594300,3.23459423828125,-4.5687133984223,-5.239616809749603,-3.6143896435722707
1667710016784645400,3.244645263671875,-2.8847420745924115,-4.616715212786198,-3.5344904696881767
1667710016794696400,3.254696533203125,-0.8385998188689351,-3.5814088727295394,-3.6568750326022506
1667710016804746500,3.26474658203125,1.509882584902644,-1.6363696146994828,-3.874055017498135
1667710016814797300,3.27479736328125,5.695626301291584,2.178285703846812,-2.532735686099529
1667710016824848400,3.284848388671875,11.038188521730898,7.111758589351177,2.6092098539710045
1667710016834899500,3.2948994140625,17.47614651700854,10.774522387731075,9.195796568226815
1667710016844949200,3.30494921875,21.68106722755432,15.11975056363344,12.0404787273705
1667710016855000300,3.315000244140625,13.704372893333435,14.848890134215354,8.817275390034913
1667710016865051400,3.325051513671875,7.306491472378373,9.941358914697169,3.726845517668128
1667710016875101400,3.335101318359375,4.032480615608394,2.7720769416600466,-1.5394938793122768
1667710016885152300,3.34515234375,2.4382933153390884,-4.281777155733108,-5.371849105200171
1667710016895203300,3.355203369140625,0.8884434617072343,-6.747687376794219,-6.991617129188776
1667710016905254400,3.36525439453125,-0.390056717684865,-7.638780476227402,-4.516365079286694
1667710016915305500,3.375305419921875,-0.7018532608643174,-6.549237519070505,-2.02238407125622
1667710016925355300,3.385355224609375,-0.1349941613793373,-4.76365407898128,-1.694324375540018
1667710016935406300,3.39540625,-0.8392267185956239,-1.9060820431262253,-0.1475993759304285
1667710016945457200,3.40545703125,-4.4654783571362495,1.4019091169178486,3.5467613377183675
1667710016955508200,3.41550830078125,-7.839622782045602,4.45837174000144,3.9380680554643273
1667710016965558300,3.425558349609375,-7.738807369121909,5.981962532261013,2.7769460090011355
1667710016975609300,3.435609375,-2.8401509454548357,-0.9276134425789118,2.6922300824850796
1667710016985660400,3.445660400390625,6.399629725927114,-0.4635281966090202,1.396566879107058
1667710016995710500,3.45571044921875,13.225795596152544,5.580510560336709,0.4910664841368794
1667710017005761300,3.46576123046875,1.4862316602021455,3.55671574549973,-2.028857651184499
1667710017015812400,3.475812255859375,-9.742172559392452,-1.2793477361321448,-3.7345395793020724
1667710017025863400,3.485863525390625,-8.886270015805959,-1.2580407442092896,-6.209273158288002
1667710017035913200,3.495913330078125,-6.034764148122072,-2.7947961384683846,-6.9640557530462734
1667710017045964300,3.50596435546875,-6.936918155273795,-4.0172926910877225,-6.175304837712646
1667710017056015400,3.516015380859375,-8.03778388595581,-2.619958627000451,-5.300639141467213
1667710017066066200,3.526066162109375,-8.17161835590601,-1.8872230288773775,-4.07737774195522
1667710017076116200,3.5361162109375,-8.05501792935133,0.3042828065484762,-3.334450420163572
1667710017086167300,3.546167236328125,-7.493168474721908,1.5062749157994986,-2.5691975770562885
1667710017096218400,3.55621826171875,-7.642234416073561,3.82891297647953,-1.6534242098748684
1667710017106269400,3.56626953125,-8.817977985346317,6.265065188136696,0.1301300624743104
1667710017116320300,3.5763203125,-8.96454334205389,7.698423920807242,2.5983891847491263
1667710017126370300,3.586370361328125,-8.419006724321841,10.816095922613144,6.5382058374464505
1667710017136421000,3.596421142578125,-5.665203690499067,12.344496745502948,9.556696749532222
1667710017146472200,3.60647216796875,-1.3625158486843107,8.63214152548015,11.110760421466827
1667710017156522200,3.616522216796875,2.238411232855171,2.7334336150109766,8.112296398365498
1667710017166573300,3.6265732421875,2.7043969056189057,-4.873374098372459,3.854333833462
1667710017176624400,3.636624267578125,2.2875240772008896,-2.087199073255062,1.9660691865772009
1667710017186675200,3.64667529296875,1.4745897377252577,-0.2903787843585014,-0.47432402365058657
1667710017196725200,3.656725341796875,0.8901227930963039,-1.748911121252179,-3.6229245399445293
1667710017206776300,3.6667763671875,1.215402283509448,-2.1223580649197102,-6.503131016933918
1667710017216827400,3.676827392578125,2.0880723489582538,-1.270809624889493,-8.251974918168782
1667710017226878500,3.68687841796875,2.594683900490403,-1.0563239936441182,-7.828672348964214
1667710017236928300,3.69692822265625,3.1180384970307347,-2.258226086524129,-5.399172580933571
1667710017246979300,3.706979248046875,3.617089257919788,-3.0694805100888014,-3.445352050554752
1667710017257030100,3.717030029296875,3.332608883950114,-2.9370810413777826,-2.114190394424647
1667710017267081200,3.727081298828125,2.310755315184593,-2.373805937859416,-1.142984039965272
1667710017277131000,3.737131103515625,1.0253905107200145,-1.594458810687065,-0.21741291686892508
1667710017287182000,3.74718212890625,0.09855097512304782,-1.761365529155731,0.4256199062362313
1667710017297233200,3.757233154296875,-0.4795335749924183,-1.9745652122437953,0.7183850012093782
1667710017307284200,3.7672841796875,-0.3862355519615113,-2.1860522461950778,0.8823024016689509
1667710017317334300,3.777334228515625,0.7648971615374088,-1.8851731106102465,0.8738497036874294
1667710017327385000,3.787385009765625,3.10510419665575,-1.8021388535708187,1.6198030953019857
1667710017337436200,3.797436279296875,5.306005636936426,-1.741734946012497,2.807396676844358
1667710017347487200,3.8074873046875,5.74619621257782,-0.8429764265179633,3.980043449145555
1667710017357537000,3.817537109375,4.361815738087892,0.880286458736658,5.050744927710294
1667710017367588000,3.827588134765625,1.7452487993523478,2.995835428163409,5.935708730608225
1667710017377639200,3.83763916015625,-0.06247311504781246,3.7703707711398597,6.050805766862631
1667710017387690000,3.84768994140625,0.7926751030400395,3.2459710494607683,5.294137504488229
1667710017397740000,3.857739990234375,3.200789260953665,2.651523978087306,4.889902916108071
1667710017407791000,3.867791015625,5.4855263377845285,2.935869912022352,4.6146620796486735
1667710017417842200,3.87784228515625,7.105230648887157,3.5808944934666154,3.951066653247177
1667710017427893200,3.887893310546875,7.040128354379534,3.589552431696653,2.518164432172477
1667710017437943300,3.897943359375,5.827974332076311,3.3505805939704176,0.8507216338172554
1667710017447994000,3.907994140625,5.09478631401062,3.488890748029947,-0.2534554316361435
1667710017458045200,3.918045166015625,5.278896680736541,3.8103240113437176,-0.595296966201067
1667710017468096300,3.92809619140625,5.662726486730575,3.8375989717602725,-0.10694529398083687
1667710017478146000,3.93814599609375,5.772780852642655,3.574147941815853,1.2344926953613757
1667710017488197000,3.948197021484375,5.74041412204504,3.792883047199249,3.2769410650029775
1667710017498248200,3.958248291015625,5.845276764532923,4.417477419555187,5.280756629389524
1667710017508299000,3.968299072265625,6.134213533389568,4.984287711462378,6.466689584243297
1667710017518349000,3.97834912109375,5.766979472887516,6.747654643568397,6.9822986812233925
1667710017528400100,3.988400146484375,4.177332446396351,8.106971988472342,7.150588378483056
1667710017538451200,3.998451171875,1.9190169280230998,7.2900588084936135,6.4335594680577515
1667710017548502300,4.008502197265625,1.2222804256506263,5.214356111764907,4.277719989296794
1667710017558552300,4.01855224609375,2.2195804217875,3.313869696688652,2.3525211577683685
1667710017568603100,4.02860302734375,2.5069115090131757,2.5615064380317927,0.945284854478389
1667710017578654000,4.038654052734375,-0.037378421279788014,3.7092344576537606,0.2597740949973464
1667710017588705000,4.048705078125,-3.340503436592221,5.793299909058213,0.23281156153082846
1667710017598755000,4.058755126953125,-5.397888386341929,7.329774148288369,-0.20650456936359404
1667710017608806100,4.06880615234375,-6.338422100770473,7.170770165768265,0.2651978736117482
1667710017618857200,4.078857177734375,-5.587205089539289,6.229333365020156,0.8426492403902113
1667710017628908000,4.088907958984375,-4.045335713267326,5.8347822585254905,1.16358639075011
1667710017638958300,4.098958251953125,-2.228012734568119,6.839438608774542,1.5885447643376887
1667710017649009200,4.109009033203125,0.33875966116786,7.614067475253343,1.6345333391830323
1667710017659060200,4.119060302734375,1.186868043746799,7.037416172811389,1.614273664356023
1667710017669111300,4.129111328125,0.7896646691776812,6.323002413320541,1.2505122484005986
1667710017679161000,4.1391611328125,-0.005298106408119201,5.7364177458852526,0.5298278842076659
1667710017689212200,4.149212158203125,-1.216167787989229,4.891773678416014,-0.674636898767203
1667710017699263000,4.159262939453125,-2.5564275273323056,3.620030572068691,-1.5611884092479944
1667710017709314000,4.16931396484375,-4.126479041993618,2.5611294214129448,-1.8229636149346828
1667710017719364000,4.179364013671875,-5.500153413552045,1.6376666687726973,-1.7311976237766444
1667710017729415200,4.189415283203125,-6.486718811315297,1.0414636936426163,-1.7014361072413622
1667710017739466200,4.19946630859375,-6.495968285697698,0.7405529938757419,-1.8361214949324727
1667710017749517300,4.209517333984375,-5.905360354095697,-0.36057752522230146,-1.3656912638500331
1667710017759567400,4.2195673828125,-4.927055419677496,-2.2723352758973836,-0.6562547082498669
1667710017769618000,4.229617919921875,-4.9098605392485855,-4.502636413663626,-0.06129186937399208
1667710017779669000,4.2396689453125,-6.877622501218319,-6.285524623319506,0.24812338642580434
1667710017789720000,4.249719970703125,-8.733684083634614,-7.849277914619445,0.2067062294155359
1667710017799770000,4.25977001953125,-9.712605688646436,-8.659248728114367,0.054598764943517744
1667710017809821200,4.2698212890625,-9.210173468625545,-9.12814225114882,0.1441726163521409
1667710017819872300,4.279872314453125,-7.493821385672688,-10.168069236743449,0.5092408771224319
1667710017829923000,4.289923095703125,-6.478562392866611,-11.371793868875503,0.7270647128798067
1667710017839973000,4.29997314453125,-6.568247339966893,-12.308854938757419,0.26933058950230476
1667710017850024200,4.310024169921875,-7.276230189627409,-11.940018119233846,-0.9705750708185136
1667710017860075300,4.3200751953125,-7.850020257419347,-9.799559749478101,-1.6401593623712658
1667710017870126300,4.330126220703125,-7.331495565253496,-8.56679314725697,-0.9848597628891468
1667710017880176000,4.340176025390625,-6.176272221440076,-8.235237718379498,-0.7236001055091619
1667710017890227200,4.350227294921875,-4.821320670530199,-8.095119638115166,-0.9984107338577508
1667710017900278000,4.360278076171875,-2.8159488166123627,-7.848736062827706,-2.3277524810843166
1667710017910329000,4.3703291015625,0.45002486417442555,-7.167849894407391,-3.7680572335004805
1667710017920379100,4.380379150390625,5.761351696133613,-4.85537550034523,-2.6701222955733535
1667710017930430200,4.39043017578125,14.655738382899761,-0.011891513323783874,0.6502164509989321
1667710017940481300,4.400481201171875,23.95113046686649,9.212790373125673,1.7372516631186008
1667710017950532000,4.410531982421875,18.230590089070795,17.707281669759748,-4.622634665963053
1667710017960582100,4.42058203125,7.78477709313631,17.58048016718626,-3.9067023186028003
1667710017970633000,4.430633056640625,3.4020173512190577,11.620934633916615,-0.9177478090595453
1667710017980684000,4.44068408203125,1.9629741431713104,3.3164287335216995,-0.6992377446036785
1667710017990735000,4.450735107421875,0.7719879965811968,-2.2125988923370836,-1.3434323780298232
1667710018000785200,4.46078515625,-0.28667145427316426,-5.7626733001261945,-1.6355159204795955
1667710018010836200,4.470836181640625,-0.6286661518394947,-8.37445388136804,-2.5308292679563165
1667710018020887000,4.480886962890625,3.621787060347199,-9.892510420376063,-3.1331025029107926
1667710018030938000,4.490938232421875,9.762799167835713,-8.103075565555692,-1.6583407696194945
1667710018040988200,4.50098828125,-1.6897744571506976,-3.9734336756169792,-0.3067509502276778
1667710018051039200,4.511039306640625,-18.829999751287698,-0.23874270514547824,-0.2206608858142048
1667710018061090300,4.52109033203125,-16.75055260733366,2.419709026378393,-3.2412469435483215
1667710018071140000,4.53114013671875,-8.647706758880615,1.8181623521327972,-6.840789438861608
1667710018081191200,4.541191162109375,-0.67755673173666,-1.1391279490590094,-7.663532640168071
1667710018091242000,4.551241943359375,3.2838089049458503,-3.6093028418272732,-5.097282807001471
1667710018101293000,4.56129296875,-2.6487778942495583,-3.946100847533345,-0.6936942851323634
1667710018111343000,4.571343017578125,-9.017567660754919,-2.7425948265880344,2.856258030647039
1667710018121394200,4.581394287109375,-11.815078903400897,-0.9877718509435653,3.2476006964892146
1667710018131445200,4.5914453125,-12.179589091897011,1.385731304576993,1.8157620129927992
1667710018141496000,4.60149609375,-9.454041846221685,3.9770121186256406,-0.25112841346068304
1667710018151546000,4.611546142578125,-5.612445913779736,6.565281475898623,-1.925907856580615
1667710018161597200,4.62159716796875,-2.1769019944034516,9.365888930994272,-1.762865412324667
1667710018171648300,4.631648193359375,-2.258892003086954,11.065997735154628,-0.49688130789548157
1667710018181699000,4.641698974609375,-4.059974479472637,11.00351585227847,0.33093642019629477
1667710018191749000,4.6517490234375,-4.880126495242118,9.906736514127253,0.6710527566701173
1667710018201800200,4.66180029296875,-4.11245051664114,8.819820398342609,1.52961282902807
1667710018211851000,4.67185107421875,-2.4458196191906927,7.86226949813962,3.5277623304769397
1667710018221902000,4.681902099609375,-0.015368240390485151,7.642305143222212,5.482738168370723
1667710018231952100,4.6919521484375,2.9410294867426154,8.13010268869102,8.014923819372058
1667710018242003200,4.702003173828125,4.881148239505291,8.453525664517283,10.179256985712051
1667710018252054300,4.71205419921875,5.246995814085007,7.527339624392986,10.409039554810523
1667710018262105300,4.722105224609375,5.920719251269102,5.323722495412826,8.451375208485127
1667710018272155400,4.7321552734375,7.618562448585033,3.2377076635062694,5.887595564824342
1667710018282206200,4.742206298828125,9.457880985993146,1.4992343496382237,3.0625796446591615
1667710018292257300,4.75225732421875,10.165502016603947,0.3351175052732229,0.6745721629679202
1667710018302308400,4.762308349609375,9.978687651616335,-0.2387444587111473,-1.3710653581038117
1667710018312358400,4.7723583984375,10.596261916077136,-0.28615152205228805,-2.3824115613803265
1667710018322409500,4.782409423828125,11.507192519402503,-0.11746493442952632,-1.2730106420651077
1667710018332460300,4.792460205078125,11.546918965113163,-0.45083062759935855,1.1956234510019421
1667710018342511400,4.802511474609375,11.410631841313839,-1.3595067299962043,2.8668472292006015
1667710018352561200,4.81256103515625,12.03805529961586,-2.8795418756008146,3.7561882242694495
1667710018362612200,4.8226123046875,13.17440209352374,-4.194277735978365,5.007366389232874
1667710018372663300,4.832663330078125,13.088207326626776,-5.188011125674843,6.417316189265251
1667710018382714400,4.84271435546875,10.759455751502513,-6.446055377015471,7.176534136122465
1667710018392764400,4.852764404296875,7.977453043633699,-8.2523706394881,7.388339734503626
1667710018402815200,4.862815185546875,7.326144267353415,-10.226935267210006,7.13424397740364
1667710018412866300,4.8728662109375,7.9529937251597635,-11.161170758277176,4.922465753799677
1667710018422917400,4.88291748046875,8.543409349060058,-10.55226027726531,1.170880274085328
1667710018432967400,4.892967529296875,8.19470697054863,-6.703208183598518,-3.8796795793816443
1667710018443018200,4.903018310546875,7.941118578448891,-3.9068040254116054,-6.631968993771076
1667710018453069300,4.9130693359375,6.768459531188011,-3.23259601958096,-8.226156001779437
1667710018463120100,4.9231201171875,2.329189528150111,-2.397254617986083,-9.101505004113912
1667710018473170200,4.933170166015625,-2.3076041576772925,0.7117705515056848,-7.202977906411886
1667710018483221200,4.94322119140625,-2.3628011442422867,5.636100345611572,-5.029653624364734
1667710018493272300,4.953272216796875,-2.6981033584326504,11.015546481811999,-4.5903135280728335
1667710018503323400,4.963323486328125,-2.4492180294573305,17.080055779856444,-4.297172877785563
1667710018513373400,4.97337353515625,1.5578817689180373,23.369769671559332,-4.97563094227612
1667710018523424500,4.983424560546875,6.279578282135724,28.091151712000368,-4.989741300693154
1667710018533475300,4.993475341796875,6.986564521974325,21.586638885319232,-2.801578345954418
1667710018543526400,5.0035263671875,2.368481527966261,15.07956117658615,-2.570582309412956
1667710018553576200,5.013576171875,-2.5473802975237367,15.067144762605428,-0.9522110004797577
1667710018563627300,5.023627197265625,-7.070583698397875,15.768115103155374,0.5472782007023692
1667710018573678300,5.03367822265625,-8.547014680075645,15.068677379000187,2.8947394447326658
1667710018583729200,5.043729248046875,-6.553478225380182,13.026852401953935,6.500279719156026
1667710018593779200,5.053779296875,-4.3061163549587125,10.706212821614741,10.11915059979558
1667710018603830300,5.063830322265625,-3.7533681984126566,8.238107720857858,11.594178728938102
1667710018613881300,5.07388134765625,-4.524552185134589,5.104679931515455,8.25076788046658
1667710018623932400,5.083932373046875,-6.113904904854297,2.1429431723088026,6.149515147417783
1667710018633982500,5.093982421875,-6.660345777949691,0.21195172885358332,4.910912094128132
1667710018644033500,5.104033447265625,-6.629893356540799,-1.0438719238281249,2.4119519825108346
1667710018654084000,5.114083984375,-7.2449337186098095,-2.5687498332887886,-0.8218257942005991
1667710018664135200,5.12413525390625,-9.009270957052706,-4.830283729186654,-3.229244663326442
1667710018674185200,5.134185302734375,-10.430032073956728,-7.363911980211735,-4.340656630203128
1667710018684236300,5.144236328125,-10.729806463170052,-10.412843623268603,-5.415378450325131
1667710018694287400,5.154287353515625,-10.917891578745841,-13.403814075744151,-6.691040191420912
1667710018704338400,5.16433837890625,-10.840908876830339,-15.631319445312021,-6.195925016415119
1667710018714388500,5.174388427734375,-10.619117891007662,-18.624887513065335,-4.809752397811413
1667710018724439300,5.184439208984375,-11.541639563405512,-21.417330950927735,-4.482454041856527
1667710018734490400,5.194490478515625,-11.518168671447038,-22.56484094388485,-5.208076008582115
1667710018744540200,5.2045400390625,-8.579647952654957,-21.098088475656507,-4.645238127437234
1667710018754591200,5.21459130859375,-5.127065950846672,-17.526141843277216,-2.757055313616991
1667710018764642300,5.224642333984375,-2.319795530730486,-13.402607622563838,-3.1905019679561257
1667710018774693400,5.234693359375,0.769181560858339,-9.677715577051043,-3.9472453413933515
1667710018784743400,5.244743408203125,6.106974813330173,-5.841522380435467,-1.8775787099584935
1667710018794794200,5.254794189453125,17.37525219362974,-0.6582470511108637,3.8456729726225136
1667710018804845300,5.26484521484375,30.55819649004936,6.807619575187563,8.257867483338714
1667710018814896400,5.274896484375,29.692823522806165,12.254829918581247,5.64145690420866
1667710018824946400,5.284946533203125,19.398775790309905,10.988158124148844,6.199152161768079
1667710018834997500,5.29499755859375,2.161512555961311,7.726196309351921,2.2863211311519143
1667710018845048300,5.30504833984375,-21.38749227750301,6.034833121705055,-7.29829121478796
1667710018855099100,5.31509912109375,-23.126365404343602,9.643884619119763,-13.745461275047063
1667710018865149200,5.325149169921875,-15.141318252319097,12.040000588464736,-11.671662950634955
1667710018875200300,5.3352001953125,-7.130133619475364,10.37064581900835,-8.231945691096783
1667710018885251300,5.345251220703125,-4.5791889074683185,2.826365581208467,-5.919927808630466
1667710018895302400,5.355302490234375,-5.953873332852125,-3.9661300746053456,-4.960071554094553
1667710018905352400,5.3653525390625,-8.207585156822205,-7.360478498631715,-3.771163967344165
1667710018915403300,5.3754033203125,-11.120664560365677,-8.57649153445065,-2.3722150154061614
1667710018925454300,5.385454345703125,-15.384164885652064,-7.595969508504867,-0.33671631877198815
1667710018935505400,5.39550537109375,-16.7657677121222,-2.6206863567531107,1.1814824051856994
1667710018945555200,5.40555517578125,-14.522774850565193,7.05391781027913,1.1559069421634078
1667710018955606300,5.415606201171875,-12.690329121536015,19.47647511606216,1.4706892231553792
1667710018965657300,5.4256572265625,-8.38792068118453,29.76527150390148,4.49629698150903
1667710018975708200,5.435708251953125,0.23806648638434708,32.711995987415314,10.190531243920326
1667710018985758200,5.44575830078125,11.875560552370548,23.893753798174856,15.17562734915614
1667710018995809300,5.455809326171875,19.682198764181138,10.52844217930436,13.45419284837246
1667710019005860400,5.4658603515625,13.231046940809488,3.8441362645745274,7.850408379954099
1667710019015911400,5.475911376953125,7.650034276169538,2.475746555420756,1.9954232913553713
1667710019025961500,5.48596142578125,5.910368537646532,2.7625018885850903,-2.758015098559856
1667710019036012300,5.49601220703125,9.840902982735633,3.2218378942012786,-6.4206596544742585
1667710019046063400,5.5060634765625,13.916230514162779,2.0665099209696054,-6.818132785895466
1667710019056114200,5.5161142578125,12.877636822998523,0.6945926222115755,-3.3886177714198826
1667710019066164200,5.526164306640625,10.904033733785152,-0.13516250368356703,0.3851785902544856
1667710019076215300,5.53621533203125,10.345078831553458,0.17490239339768884,2.546691438476741
1667710019086266400,5.546266357421875,11.415447132641077,0.15962357572317123,4.117614183014631
1667710019096317200,5.556317138671875,13.791409371751547,-2.1925614819586277,5.885999820065498
1667710019106367200,5.5663671875,16.386346370220185,-4.766442832916975,7.7120158083081245
1667710019116418300,5.576418212890625,14.888779077011346,-6.097855687329173,9.512657701319455
1667710019126469400,5.586469482421875,9.378266766530274,-7.078617951771617,9.918670113027096
1667710019136520400,5.5965205078125,6.7719900434017175,-9.231436036884784,9.6760800848037
1667710019146570200,5.6065703125,7.367056707978248,-11.48465101724863,9.836019886869192
1667710019156621300,5.616621337890625,7.943355543720722,-12.732623956429958,9.200293879646063
1667710019166672100,5.626672119140625,7.350199096679687,-13.011013027787207,7.599094362527132
1667710019176723200,5.63672314453125,6.798200004935264,-11.924153026103973,3.2922342034637926
1667710019186773200,5.646773193359375,7.998149794703721,-8.545862587431072,-3.147932115513086
1667710019196824300,5.65682421875,8.471700788155198,-6.104672966128588,-7.1266159667432305
1667710019206875400,5.66687548828125,3.362242390191555,-4.3547617279231545,-8.759082144263386
1667710019216926500,5.676926513671875,-0.22158348055183885,-2.4689883133321997,-8.089641498965024
1667710019226976500,5.6869765625,-1.0005505954306573,-0.1156102464735508,-5.675271495527029
1667710019237027300,5.69702734375,-2.6887749735951423,3.861485458782315,-1.4811927892521022
1667710019247078400,5.707078369140625,-3.825557820832729,12.812558493888377,3.580238659906387
1667710019257129500,5.71712939453125,-2.397306640434265,25.546232251632212,7.242733578217029
1667710019267179000,5.727178955078125,0.5656348183870316,40.41884696030616,8.335342937207221
1667710019277230000,5.73722998046875,1.454885504823923,47.630794939637184,6.026607729673385
1667710019287281200,5.74728125,1.473605256732553,33.89318379356861,2.7139854026973245
1667710019297332000,5.75733203125,1.5552699789844453,20.455170511102676,1.498917100382596
1667710019307382000,5.767382080078125,-2.984199643166363,15.38361426603198,-1.5216925574228166
1667710019317433000,5.77743310546875,-8.334280860933662,12.632918550574779,-3.5705499173238873
1667710019327484200,5.787484130859375,-8.98073226031065,10.258384882962703,-1.9203803253307938
1667710019337535200,5.79753515625,-4.620523957419395,7.654726817899942,1.2982149336874484
1667710019347585000,5.8075849609375,-3.261479876498878,5.406193857872486,3.225092804343998
1667710019357636000,5.817635986328125,-4.85721177586168,3.461285532745719,3.778170046713948
1667710019367687000,5.82768701171875,-6.854930192416906,1.5675702192395924,4.001122185270488
1667710019377737000,5.837737060546875,-8.586800747019051,-0.17471651543676853,3.2167037461832164
1667710019387788000,5.8477880859375,-9.751809571787714,-2.000140967527032,1.8742074799597261
1667710019397839000,5.857839111328125,-10.499635771536827,-4.325990975990891,0.29679888053387404
1667710019407890200,5.86789013671875,-11.343930879437922,-6.9365177577793595,-1.7478849930748341
1667710019417940200,5.877940185546875,-11.956437339115142,-9.493108366718888,-4.446705267605185
1667710019427991000,5.887990966796875,-12.110773329824209,-11.949405540782212,-6.9403113048434255
1667710019438042000,5.8980419921875,-11.816695690947771,-14.794524922299384,-8.403159751370548
1667710019448093200,5.90809326171875,-11.557088476949929,-18.184417535960673,-8.280484388816356
1667710019458143000,5.91814306640625,-13.068933301836251,-21.20375132861137,-9.01340703394413
1667710019468194000,5.928194091796875,-13.30666770672202,-22.11140393317938,-10.889297936946154
1667710019478245000,5.9382451171875,-8.537702077329158,-19.998934809589386,-9.954607687848807
1667710019488296000,5.9482958984375,-3.677924250371754,-16.6429795368433,-7.281463998627662
1667710019498346000,5.958345947265625,-0.6631915217757225,-12.767045281469821,-7.1409420137375585
1667710019508397000,5.96839697265625,2.8339512140318748,-9.07006532523334,-6.134439158838987
1667710019518448000,5.9784482421875,11.399356414061785,-5.702663944843411,-1.9093404604002833
1667710019528499200,5.988499267578125,23.02336563311815,0.008423544952273368,8.495832189849018
1667710019538549000,5.998549072265625,26.379643561947343,9.241452403986454,11.23968373849988
1667710019548600000,6.00860009765625,9.491653491735457,12.222312965857983,4.206594196715951
1667710019558651000,6.01865087890625,2.8832968442201614,9.557420387631653,4.90892004352808
1667710019568702000,6.028701904296875,8.275923949033022,5.785011388662457,5.842274660107493
1667710019578752000,6.038751953125,9.500742807120083,1.3364105165690183,5.234890365749597
1667710019588803000,6.048802978515625,4.202161767226458,-0.7738941224634647,1.4652014393940567
1667710019598854100,6.058854248046875,-9.388983390855788,0.513967759513855,-4.849087798377871
1667710019608905000,6.068905029296875,-15.958588575172424,5.076407776755095,-11.87188274064064
1667710019618955000,6.078955078125,-12.382173857468366,9.155306736928225,-14.286063358986377
1667710019629006000,6.089006103515625,-5.482302699562907,7.760686607974767,-14.363048398989438
1667710019639057200,6.09905712890625,-10.510962636715172,1.0107014756321906,-9.194781253704429
1667710019649108200,6.109108154296875,-11.712379576426743,-3.3766187060683963,-4.72821860846281
1667710019659158000,6.119157958984375,-12.17599194418788,-5.743479354834556,-1.4738073551759123
1667710019669209000,6.129208984375,-14.246668921709059,-6.697882604661584,0.7961756585069
1667710019679260000,6.139260009765625,-16.96436954553723,-5.062668005216121,1.877973262234032
1667710019689311000,6.14931103515625,-18.318414502996205,0.4852554597705602,0.8631894857242703
1667710019699361000,6.159361083984375,-18.42159430696368,9.199128342998026,1.250130409476161
1667710019709412000,6.169412109375,-16.858595633423327,19.84383075711727,2.694529299338162
1667710019719463200,6.179463134765625,-12.817062819570301,27.878128554522988,5.762656933513283
1667710019729514200,6.18951416015625,-2.12836344281435,30.457083555483816,9.712885674631595
1667710019739564300,6.199564208984375,18.65230158969164,24.156028770077228,11.039335353678464
1667710019749614800,6.20961474609375,27.108072402787208,13.240482293152809,9.302433234649897
1667710019759666000,6.219666015625,14.60029180548787,7.197341361829638,4.696939965362847
1667710019769717000,6.229717041015625,5.865599421593546,4.907702484431862,0.14223138262387364
1667710019779767000,6.23976708984375,5.28233016231656,3.8145945282697675,-2.8593074813455344
1667710019789818000,6.249818115234375,10.05398576144576,3.3705700735539197,-4.861265727427601
1667710019799869200,6.259869140625,13.80842948013544,2.2595681487828494,-6.117976099815964
1667710019809920000,6.269919921875,12.08727204272747,1.2745166627138853,-3.7752918609291313
1667710019819970000,6.279969970703125,10.512059199780225,0.7354629772603511,0.4460542069777846
1667710019830021000,6.290021240234375,9.723466689878702,0.8251298041820526,3.0319255631983277
1667710019840072200,6.300072265625,8.564834414404631,-0.3342857306241989,3.5469773185566065
1667710019850123300,6.310123291015625,10.063996283328533,-2.9682886650681493,3.7351188404947515
1667710019860173000,6.320173095703125,15.568271745246648,-6.3585916130959985,5.136511824584007
1667710019870224000,6.330223876953125,19.740849690592288,-8.819813384079932,8.758155092546343
1667710019880275000,6.34027490234375,15.661354518091677,-9.032234484010933,12.113195588535069
1667710019890325000,6.350324951171875,9.024871261766553,-8.873537375482917,12.768148858797549
1667710019900376000,6.3603759765625,5.70425033725202,-9.695213239818811,12.56835226264
1667710019910427100,6.37042724609375,4.915919108635187,-10.400664525175094,12.008464463472366
1667710019920478200,6.380478271484375,3.558953003032505,-10.967162097871302,10.739715278244018
1667710019930528300,6.3905283203125,3.740780519518256,-11.727241629993914,9.307533772659301
1667710019940579000,6.4005791015625,5.763480524855852,-13.003598952138423,6.682123894515633
1667710019950630000,6.4106298828125,8.126564577692747,-12.41299335862398,1.914602326451242
1667710019960681000,6.420680908203125,6.452494470152258,-7.771937485307455,-2.398828443174064
1667710019970731000,6.43073095703125,0.7166039630115032,-3.6401398786395784,-2.7461756076842545
1667710019980782000,6.440781982421875,-2.313328526673466,-0.48598318952322006,-0.8973860620975493
1667710019990833200,6.450833251953125,-0.657034168189764,2.89474996612668,0.14745382997989653
1667710020000884000,6.460884033203125,-2.083676159825921,9.165254130446911,2.796272640761733
1667710020010934000,6.47093408203125,-2.3748680141329763,20.83060892084837,5.64692043031156
1667710020020985000,6.480985107421875,0.9056535397052764,31.254338679790497,1.9618227811791003
1667710020031036200,6.4910361328125,5.8024576135039325,36.98151688816547,-5.507572165375947
1667710020041087200,6.501087158203125,5.3182899489700795,30.601960812973974,-8.591115687608719
1667710020051137000,6.511136962890625,0.48153833894357084,20.70945389972925,-8.00352155086994
1667710020061188000,6.52118798828125,-0.8580104756511747,14.177295525753497,-6.610883535644412
1667710020071239000,6.531239013671875,-1.7693571124315262,12.24238544754982,-3.941016383875906
1667710020081290000,6.5412900390625,-4.583565515117347,13.846934275096654,-3.235482973194122
1667710020091340000,6.551340087890625,-5.052440041190385,14.032121331143378,-2.646663094052672
1667710020101391000,6.56139111328125,-3.9154412131145593,11.80373450256586,-0.145804309207201
1667710020111442200,6.571442138671875,-3.8707182742908595,8.992458938461542,4.1627769745603205
1667710020121493000,6.581492919921875,-4.773712239398062,6.956422481688857,8.603629132223128
1667710020131543000,6.59154296875,-5.559957017129659,5.2044665859133,10.686683945280313
1667710020141594000,6.601593994140625,-6.273596285116672,3.4985809519171713,8.8458181784302
1667710020151645200,6.611645263671875,-7.148661794334649,1.7474550772249697,5.580294871759414
1667710020161696000,6.621696044921875,-8.027855197137594,-0.010623685345053672,3.1308547239840028
1667710020171746000,6.63174609375,-9.065580288773775,-1.7353642419368027,-0.10277093090564011
1667710020181797000,6.641797119140625,-11.149572674942016,-4.177693096402288,-4.094861376197636
1667710020191848000,6.651847900390625,-13.186089024186133,-7.083661791157722,-7.292944008541107
1667710020201899000,6.66189892578125,-13.351798641824722,-10.325503193467855,-9.926692091441154
1667710020211949000,6.671948974609375,-12.637307140922546,-13.90958566932082,-12.28112054413557
1667710020222000000,6.682000244140625,-12.20450609101057,-18.946750984489917,-13.712612313890457
1667710020232051200,6.69205126953125,-11.973463292717932,-25.000452472794056,-14.333397941613196
1667710020242102300,6.702102294921875,-15.937944431072472,-27.797326586580276,-13.160349018251894
1667710020252152000,6.712152099609375,-15.462255841070412,-26.10262694798708,-8.489579559195041
1667710020262203000,6.722202880859375,-9.623639703470468,-20.245490818834302,-1.801978840703517
1667710020272254000,6.73225390625,-5.484826080560684,-13.54277597171068,-1.9824680943228303
1667710020282305000,6.742304931640625,-0.7885492552816867,-9.037154404756427,-2.6302351063430307
1667710020292355000,6.75235498046875,10.630021562337875,-5.231404277199506,-0.035444019151106475
1667710020302406100,6.76240625,33.11073811585903,1.2469067712545394,10.809082828980683
1667710020312457000,6.77245703125,36.152931390571595,13.618394399535655,16.07470852473378
1667710020322507300,6.78250732421875,12.186224584388732,19.55887282876372,4.414887987583875
1667710020332558000,6.79255810546875,8.339894609162211,17.082133170652387,5.029414554911852
1667710020342609200,6.802609130859375,14.572007960289715,10.59726378659606,7.322192899379134
1667710020352660200,6.81266015625,12.695572282886504,1.3991729699522255,4.5739735109075905
1667710020362710000,6.8227099609375,-5.830749642008542,-1.31300158393085,-2.0622630771800874
1667710020372761000,6.832760986328125,-20.40651958518028,1.7286211974173784,-10.903077455973625
1667710020382812000,6.84281201171875,-17.716764952898025,6.264838393643498,-17.11629379892945
1667710020392863000,6.852863037109375,-10.821703825622796,9.826645324802397,-19.55708536082506
1667710020402913000,6.8629130859375,-8.250291495126485,5.226925085958838,-19.028273083400727
1667710020412964000,6.872964111328125,-11.986826632159948,-1.321888070219755,-11.839596089541912
1667710020423015200,6.88301513671875,-9.652315178334712,-4.2628497524231665,-7.20291360900402
1667710020433066200,6.893066162109375,-10.24656585035324,-5.32727697302401,-3.8726229388684033
1667710020443116000,6.903115966796875,-13.902514123499392,-4.288318540200591,-0.38808147208914157
1667710020453166800,6.913166748046875,-16.37589161170125,-1.088991753014922,1.6673706099018453
1667710020463218000,6.923218017578125,-16.193860973858833,4.565551427260041,1.9536846290394663
1667710020473269000,6.93326904296875,-14.459761052769421,12.299861484962701,1.782649140202999
1667710020483319000,6.943319091796875,-11.961549567562342,20.270354041934013,2.710124343355
1667710020493370000,6.9533701171875,-7.39706138561964,25.40602649308443,6.598086597913503
1667710020503421200,6.963421142578125,6.017256548482179,26.549119838643072,11.741259633952378
1667710020513472000,6.973471923828125,17.907186986988783,18.18073037188053,14.834877975475788
1667710020523522000,6.98352197265625,16.915158647644517,9.229770149499178,12.885018165421485
1667710020533573000,6.993572998046875,10.392024122601747,5.624834855231643,5.545812171921134
1667710020543624200,7.003624267578125,6.0934378708869215,5.151904039505124,-1.2501260255619884
1667710020553675300,7.01367529296875,6.814461403906345,5.140467284211516,-5.644952345108986
1667710020563725000,7.02372509765625,11.704349414706229,3.2272423835933206,-8.87364434298873
1667710020573776100,7.033776123046875,14.947590162420273,1.4546388365864753,-8.602527892982959
1667710020583827000,7.043826904296875,12.79675886721015,0.7823141602843999,-4.824112347075343
1667710020593878000,7.0538779296875,10.336634828335047,0.15620353814661503,-1.3139122690349816
1667710020603928000,7.063927978515625,9.333304173731804,-1.079568091109395,0.34533911262340844
1667710020613979100,7.073979248046875,12.30857203016281,-3.8976100806087253,1.7844000755235552
1667710020624030200,7.0840302734375,18.818241508954763,-6.876303819835186,4.7946945294111964
1667710020634081000,7.0940810546875,20.401361764025687,-7.430284440785646,9.631541270375251
1667710020644131000,7.104131103515625,14.100920726603269,-7.147768644887209,12.517484829711913
1667710020654182000,7.114181884765625,6.612249563300609,-7.732264815610646,12.716852386802435
1667710020664233000,7.12423291015625,3.632210546945035,-9.01920607561171,12.61797700203061
1667710020674284000,7.134283935546875,3.7230990246161815,-10.174470920479298,12.320067237645388
1667710020684334000,7.144333984375,3.51092956135869,-10.662170266270637,11.234434731930493
1667710020694385200,7.15438525390625,4.1223119854420425,-11.176798535519838,9.975883115589617
1667710020704436000,7.16443603515625,7.364009010845423,-11.766970413792132,8.14442464403212
1667710020714487000,7.174487060546875,10.544997008264064,-10.52435870938301,4.72896621195972
1667710020724537000,7.184537109375,8.545144210028647,-7.455444601005316,0.572497105371952
1667710020734588200,7.194588134765625,1.5180128459967672,-4.849882748147845,-1.6185218233197927
1667710020744639200,7.20463916015625,-2.9600132964149117,-2.6885300589233636,-0.8771853509161621
1667710020754690000,7.21468994140625,-3.0013533148020506,-0.4048264167934656,-0.3817112429374829
1667710020764740000,7.224739990234375,-2.8051988745391365,2.616749017304182,1.1451128686875105
1667710020774791000,7.234791015625,-4.110093724381923,9.462842407792806,4.6350388049840925
1667710020784842000,7.244842041015625,-2.1408558446407318,22.72172194290161,7.118125786295533
1667710020794893000,7.25489306640625,0.8401075930833816,35.65732697074413,5.14338814009428
1667710020804943000,7.264943115234375,2.1988100209593773,40.92531413493156,-1.384349933221191
1667710020814994200,7.274994140625,1.016887836116925,35.41352990481853,-6.862551188814639
1667710020825045000,7.285044921875,1.1208886741437016,24.900613795948026,-8.386306231725216
1667710020835096000,7.295095947265625,2.86444367519021,16.509083107572792,-5.910283197450638
1667710020845146000,7.30514599609375,-1.4865959634698926,13.013331241601705,-4.547203577403724
1667710020855197000,7.315197021484375,-7.270568510603904,12.991263202178477,-5.6541901290535925
1667710020865248000,7.325248046875,-7.303095984721184,12.359379841858148,-5.218607923990488
1667710020875299000,7.335299072265625,-4.074359563177824,9.515641101044416,-1.665914858135581
1667710020885349000,7.34534912109375,-2.858172339835763,5.9962424020260565,2.7933400944411755
1667710020895400000,7.35539990234375,-4.854409870183468,3.209194101205468,4.933420863056183
1667710020905451000,7.365450927734375,-6.926485024064779,0.9873644391864538,3.7245597448185084
1667710020915502000,7.375502197265625,-8.435607145988941,-1.028224272841215,1.4979147914722561
1667710020925552000,7.38555224609375,-9.091004652887582,-3.244816034206748,0.15791998667567966
1667710020935603200,7.395603271484375,-9.384389048802852,-5.403470570388436,-2.0773095474034546
1667710020945654300,7.405654296875,-9.722281279486417,-7.796231968608498,-4.554340297415853
1667710020955705000,7.415705078125,-10.205580344492196,-10.19344917719364,-7.0437810316681855
1667710020965755000,7.4257548828125,-10.721851120251417,-12.689868518286943,-9.500328965622186
1667710020975806000,7.435805908203125,-11.249950280970335,-16.468408567357063,-12.041318100804089
1667710020985857000,7.44585693359375,-11.818268054831027,-21.129760209727287,-14.814188238668441
1667710020995907000,7.455906982421875,-14.230245025652646,-23.735271209180354,-16.52115582268238
1667710021005958100,7.465958251953125,-13.60372757627964,-23.662659561955927,-15.509858134722709
1667710021016009200,7.47600927734375,-8.699446298468112,-21.31538098101616,-9.491560552754997
1667710021026060000,7.48606005859375,-4.307963736391067,-16.195948886048793,-3.501580133733153
1667710021036110000,7.496110107421875,-1.9071768526256083,-9.94124551745057,-1.1286387037485837
1667710021046161200,7.5061611328125,4.974317521589994,-5.3010974066287275,1.723259962645173
1667710021056212000,7.5162119140625,27.782049522471425,-0.33694647426605223,12.788843271780014
1667710021066263000,7.526262939453125,35.118725120711325,12.159413734352588,25.959519622778892
1667710021076313000,7.53631298828125,10.977544375675915,20.389280865609646,17.30807543093562
1667710021086364000,7.546364013671875,5.063414439669251,20.802589279544353,10.403631558287143
1667710021096415000,7.5564150390625,10.111286442291735,15.004028088957071,11.232947708243131
1667710021106466000,7.566466064453125,12.192183200532197,2.4445728339999913,10.395904178905486
1667710021116516000,7.57651611328125,2.782400182753801,-6.024855917569995,5.17003883113265
1667710021126567200,7.586567138671875,-13.68114282439351,-8.84262493534684,-0.8079156345307826
1667710021136618200,7.5966181640625,-18.59286389681697,-7.906948013299703,-8.5681743724823
1667710021146669000,7.6066689453125,-15.927399656182526,-1.795062631574273,-14.96394976106882
1667710021156718800,7.61671875,-4.175812689483165,5.660519332075118,-20.702383522951603
1667710021166770000,7.62677001953125,-3.8410567109987137,7.911872025698423,-23.79867079142332
1667710021176821000,7.636821044921875,-10.705920560669899,2.934771010869741,-15.494969193148613
1667710021186872000,7.6468720703125,-7.868316377088427,-2.0832365993648767,-10.876107615983486
1667710021196922000,7.656922119140625,-7.123140399587154,-4.854382982176542,-6.819070943528414
1667710021206973200,7.66697314453125,-7.884772421848774,-4.328363550341129,-2.942679007515311
1667710021217024000,7.67702392578125,-10.899773738253115,-1.048985905840993,-0.7353034758497029
1667710021227075000,7.687074951171875,-14.552822782826423,4.308998924657702,0.7517351898863911
1667710021237125000,7.697125,-16.82312333802581,12.605181817865372,2.0209081534847617
1667710021247176200,7.70717626953125,-16.876559160137177,22.452820830857753,3.173813575744629
1667710021257227300,7.717227294921875,-12.835581642079353,29.04220623592138,6.320246977132558
1667710021267278000,7.727278076171875,-3.621401275900006,27.464527879643438,9.516390458106994
1667710021277328100,7.737328125,14.9337369936347,17.849920208412406,11.12235382862687
1667710021287378700,7.747378662109375,27.081637984848022,9.293728534668684,10.353141726499794
1667710021297429800,7.7574296875,18.63218000816107,5.316920414182543,4.663023959496617
1667710021307480800,7.767480712890625,10.493822116822004,5.3886722297072405,-2.213810606214404
1667710021317531000,7.77753076171875,9.302993206620215,5.483344317570328,-7.032604388615488
1667710021327582000,7.78758203125,12.39018414544463,4.064816658806801,-9.479846734085678
1667710021337632800,7.7976328125,12.828324218297004,2.3974235448122023,-7.338501644623279
1667710021347683800,7.807683837890625,11.370802519750594,0.3331494200706482,-2.425260815286636
1667710021357734000,7.81773388671875,9.944617039710282,-2.0001041426479813,0.9370997213918715
1667710021367785000,7.827784912109375,11.25141041665077,-4.810552608278393,3.0281320161342618
1667710021377836000,7.8378359375,15.728822372686862,-7.58758980269432,5.31161120185852
1667710021387887000,7.84788720703125,18.60927025721669,-7.8767194637745614,8.30339823141396
1667710021397937000,7.85793701171875,15.387217258960007,-6.4537126137703655,10.624196217185258
1667710021407987700,7.86798779296875,9.642063833433388,-6.116759709763526,11.404506051909923
1667710021418038800,7.878038818359375,6.971052480065822,-6.884390680178999,11.749357600212097
1667710021428089900,7.88808984375,6.339865869837999,-7.6769456639707085,11.744569196891783
1667710021438140000,7.898139892578125,4.664894429543614,-8.043723212876916,10.596070192897319
1667710021448191000,7.90819091796875,3.85582494880259,-9.028456134516,8.739782985031605
1667710021458242000,7.918241943359375,4.15358186071366,-9.95814404528141,6.011330081042647
1667710021468292000,7.9282919921875,3.4581448966324326,-9.21810893779993,2.1858733824968337
1667710021478343000,7.938343017578125,0.7782523176729679,-5.744686977058649,0.05913052662163973
1667710021488393700,7.948393798828125,-0.6024917000107467,-0.7779688245564699,0.38972354020774364
1667710021498444800,7.95844482421875,2.0372059389434756,4.905343938606977,0.017274996460415422
1667710021508494800,7.968494873046875,-0.3650790744252503,12.83513857448697,-0.9372755163501948
1667710021518546000,7.9785458984375,-3.8132331767886876,18.661095137000082,-4.3711417848378415
1667710021528597000,7.988596923828125,2.7622856154859066,23.565776227784156,-12.823303175264597
1667710021538647800,7.998647705078125,8.406406185945867,25.989405057954787,-16.973768657523394
1667710021548697900,8.00869775390625,3.7630128095924853,24.052255091869828,-12.176673496711253
1667710021558749000,8.0187490234375,-1.5113631788492201,20.742264282441138,-8.157319196918607
1667710021568800000,8.028800048828124,-2.772045961999893,18.24996348258257,-5.666451060211658
1667710021578851000,8.03885107421875,-2.664213363790512,16.651326509428024,-3.013290128572285
1667710021588900900,8.04890087890625,-2.9499101278126236,15.73723714981079,-1.2724730280570684
1667710021598952000,8.058951904296874,-3.7959389276385305,14.43492237958908,-0.33015900608301163
1667710021609002800,8.069002685546875,-4.902201548928022,12.35238077675104,2.5713351736068724
1667710021619053800,8.0790537109375,-5.511835668039321,9.980899482446908,6.992358302944898
1667710021629103900,8.089103759765624,-4.925831430840492,7.505120193800329,9.990734647762775
1667710021639155000,8.099155029296876,-5.319907905560732,4.589960476851463,7.460994051826
1667710021649206000,8.1092060546875,-6.295569631993771,1.727877685573697,4.2962861580789085
1667710021659256800,8.1192568359375,-7.056011567687988,-0.3385989176481962,2.556404730978608
1667710021669307000,8.129306884765626,-7.625574373173714,-2.0040566796660424,0.22535963808968662
1667710021679358000,8.13935791015625,-8.400062954398988,-3.641092064797878,-2.069179724700749
1667710021689408800,8.14940869140625,-10.219304918462038,-5.827624787986278,-3.645294192662835
1667710021699459800,8.1594599609375,-12.125118666040896,-8.820336531171202,-4.5450165887534615
1667710021709510000,8.169510009765625,-13.115221590280532,-12.599080578380823,-5.9669204459518195
1667710021719561000,8.17956103515625,-14.540820210343599,-17.58214254744053,-8.623814426639676
1667710021729611800,8.18961181640625,-16.65140834249258,-23.906524432420728,-11.580649385279417
1667710021739662800,8.199662841796876,-20.274417638111114,-28.326021959626672,-11.8484948507905
1667710021749713000,8.209712890625,-21.777125216817854,-28.599126953101155,-8.75336961183548
1667710021759764000,8.219763916015625,-17.138498616474866,-22.979458686852453,-2.3978578445762393
1667710021769815000,8.22981494140625,-11.923012039375305,-15.02376037890911,1.2424325484499334
1667710021779865900,8.239865966796875,-4.147165271669626,-9.66429378542006,2.353275775527954
1667710021789916000,8.249916015625,7.745097409176826,-4.744464809864759,3.053944210521877
1667710021799966700,8.259966796875,35.75384322516918,3.1438626741170883,8.008028799161314
1667710021810017800,8.270017822265626,44.871402707505226,13.715074320089816,17.57199524743557
1667710021820068900,8.28006884765625,22.147277210593224,21.45219651260376,11.17069378890395
1667710021830119000,8.290118896484374,13.97251295787692,23.790195224022863,5.280462614879012
1667710021840170000,8.300169921875,15.648925244629382,16.480249811798334,9.677964583376049
1667710021850220800,8.310220703125,20.993190177333354,7.700264580237865,9.341593863171338
1667710021860271900,8.32027197265625,-9.306572818672656,9.378874669295548,-2.2519471523851156
1667710021870322000,8.330322021484376,-29.494392369782922,9.527210542806982,-13.78657069954872
1667710021880373000,8.340373046875,-19.689605825567245,8.142645359399914,-20.320328325414657
1667710021890424000,8.350424072265625,-14.398240123879908,-0.08028349702656269,-20.16136642847061
1667710021900475000,8.360474853515624,-15.292460415422916,-10.579093339133262,-16.777776129823923
1667710021910525000,8.37052490234375,-15.976297250342368,-15.169775115996599,-10.885581546771526
1667710021920575700,8.38057568359375,-17.182717697429656,-16.208643532449006,-7.567024569049477
1667710021930626800,8.390626708984374,-17.95770019965172,-14.858003999519347,-6.4765095519900315
1667710021940676900,8.4006767578125,-19.32403648340702,-12.356920173746346,-4.375449711164832
1667710021950728000,8.41072802734375,-17.96271189033389,-4.625698145186901,-1.7984806233242152
1667710021960779000,8.420779052734375,-15.183568663549423,1.9449767141878604,-0.06419223045799881
1667710021970830000,8.430830078125,-11.360115121519565,18.753720813727377,-0.6949868822261691
1667710021980881000,8.440880859375,-10.38228364983201,37.33407243497371,0.8717644218459725
1667710021990930700,8.4509306640625,-2.4399942740380762,48.52529112551212,7.4500634924888605
1667710022000981800,8.460981689453124,24.39881110600233,40.139604486989974,16.757631167417763
1667710022011032800,8.47103271484375,24.467679475045202,19.097709607720375,12.388217813807724
1667710022021083000,8.481082763671875,11.668742679274082,9.48905646097958,4.488930836655199
1667710022031134000,8.491134033203124,6.94384590871036,4.807946225172281,-1.3451771758705378
1667710022041185000,8.50118505859375,11.777058092564344,1.224838731831312,-6.856010973390936
1667710022051235800,8.51123583984375,16.323428434014318,-0.911195391741395,-10.815137306714057
1667710022061286000,8.521285888671875,12.4356003272295,-1.2282757205426693,-9.68014777263403
1667710022071337000,8.5313369140625,8.434552668499945,-1.066169680353999,-5.15245232103765
1667710022081388000,8.541387939453125,5.833175407850742,-0.8572457748889922,-0.646651598124206
1667710022091439000,8.551439208984375,4.368726540389657,-2.221654305452108,1.6231331165075302
1667710022101489000,8.561489013671874,5.745159270745516,-5.540833214464783,2.642715817731619
1667710022111540000,8.5715400390625,9.776225635641813,-8.062557677206396,4.802053075480461
1667710022121590800,8.5815908203125,14.167728071463108,-9.159069304332137,7.8452441290587185
1667710022131641900,8.591641845703125,19.16512017917037,-10.109109682774543,10.545345383310318
1667710022141692000,8.60169189453125,19.04198947406411,-10.059362193787097,13.720208760368823
1667710022151743000,8.611742919921875,11.552006643640995,-8.2441072535336,15.37315249325037
1667710022161794000,8.6217939453125,3.67784797026515,-7.8235729799985885,14.023245950770377
1667710022171844900,8.631844970703124,1.9910452224016189,-9.358982220345736,12.032429860949515
1667710022181894700,8.641894775390625,3.659516194760799,-11.086661752998829,10.30619175927639
1667710022191945700,8.65194580078125,4.507883082145452,-11.858522908329963,7.915355776160955
1667710022201996800,8.661996826171874,4.770315290436148,-11.094791283440589,3.7494431339234113
1667710022212048000,8.6720478515625,7.458328047487139,-8.037219822332263,-0.4313511433646083
1667710022222098000,8.682097900390625,10.352817901372909,-5.454111208823323,-2.4560572278276083
1667710022232149000,8.69214892578125,5.903516187533736,-3.9149072523683306,-3.697885380643606
1667710022242199800,8.70219970703125,-0.9009364480555057,-1.5530641395032405,-3.6248587228775024
1667710022252251000,8.7122509765625,-1.7068547712892292,1.246922553345561,-2.659878549456596
1667710022262301000,8.722301025390625,-2.351908578827977,4.465976954308152,0.2556868256837129
1667710022272352500,8.7323525390625,-3.1069255668640134,12.444237222671507,6.038266603285074
1667710022282403600,8.742403564453125,-2.48236042060256,25.368729320347306,8.728742535579205
1667710022292454400,8.752454345703125,-1.6817220835983753,40.32730615620613,5.80382305663824
1667710022302504400,8.76250439453125,-0.08067235021367669,48.29281040337086,-2.311247336485237
1667710022312555500,8.772555419921876,4.114719630616903,37.49925832099915,-6.393052685624361
1667710022322606600,8.782606689453125,5.157664502727985,24.508182165825364,-7.447537188881635
1667710022332657700,8.79265771484375,0.9465174650132655,17.455309480684996,-9.647307579305767
1667710022342707700,8.802707763671876,-7.729849571162462,13.39797704015374,-11.52959841247797
1667710022352758500,8.812758544921875,-11.762053415656089,9.851861599123477,-9.406617247223853
1667710022362809600,8.8228095703125,-8.42258867446184,6.4073664576590055,-3.079477295707166
1667710022372860700,8.832860595703124,-4.240060705249011,4.624249699944257,2.707003873246908
1667710022382910500,8.842910400390625,-3.015458997043967,3.3322201768934723,6.449033516043424
1667710022392961500,8.85296142578125,-4.477610401217639,1.6537433588266373,8.63835207055807
1667710022403012600,8.8630126953125,-7.157953938814997,-0.7522866862893104,6.509892181631923
1667710022413063400,8.8730634765625,-9.173396520370245,-4.117387388521433,2.6622648600712417
1667710022423113500,8.883113525390625,-10.130614243096113,-7.829931409114598,0.11670914762616157
1667710022433164500,8.89316455078125,-10.445440070968866,-10.20976902835369,-2.696523103503883
1667710022443215600,8.903215576171876,-11.10631805510521,-11.624734026199578,-5.864609241512418
1667710022453266700,8.9132666015625,-12.526196543955802,-13.986082049024104,-8.518707454001904
1667710022463316700,8.923316650390625,-14.590242705160378,-17.924653670096397,-11.535890206098555
1667710022473367600,8.933367431640624,-17.169081970787047,-21.80074457733631,-16.248948654830453
1667710022483418400,8.94341845703125,-16.616975327014924,-23.427394177532193,-19.134106616747378
1667710022493468400,8.953468505859375,-9.989648606091738,-22.491177157258985,-17.216135982906817
1667710022503519500,8.96351953125,-2.454066054010391,-19.709093785369394,-12.498568532317876
1667710022513570600,8.973570556640626,1.0079353719197213,-15.867005685496329,-7.948283647772669
1667710022523621600,8.98362158203125,5.493780955910682,-12.101831313955783,-4.109462733002006
1667710022533671700,8.993671630859374,18.452371722543237,-7.325425305429101,1.0883493634581565
1667710022543722800,9.00372265625,37.85663266626596,1.3218465691655874,14.871173277693986
1667710022553773600,9.013773681640625,30.20360213088989,14.62811855456829,16.54909129283428
1667710022563824600,9.02382470703125,2.4428978865250945,18.082640584528445,7.872626056981086
1667710022573874400,9.03387451171875,-2.7751138251379133,19.456975465822218,5.895484856769442
1667710022583925500,9.043925537109375,8.654417070174217,20.87416983015537,5.451663231149316
1667710022593976600,9.0539765625,15.823220319783687,10.365864429950713,7.546564549344778
1667710022604027400,9.06402734375,18.156638717675207,2.0363433307647703,2.861699929440021
1667710022614077700,9.07407763671875,0.8985456073962151,6.543944673359394,-3.3820734643429518
1667710022624128500,9.08412841796875,-21.28029797719717,10.138048192489146,-11.163332320225239
1667710022634179600,9.0941796875,-22.141488105797766,9.008624475842714,-16.671450429046153
1667710022644230700,9.104230712890624,-22.210293346476554,1.8401240085721016,-15.673310328823327
1667710022654280700,9.11428076171875,-22.347464267373084,-7.591362891492247,-13.807880029559135
1667710022664331800,9.124331787109375,-22.54948906097412,-13.885600398099422,-11.340844603860377
1667710022674382300,9.13438232421875,-22.23688207819462,-15.293563992750643,-9.94779333165884
1667710022684433400,9.144433349609375,-17.445992201763392,-13.405100023901461,-9.331074222722648
1667710022694483500,9.1544833984375,-13.454341316932439,-9.676700847050547,-7.979237588962912
1667710022704534500,9.164534423828124,-11.058789411211013,-3.5189778432577845,-5.835792896872759
1667710022714585600,9.174585693359376,-9.130824622100592,6.743398739689588,-5.693355433750153
1667710022724636700,9.18463671875,-9.088997404718398,24.129629423451423,-6.190033035767078
1667710022734686700,9.194686767578125,-9.192105897015333,39.11152634462118,-2.4817142316535112
1667710022744737500,9.204737548828126,2.6072347545057535,45.766343130016324,8.350252921569346
1667710022754788600,9.21478857421875,21.57053180012703,31.88387810733318,19.724630377197265
1667710022764839700,9.224839599609375,19.43400141746998,15.495095449876784,14.227392558830976
1667710022774889500,9.234889404296876,12.638152359575033,7.397556475660204,5.622814747580885
1667710022784940500,9.2449404296875,12.623196782505511,3.5521009451806544,-0.1229404432311654
1667710022794991600,9.25499169921875,15.492327154207228,1.6243483375161885,-5.277172925683856
1667710022805042400,9.26504248046875,15.00087985405922,1.4769476990282535,-9.028080871462821
1667710022815092500,9.275092529296876,10.25508817950487,1.5274369462937116,-7.78668029640913
1667710022825143600,9.2851435546875,9.008633828192949,1.541070919370651,-1.7521318368643521
1667710022835194600,9.295194580078125,8.685290347343683,1.3194704876840113,1.916627402538061
1667710022845245700,9.30524560546875,8.960231324073671,-1.111287755975127,2.5942183288052676
1667710022855295700,9.315295654296875,12.368662049466371,-4.82855529795885,3.706268593585491
1667710022865346600,9.3253466796875,17.673906638902423,-7.886988928854465,6.483737749677896
1667710022875397600,9.335397705078124,19.341108029717205,-9.006172991037369,10.38532316365838
1667710022885448400,9.345448486328126,14.3716993229568,-8.554705234578252,13.375900817424059
1667710022895498500,9.35549853515625,8.659657893437146,-8.590227798858285,14.180298799222706
1667710022905549600,9.365549560546874,5.9966498137831685,-9.559016132390498,13.840725483584404
1667710022915600600,9.3756005859375,3.899822495961189,-10.448493613320588,12.679701344537735
1667710022925650700,9.385650634765625,2.00242425615862,-11.125482189780474,11.11282378373742
1667710022935701500,9.395701416015624,2.033175514383614,-11.594316676104068,9.262297039094566
1667710022945752600,9.405752685546876,3.8570723185151814,-11.861842992663382,6.121181033337116
1667710022955803600,9.4158037109375,5.544063866949081,-10.351254889839886,1.7521753837451337
1667710022965853400,9.425853515625,6.235932032632827,-7.535047714552283,-0.4333417326599359
1667710022975904500,9.435904541015624,5.425035920986533,-5.691866656497121,-0.9546715453743934
1667710022985955600,9.44595556640625,2.1277344972610472,-3.4958629251301288,-1.7740262732863425
1667710022996006400,9.45600634765625,-0.2602555218387395,-0.656312283656001,-2.5299314423337576
1667710023006056400,9.466056396484374,-0.4279179540455341,2.3600164819598195,-2.1041192283958194
1667710023016107500,9.476107421875,-2.6956360915362834,7.492218042129278,0.9376192882865667
1667710023026158600,9.48615869140625,-5.138955126082897,19.30680360905528,5.12300352371335
1667710023036209700,9.496209716796875,-4.13874581837058,35.3047480430603,4.677434469904005
1667710023046259700,9.506259765625,-1.384555831056833,49.90999074895382,-1.6052879554763435
1667710023056310500,9.516310546875,2.672337049013376,44.342756434297556,-6.5961109139263625
1667710023066361600,9.526361572265625,5.289875170868635,26.378432432591914,-6.671989453992247
1667710023076412700,9.53641259765625,3.67872475309968,16.228186437308786,-6.06016863849163
1667710023086462500,9.54646240234375,-3.604635434538126,12.445309235817193,-7.126335396236181
1667710023096513500,9.556513427734375,-10.081278257519006,10.469278042674064,-7.124044070428609
1667710023106564600,9.566564697265624,-9.17976547088027,8.298670618370174,-2.4472619269534945
1667710023116615400,9.576615478515626,-4.753177400891483,7.065213111275434,3.8510570037484166
1667710023126665500,9.58666552734375,-3.803812729753554,5.843010573166609,7.894613432383537
1667710023136716500,9.596716552734375,-5.364453734251857,3.9038521898686884,8.84628228881061
1667710023146767600,9.606767578125,-7.5268801901876925,0.8925403756320476,5.815161612254381
1667710023156818700,9.616818603515625,-9.30032077254057,-1.8090175071686505,3.8824136805206533
1667710023166868500,9.626868408203125,-9.658485391402245,-4.195464315414428,2.3006644215419887
1667710023176919600,9.63691943359375,-9.41018633788228,-6.456719978892803,-0.7790121961295604
1667710023186970400,9.646970458984375,-10.068910943377018,-8.511796067178249,-4.08133320158273
1667710023197021400,9.657021484375,-11.367878741258382,-10.527012438762187,-6.724070938885212
1667710023207071500,9.667071533203124,-11.75884322143793,-12.811071470201014,-9.14649273135364
1667710023217122600,9.67712255859375,-11.433131257891654,-15.689105279326437,-11.245478688514233
1667710023227173600,9.687173583984375,-10.850989541339874,-19.27388216718435,-13.59628661262393
1667710023237224700,9.697224609375,-11.72775367116928,-22.35589774919748,-15.939058529794215
1667710023247274800,9.707274658203126,-13.653435317778586,-23.22594455347061,-16.666244677096604
1667710023257325600,9.71732568359375,-9.227698603922128,-22.439933292233942,-15.02814312403798
1667710023267376600,9.727376708984375,-2.55733353626132,-18.85422116935253,-11.201590446949005
1667710023277426700,9.7374267578125,-0.34555063648223877,-12.647339874637126,-7.81566206074357
1667710023287476700,9.747476806640625,2.8751369186401368,-7.507981428450345,-4.902647246868908
1667710023297527800,9.75752783203125,11.88053600269556,-3.5884009235739707,1.0596192357972263
1667710023307579000,9.767578857421874,27.993571627736088,2.15253342295289,13.539217402446269
1667710023317629700,9.777629638671876,35.08926989364624,17.74752249473333,17.408465896445513
1667710023327680000,9.787679931640625,8.251079430633784,23.493454503417013,6.678396982946992
1667710023337730800,9.797730712890624,5.767293361142277,21.033232264864445,6.193398712807894
1667710023347781600,9.80778173828125,12.173539290338754,10.233936670404672,9.677388829314708
1667710023357832700,9.817832763671875,6.306652167022228,-3.796450968813896,6.586304974704981
1667710023367882800,9.8278828125,-10.804032559853791,-8.716479266333579,0.18387655797004698
1667710023377933800,9.837933837890626,-18.38409138252139,-12.067786421012878,-4.950090258306265
1667710023387984600,9.847984619140625,-17.01103309703469,-14.084722455996275,-11.130113941234349
1667710023398035700,9.85803564453125,-16.236901658684015,-3.5432471921175717,-16.91769430360198
1667710023408085800,9.868085693359374,-12.909952700191736,9.110983611077069,-17.63887273492217
1667710023418136800,9.87813671875,-6.194544375711679,14.304676874041556,-19.89510034110546
1667710023428188000,9.88818798828125,-5.621717599993944,13.28863520642519,-11.291070226866006
1667710023438239000,9.898239013671875,-3.0048613229230043,8.342217499151825,-1.6519493150167166
1667710023448288800,9.908288818359376,0.4863349255703389,5.3047483303517105,3.6291949985161422
1667710023458339600,9.918339599609375,-0.060611485894396896,2.8622791906327008,4.700480998970568
1667710023468390700,9.928390625,-5.820435168743133,1.880815499922633,0.9961452000785619
1667710023478441700,9.938441650390626,-10.34184876359105,3.797677880260348,-1.1884165883630513
1667710023488491800,9.94849169921875,-14.758673856717348,8.128667102929949,-1.5837193900078534
1667710023498542800,9.95854296875,-17.584162655091284,14.61353473342061,1.328952894039452
1667710023508594000,9.968593994140624,-16.83262883299589,20.279806929934022,7.172720715314149
1667710023518644700,9.978644775390626,-9.193058667695523,25.463756212997435,9.310027343040705
1667710023528694800,9.98869482421875,10.931879187566041,25.652963610601425,10.808036534798145
1667710023538745900,9.998745849609374,32.230796525037285,15.646028354144095,11.34466503893137
1667710023548796700,10.008796630859376,23.057658363342284,8.028463099902869,-0.03212356949150562
1667710023558846700,10.0188466796875,11.564620626020432,5.992343641021847,-7.5034046220540995
1667710023568897800,10.028897705078125,9.260989463627338,3.918741131442785,-9.192789787626266
1667710023578948900,10.038948974609376,10.88577794612646,2.8790801033079623,-8.271253619134425
1667710023588999700,10.048999755859375,10.980337221264838,1.9874667793929575,-4.675310901878774
1667710023599049700,10.0590498046875,10.320578012025356,0.7384533912479877,-0.8824235438305884
1667710023609100800,10.069100830078124,10.134494299399853,-1.7371201456934213,1.3357690037950873
1667710023619152000,10.07915185546875,12.429770305901766,-4.477126709353923,3.8319635962218044
1667710023629203000,10.089202880859375,17.72430762336254,-6.613697424021363,6.967578666475415
1667710023639252700,10.099252685546874,21.323587668347358,-7.749207767105102,10.846957509344815
1667710023649303600,10.109303466796876,16.356994019007683,-7.32509154343009,12.497619268769025
1667710023659354600,10.119354736328125,7.914155168199539,-7.598954077273607,11.692590003329515
1667710023669405700,10.12940576171875,3.3218326383918524,-9.069926209023594,10.979622935515641
1667710023679455700,10.139455810546876,2.7087150610789656,-10.787204174649714,10.281298141038418
1667710023689506800,10.1495068359375,3.3073408794417976,-12.226916660261153,9.323864145213365
1667710023699558000,10.159557861328125,4.5058740804105994,-12.966009518456458,8.225572648933529
1667710023709608700,10.169608642578124,5.296142414569855,-13.340882111012935,5.624933639430999
1667710023719658800,10.17965869140625,6.193177179011702,-12.802302472811936,1.6290397102028131
1667710023729709800,10.189709716796875,7.147010519996285,-10.428353327089548,-1.6916656777247785
1667710023739761000,10.199760986328124,5.276115525585412,-7.43866999181509,-2.457138008801639
1667710023749812000,10.20981201171875,0.4874585958380252,-4.56840740121305,-1.7921750934392213
1667710023759861800,10.21986181640625,-2.184395126637816,-2.1393547924280165,-1.1421826604545116
1667710023769912800,10.229912841796875,-0.5345312030604109,0.48332010779380796,-0.295204633612372
1667710023779963600,10.239963623046876,-1.0307225193977356,6.181081667548417,1.606510775269568
1667710023790014700,10.2500146484375,-4.627884257054329,17.70901419264078,5.198155503070354
1667710023800064800,10.260064697265625,-3.990812680441141,28.63500256860256,4.168875291435421
1667710023810115800,10.27011572265625,1.0502047801114618,36.94930739395618,-0.0688468878634274
1667710023820167000,10.2801669921875,4.632139576411247,34.0171912815094,-4.410118581224978
1667710023830217700,10.2902177734375,2.5084452944517133,24.9807494089365,-6.635006169509888
1667710023840267800,10.300267822265624,2.431033553469181,18.021968381422756,-5.324177253443002
1667710023850318600,10.310318603515626,0.8497010585978627,14.406557870370149,-2.3905098199009895
1667710023860369700,10.32036962890625,-4.60491517713815,14.405253217512369,-2.9661624666944144
1667710023870420700,10.330420654296875,-6.59141486506462,14.204129756665228,-3.643440089228749
1667710023880470800,10.340470703125,-4.923133277797699,12.010204000616072,-0.39765199511945243
1667710023890521900,10.35052197265625,-3.2092671664416788,9.02567731745243,4.354131613326072
1667710023900572700,10.36057275390625,-3.852677006165683,6.505820986670256,7.542435486716031
1667710023910623700,10.370623779296874,-5.56329522164166,4.323837597349286,6.210094996064901
1667710023920673800,10.380673828125,-7.273160280662775,1.8817343683332204,3.306763956336677
1667710023930724900,10.390724853515625,-8.375236556178331,-0.6577572217673063,1.85737792571187
1667710023940776000,10.40077587890625,-8.639932617747784,-3.065350278416276,-1.1679533537879585
1667710023950827000,10.410826904296876,-9.280855024570226,-5.529821406584977,-4.740715978725254
1667710023960876800,10.420876708984375,-10.619329487931727,-8.152411551132797,-6.904533889019489
1667710023970927600,10.430927734375,-11.24158577272892,-10.698135898143052,-7.966103382101655
1667710023980978700,10.440978759765626,-10.904742174315452,-13.217636839616297,-9.253772956377267
1667710023991029800,10.45102978515625,-10.458875891125201,-16.315578305035828,-10.311797324198483
1667710024001079800,10.461079833984375,-10.170864420419932,-20.26892547043562,-11.643201410782337
1667710024011131000,10.471130859375,-8.829892879545689,-24.107300687265393,-13.517621656709908
1667710024021181700,10.481181640625,-9.339313058757782,-25.889292824864388,-12.959548213487862
1667710024031232000,10.49123193359375,-10.739158813405036,-23.183975881791113,-8.757772815230489
1667710024041282600,10.501282470703124,-6.677804862272739,-16.507082873666285,-4.029174267539382
1667710024051333600,10.511333740234376,-2.2107000729784367,-10.953119543993472,-3.4255437727570532
1667710024061384700,10.521384765625,0.271164380800724,-7.67403416043818,-3.850537363788485
1667710024071434800,10.531434814453124,3.8096284302949903,-4.590438615757226,-2.3539710643157363
1667710024081485800,10.54148583984375,11.16849598659873,-0.2769061393231153,2.974425268127024
1667710024091536600,10.55153662109375,23.35302428846359,7.691465187710524,15.175084912842511
1667710024101587700,10.561587646484375,22.810599665272235,20.200230119872092,18.209426889532804
1667710024111637800,10.5716376953125,13.221297115689515,24.193996973943708,8.506510820251703
1667710024121688800,10.581688720703125,12.489945665401219,16.549638405323027,5.652160084530711
1667710024131740000,10.591739990234375,8.428375441169738,3.0177935774713753,5.799557215887308
1667710024141791000,10.601791015625,-4.996143568950891,-3.009478169068694,2.0196698438614606
1667710024151840800,10.6118408203125,-17.209818470323086,-1.4514046769708395,-7.450284441763162
1667710024161891600,10.6218916015625,-15.277924525070189,3.475082002907991,-16.62151238592267
1667710024171942700,10.631942626953125,1.9459552038311958,6.5967883747965095,-24.41606385409832
1667710024181993700,10.64199365234375,-7.770194441032409,0.4086719863057136,-17.828142091846466
1667710024192043800,10.652043701171875,-14.276623330467938,-5.180428123199939,-9.37305633840561
1667710024202094800,10.6620947265625,-12.152615744775533,-7.985448134040832,-4.108056665596366
1667710024212146000,10.67214599609375,-13.10452016352415,-9.776704359069466,0.29481179836988447
1667710024222196700,10.68219677734375,-15.38465822212696,-8.656597336822747,2.1885211205266413
1667710024232246800,10.692246826171875,-16.206564972609282,-2.50071148532927,1.0051765016656369
1667710024242297900,10.7022978515625,-14.823338344329594,7.327185300838947,-1.3680556548938154
1667710024252348700,10.7123486328125,-13.064234914886951,18.8968433365047,-1.7312839868858456
1667710024262399700,10.722399658203125,-11.438709934806823,28.83401824351549,0.8603297123789787
1667710024272449800,10.73244970703125,-6.102799573472142,32.67615778131485,6.466920470389724
1667710024282500900,10.7425009765625,8.418631461268664,28.082510140383242,11.988119594579935
1667710024292551700,10.7525517578125,19.310426475727557,16.51088226594925,14.865746576470135
1667710024302602800,10.762602783203125,15.871008491396903,7.193535539805889,10.608684175276755
1667710024312652800,10.77265283203125,7.132194643658399,4.202901187416911,3.236934633307159
1667710024322704000,10.782703857421875,3.6228836234122515,4.072923977416753,-2.2514067618981004
1667710024332755000,10.7927548828125,7.215342882466316,3.4523733274936674,-6.199107153582572
1667710024342805800,10.8028056640625,13.814440703248977,2.030230400842428,-9.203380155223607
1667710024352855800,10.812855712890626,14.949469984817505,1.3661100737839937,-7.8003902573317285
1667710024362906600,10.82290673828125,11.55072770974636,0.9217430892407894,-3.9864714363664384
1667710024372957700,10.832957763671875,8.842606230646371,-0.12648001553416252,-1.2044552114289253
1667710024383008800,10.8430087890625,8.660046600493787,-2.470556585562229,0.24308029595836997
1667710024393058800,10.853058837890625,12.722671886736153,-5.4401604248821736,2.4894389806866646
1667710024403110000,10.86310986328125,19.28438953267336,-7.257448332267999,7.045010281202197
1667710024413160700,10.87316064453125,20.210468605291844,-6.932896060150862,11.7077232750535
1667710024423211800,10.883211669921875,13.733447012126446,-6.729857705593108,13.595249670791626
1667710024433261800,10.89326171875,7.444393630158901,-7.9987249642431735,13.712198472392558
1667710024443313000,10.90331298828125,5.437065381476283,-9.218699304908514,14.366299509739875
1667710024453363700,10.91336376953125,4.508604966679215,-9.908224706858396,14.074564634597301
1667710024463414800,10.923414794921875,3.591057283301651,-10.272032300043106,12.704106302475928
1667710024473464800,10.93346484375,5.587461110126972,-11.118852542507648,10.602544357347488
1667710024483515600,10.943515625,9.497797985839844,-11.770269455337523,6.31787615634799
1667710024493566700,10.953566650390625,10.202596944767237,-9.38278628978133,1.1765011096417903
1667710024503617800,10.96361767578125,4.417782539981603,-5.333495701408386,-1.0892042267218232
1667710024513667800,10.973667724609374,-1.5832085178762674,-2.171754840773344,-0.7249713938623666
1667710024523719000,10.983718994140625,-3.048421355447173,0.6206394972503185,0.007770889729820192
1667710024533769700,10.993769775390625,1.6518939315676688,4.6770045540541405,-0.21989486987777054
1667710024543820800,11.00382080078125,-0.15757544755432754,12.711200060129165,2.5384414965257047
1667710024553870600,11.01387060546875,-0.45193245136141774,25.0526198824048,4.088478689423203
1667710024563921700,11.023921630859375,3.38183439489007,37.147034782624246,-1.1286882419787347
1667710024573972700,11.03397265625,5.6944940823912615,42.00449118089676,-10.166081862318515
1667710024584022800,11.044022705078126,3.2591561097264288,31.710370967686174,-13.944316790962219
1667710024594073900,11.054073974609375,1.6650620406985281,19.70852329200506,-9.95053357027769
1667710024604124700,11.064124755859375,-0.5733166050612926,13.429243116033076,-5.07199463648796
1667710024614175700,11.07417578125,-6.092182902389764,12.91417879345417,-2.910173452968895
1667710024624225800,11.084225830078125,-8.617310451573132,13.878009796839951,-2.789509430237114
1667710024634276900,11.09427685546875,-7.426441793882846,13.33911685490608,-0.11226765804737805
1667710024644328000,11.104327880859374,-4.833510582278668,11.556030492329597,6.124526836633682
1667710024654379000,11.11437890625,-4.388182351487875,9.027048605805636,10.944988844507932
1667710024664428800,11.1244287109375,-5.98394581503272,6.186773157188296,11.461328593850135
1667710024674479600,11.134479736328124,-7.18909317344427,3.523464633283019,7.959059893330931
1667710024684530700,11.14453076171875,-7.573625574749708,0.8609954828113316,5.214731374818086
1667710024694581800,11.154581787109375,-7.822776861184835,-1.1501871032118796,1.7342419599086045
1667710024704631800,11.1646318359375,-8.69279093223214,-3.15682152441144,-2.407707622939348
1667710024714683000,11.174682861328124,-10.960631819319724,-5.794958782181143,-5.460587126839161
1667710024724734000,11.18473388671875,-13.093242398184538,-8.772886797732115,-7.589232309204339
1667710024734784800,11.19478466796875,-13.72465463386178,-12.151361360800266,-9.460776122912764
1667710024744834600,11.20483447265625,-13.594459397196768,-16.03209337184429,-11.659212634384632
1667710024754885600,11.2148857421875,-13.373724057906866,-20.885596064054965,-15.314076034903525
1667710024764936700,11.224936767578125,-11.488222445994614,-26.09606159812212,-18.911855027675628
1667710024774987800,11.23498779296875,-14.001753080886601,-27.758696703934667,-18.21844138611555
1667710024785037800,11.245037841796876,-13.846727354347705,-25.354583890616894,-11.918104393589497
1667710024795089000,11.2550888671875,-8.621042039316892,-18.91844843459129,-4.303842272546887
1667710024805139700,11.2651396484375,-4.758924712371826,-12.189037303721904,-2.8697417815983295
1667710024815190800,11.275190673828124,-2.0681367915190756,-7.22956488456428,-3.1854327018678186
1667710024825240800,11.28524072265625,5.1022214324474335,-3.2962522069334983,-0.41051118443161244
1667710024835292000,11.2952919921875,21.43287689510584,0.80639120144248,7.3600284167766565
1667710024845343000,11.305343017578124,34.28558035237789,9.449869528973101,18.719670075565574
1667710024855393800,11.315393798828126,23.062661870718,19.64909144434929,14.225397001099585
1667710024865443600,11.325443603515625,14.119277052026986,18.9502090159893,8.558082017534971
1667710024875494700,11.33549462890625,14.704003524374961,9.944763170182704,7.870282124203443
1667710024885545700,11.345545654296876,4.820009587931633,1.9421733472049234,5.119664734679461
1667710024895596800,11.3555966796875,-15.201653770816325,1.325103525134921,-3.603734686306119
1667710024905646800,11.365646728515625,-17.811387356400488,6.746214966154098,-13.410778069537876
1667710024915698000,11.375697998046874,-10.844308456140755,11.86095101225972,-19.382736509656905
1667710024925748700,11.385748779296875,-6.527160711818933,8.31104494677484,-22.096622543632982
1667710024935799800,11.3957998046875,-11.909641685670614,-3.047256987842917,-14.238603688675164
1667710024945849600,11.405849609375,-12.318092722702026,-9.106912416115403,-8.67410493646264
1667710024955900700,11.415900634765626,-15.175298847854137,-11.504739865553379,-4.902765320290625
1667710024965951700,11.42595166015625,-18.290846112591026,-11.12533956643939,-3.403781438282132
1667710024976002800,11.4360029296875,-18.09210750105381,-6.175399530258774,-2.3852032379254697
1667710024986052900,11.446052978515626,-15.229560014873742,3.5064503701180216,-2.083092514719069
1667710024996103700,11.456103759765625,-12.74492697316408,15.387970123153924,-2.7053482149943706
1667710025006154800,11.46615478515625,-11.008369722050428,26.787031938183308,-1.154544713899493
1667710025016205800,11.476205810546874,-8.917798542013763,33.385767355394364,3.328545580033958
1667710025026256000,11.486255859375,3.33233708127141,32.92886529892683,9.877304667937755
1667710025036307000,11.496306884765625,19.86716487095356,22.680866200900077,14.351278466218709
1667710025046357800,11.506357666015624,21.29525238522291,12.009002223610878,10.704751516890525
1667710025056408800,11.516408935546876,12.699413760745525,6.944519862449169,3.7166461952149867
1667710025066458600,11.526458740234375,8.198391796541214,4.898031569766998,-2.1012351973921057
1667710025076509700,11.536509765625,10.674663837140798,3.701689449101686,-6.439096643918752
1667710025086560800,11.546560791015626,14.76141058820486,2.3719863212168217,-7.488534969702362
1667710025096611800,11.55661181640625,13.228906421649455,2.212081590464711,-4.0063939881935715
1667710025106662000,11.566661865234375,9.944735113132,2.702657952997088,1.3553978333726524
1667710025116712700,11.576712646484374,7.661853308779,1.4825614472568034,3.564479365238547
1667710025126763800,11.586763671875,8.205063529390095,-1.6929823132812976,4.952665661752223
1667710025136814800,11.59681494140625,11.998017888259888,-4.88066425538063,7.494910349953174
1667710025146865000,11.606864990234374,17.976463352310656,-8.081848653131724,10.81841530547142
1667710025156915700,11.616915771484376,20.631118614161014,-9.439733919405937,14.969951631832123
1667710025166966800,11.626966796875,12.614476884955167,-8.799448056921362,17.087080563926694
1667710025177016800,11.637016845703124,3.5943303136229514,-9.11907923924923,16.25220093462467
1667710025187067600,11.647067626953126,2.227841469654441,-10.491083047246933,14.804143814516067
1667710025197118700,11.65711865234375,4.500748407959938,-11.788413014793395,13.240388769650458
1667710025207169800,11.667169677734375,6.805416512185335,-12.649669778889416,11.625097598814964
1667710025217219800,11.6772197265625,7.098779280790686,-13.17423492026329,8.394087971642612
1667710025227271000,11.68727099609375,6.134796886235475,-11.428165159916878,2.7660119425326584
1667710025237321700,11.69732177734375,4.878220369359851,-6.607310353332758,-1.096709487785399
1667710025247372800,11.707372802734374,2.9062095177739855,-3.3932980381906033,-1.8860303119614719
1667710025257422600,11.717422607421875,-0.11180018666610121,-1.28064362116158,-1.310702074816823
1667710025267473700,11.7274736328125,-0.4840994216032326,1.1122773515343665,-0.5455207991084083
1667710025277525200,11.737525146484375,0.8098352044165134,4.962592012482881,0.6232204536542296
1667710025287576300,11.747576416015624,-1.8092454707056282,13.61470957354307,4.08611722098887
1667710025297626400,11.75762646484375,-0.8296341298639773,27.3587387699604,4.518876185324788
1667710025307677200,11.76767724609375,0.8779355847615748,39.76564141049385,-2.538583243083954
1667710025317728300,11.777728271484374,0.953853141663596,42.790518808746334,-12.480028667020797
1667710025327779300,11.787779296875,-0.5579588769316673,30.442839926075933,-15.185333919656276
1667710025337829400,11.797829345703125,0.8629881179332732,18.422537725293637,-11.048346343129873
1667710025347880400,11.80788037109375,1.0843956573963165,12.718992905962466,-6.255125393402576
1667710025357931300,11.81793115234375,-4.931707044875622,12.885371216642856,-5.70039073921442
1667710025367982300,11.827982421875,-9.740313779783248,14.665301161015034,-6.491589047700167
1667710025378032000,11.8380322265625,-8.033285405492782,13.707978224349022,-2.9247973138660193
1667710025388083200,11.848083251953126,-4.72087058378756,10.781176584923267,4.026019602900743
1667710025398134300,11.85813427734375,-4.864033730836212,7.7008543628245585,10.260151308113336
1667710025408185300,11.868185302734375,-6.8781859803199765,5.037535902047157,11.245941629850863
1667710025418235400,11.8782353515625,-8.01769503765106,2.5686194849073885,7.321684949856996
1667710025428286200,11.8882861328125,-8.475099782943724,-0.34341070184409617,4.588516123262048
1667710025438337300,11.898337158203125,-8.370738075715304,-3.558177634745836,0.6908160262823104
1667710025448388400,11.908388427734375,-8.824972374278307,-6.321097456482052,-3.490692244493961
1667710025458438100,11.918438232421876,-10.89786352071762,-8.899127159291504,-6.597592092394828
1667710025468489200,11.9284892578125,-12.579654577898978,-11.567951231747864,-9.21111630243361
1667710025478540300,11.938540283203125,-13.133832767248153,-15.063016869020462,-11.236002419638632
1667710025488591000,11.948591064453124,-13.112232345336675,-19.601448234164714,-12.505712558853626
1667710025498641200,11.95864111328125,-11.63627482638955,-24.055198744106292,-14.067453341287374
1667710025508692200,11.968692138671875,-10.52299794242382,-26.921324673295018,-15.397182188135385
1667710025518743300,11.978743408203124,-10.891415075230597,-27.175846546852586,-14.329334345436095
1667710025528794400,11.98879443359375,-8.284199609947205,-24.799561651659012,-10.400043762928247
1667710025538844400,11.998844482421875,-4.272621204853057,-19.012471118634938,-5.619018277907371
1667710025548895200,12.008895263671874,-1.1271792987205087,-11.834157697880267,-3.6064518363103266
1667710025558946300,12.0189462890625,1.803112082517147,-6.558410421085357,-2.9206761422827836
1667710025568997400,12.028997314453125,8.426986617159843,-2.931936664226651,0.20523732590675353
1667710025579047200,12.039047119140625,18.22217297385931,0.9415449372977018,7.908961106687784
1667710025589098200,12.04909814453125,23.881523262155053,8.836818294894695,19.135283843833207
1667710025599149300,12.0591494140625,11.327703382736443,17.992979602825642,16.253846948266027
1667710025609200000,12.0692001953125,4.646613507443666,20.695250017809865,7.45629332678914
1667710025619250200,12.079250244140624,10.74802951760292,19.487218628394604,4.746678978782892
1667710025629301200,12.08930126953125,14.276822067910432,10.881885030341147,4.614643667209148
1667710025639352300,12.099352294921875,17.530220637023447,5.677534764283895,1.393733993768692
1667710025649403400,12.1094033203125,8.873541467136144,11.76440085556507,-1.5243847191162407
1667710025659453400,12.119453369140626,-25.206793376028536,13.826456135213375,-11.115796662068366
1667710025669504300,12.129504150390625,-24.846999110138416,8.230423596096038,-20.577438461899757
1667710025679555000,12.13955517578125,-15.768548818397521,-3.1402643573641775,-19.716404985165596
1667710025689606100,12.149606201171874,-15.055346772783993,-11.424087535214424,-13.498597807288169
1667710025699656200,12.15965625,-16.18316422327757,-14.626787013703584,-8.963902706062793
1667710025709707300,12.169707275390625,-17.681609468364716,-16.10445250561237,-7.4822618807822465
1667710025719758300,12.17975830078125,-18.948726668477057,-14.535504568278789,-7.269075641697645
1667710025729809400,12.189809326171876,-18.51354076925516,-11.172591146957874,-5.450176207461952
1667710025739859500,12.199859375,-15.477445226895808,-3.473124439099431,-3.2871202214509245
1667710025749910300,12.20991015625,-13.752543342262506,3.650150985044241,-1.839107671136409
1667710025759961300,12.21996142578125,-11.798471467471122,21.44259164891243,-1.7423291125133633
1667710025770012400,12.230012451171875,-9.918816243499517,40.09130427420139,2.061424872790277
1667710025780062200,12.240062255859375,1.6528887878239154,47.79148234519958,11.295336067616939
1667710025790113300,12.25011328125,20.03156515955925,28.645935466027257,17.567826437318324
1667710025800164000,12.2601640625,19.58947722586393,12.142579503929614,9.103069184690714
1667710025810215200,12.270215087890625,8.028724965709447,6.831429489842057,1.7020616917937994
1667710025820265200,12.28026513671875,4.424063812208176,4.309233902457356,-3.2789985820546743
1667710025830316300,12.29031640625,10.751576396429538,2.059430776363611,-7.31393886577487
1667710025840367400,12.300367431640625,17.223898433601857,0.898108531153202,-11.041878023898601
1667710025850418400,12.31041845703125,15.32236455529928,1.3678449347525834,-11.18824698125124
1667710025860468500,12.320468505859376,12.61551616487503,2.3094880717277526,-6.683586952805519
1667710025870519000,12.33051904296875,9.286749343305825,2.491248660457134,-1.5111948365449905
1667710025880570000,12.340570068359375,6.18866759263277,0.5582675044894219,1.333571639881283
1667710025890620200,12.3506201171875,7.766758621364832,-3.562860824126005,3.5608269802108405
1667710025900671200,12.360671142578125,13.045719599509239,-7.137538342773914,7.253432082363963
1667710025910722300,12.370722412109375,15.658095224034785,-8.698160934832691,11.900773319560288
1667710025920773400,12.3807734375,14.520502229458092,-9.7873064171046,14.806166260254383
1667710025930823400,12.390823486328125,12.815486948555707,-10.08505777605772,17.21691573510766
1667710025940874200,12.400874267578125,8.211278166121243,-9.24852570337355,18.772521375787257
1667710025950925300,12.41092529296875,3.2929631022602317,-9.085957890892029,17.852105151236056
1667710025960976400,12.420976318359376,3.4838726276069876,-9.668867669206858,16.22154743768573
1667710025971026200,12.431026123046875,8.00702868220806,-10.110914686369895,14.881336944311856
1667710025981077200,12.4410771484375,11.055061330598592,-10.393767166876792,9.846114579904079
1667710025991128300,12.45112841796875,9.62048211622238,-8.49672241668701,1.7114178414210677
1667710026001179100,12.46117919921875,4.206676029780507,-5.249463080981373,-2.0936334902167317
1667710026011229200,12.471229248046875,-0.8122966260939836,-2.294910095798969,-2.0185513612255455
1667710026021280300,12.4812802734375,-2.3159667662225663,0.768708828780055,0.14385953181497751
1667710026031331300,12.491331298828126,0.20309622222483156,3.541875319242477,0.6027715398654341
1667710026041382400,12.50138232421875,-0.8807715388398617,7.257810735839605,2.325196951382607
1667710026051432400,12.511432373046874,-0.9157330351710319,14.880129322087765,3.927836292046308
1667710026061483300,12.521483154296876,1.8089818513333797,29.031067586791515,3.070970748646557
1667710026071534000,12.5315341796875,1.8356851493418216,43.79716837863922,-1.365521021849662
1667710026081585200,12.541585205078125,0.22819471538513897,46.76176052727699,-7.849644994366169
1667710026091635200,12.55163525390625,0.2506333416864276,36.357385457146165,-9.734700031554699
1667710026101686300,12.561686279296875,2.9312872604072093,23.13060669517517,-6.586877806156873
1667710026111737300,12.5717373046875,-1.7183374115511774,16.42712144820094,-5.035789350640774
1667710026121788200,12.5817880859375,-9.019279725369811,14.68507670558691,-5.987930500754714
1667710026131838200,12.591838134765625,-8.700001594263314,12.683100923848151,-4.014831561671198
1667710026141889300,12.60188916015625,-5.306486113929748,9.394261038997769,1.7412857409402727
1667710026151940400,12.6119404296875,-5.576958420813083,5.813556515145302,7.186584405493736
1667710026161991400,12.621991455078126,-7.692451860660314,2.839756977701187,9.40241102770567
1667710026172041200,12.632041259765625,-9.271079480487108,0.29363223319649695,7.139402967602014
1667710026182092300,12.64209228515625,-9.870893631851672,-2.504011695918441,4.8655739460155365
1667710026192143000,12.65214306640625,-9.686549456369876,-4.861740943723917,1.969962979145348
1667710026202194200,12.662194091796875,-10.280532417362927,-7.007281146788596,-2.3819942127510902
1667710026212244200,12.672244140625,-12.513114944064617,-9.412797981685399,-5.811543421757221
1667710026222295300,12.68229541015625,-13.789412644976377,-12.037295421159266,-9.107152654612063
1667710026232346400,12.692346435546876,-14.051007233399153,-15.29097689886689,-12.63666650493145
1667710026242397200,12.702397216796875,-14.798260017174481,-19.880262837457657,-15.581529870748518
1667710026252447500,12.712447509765624,-15.460739591288565,-24.71263155622482,-17.98630670093298
1667710026262498300,12.722498291015626,-15.02698693974018,-26.71807939798832,-19.312367088401317
1667710026272549400,12.73254931640625,-13.196685237002372,-25.231420452284812,-16.2522219774127
1667710026282600200,12.74260009765625,-7.795268092012405,-21.862081966352463,-10.571295817124843
1667710026292650200,12.752650146484376,-1.7632358530722558,-15.11835472536087,-7.03360976626575
1667710026302701300,12.762701416015625,2.569817754781246,-7.709601148381829,-5.84326893184185
1667710026312752000,12.772752197265625,11.568629277139902,-3.4278637401372194,-2.52746534448117
1667710026322803200,12.78280322265625,23.807225853800773,-0.21143559602499007,5.523972680556774
1667710026332853000,12.79285302734375,32.28331230969429,6.644728522101044,18.669182581865787
1667710026342904000,12.802904052734375,19.278760586875677,18.758541950273514,16.30662109159827
1667710026352955100,12.812955078125,6.533133356487751,24.70127546495199,10.584178679573535
