time,seconds_elapsed,z,y,x
1667710013568404500,0.028404541015625,-9.303248058164119,-3.0112483936116097,0.7431943752299994
1667710013578455600,0.03845556640625,-9.266213920277357,-3.1048586974620815,0.8170213165283202
1667710013588506400,0.04850634765625,-9.232615602058171,-3.1799636228069663,0.9038958823829889
1667710013598556200,0.05855615234375,-9.206755184614657,-3.225326613099873,1.0016524191927165
1667710013608607200,0.068607177734375,-9.191414992141723,-3.234785930840671,1.1065449453622103
1667710013618658300,0.078658203125,-9.186803698953986,-3.208677968376875,1.2154887196838855
1667710013628709400,0.08870947265625,-9.19188845487237,-3.150920191413164,1.3233582889027893
1667710013638759400,0.098759521484375,-9.203499397689104,-3.0685990510791537,1.43167180249691
1667710013648810500,0.108810546875,-9.218849527034163,-2.9685125369518994,1.5398472227945923
1667710013658861300,0.118861328125,-9.235282775440812,-2.8584412199050186,1.6459803236097097
1667710013668912400,0.128912353515625,-9.25055983954966,-2.744928822493553,1.7501104140393435
1667710013678962400,0.13896240234375,-9.263656052488088,-2.6319775660961864,1.8514194556988774
1667710013689013500,0.149013427734375,-9.274352803069352,-2.5227649117052553,1.9474151933811603
1667710013699064600,0.159064697265625,-9.281602628067136,-2.4234473361238837,2.036942757962644
1667710013709115400,0.169115478515625,-9.284201412388683,-2.339079200132191,2.121955621598661
1667710013719165400,0.17916552734375,-9.28161314946115,-2.2728186755001545,2.2037096295692025
1667710013729216300,0.18921630859375,-9.273020677682757,-2.2277662124611437,2.2844094523116945
1667710013739267300,0.199267333984375,-9.258050487565994,-2.20425133523047,2.366466973273456
1667710013749318400,0.209318359375,-9.236455910873412,-2.202396939535439,2.451064095715433
1667710013759368400,0.219368408203125,-9.208357943636178,-2.220662664066255,2.5387363878190516
1667710013769419500,0.22941943359375,-9.17409502402842,-2.256819142335653,2.6292849660113453
1667710013779470300,0.23947021484375,-9.134217771670222,-2.30914334994331,2.7210852978304025
1667710013789521400,0.249521484375,-9.089374421337247,-2.3752915002420543,2.81276492587924
1667710013799571500,0.259571533203125,-9.04139861819744,-2.4495462384983897,2.902278023543954
1667710013809622300,0.269622314453125,-8.99275938271284,-2.525330086018145,2.9872002862870692
1667710013819673300,0.27967333984375,-8.944972380143403,-2.599310683508217,3.0661770846292375
1667710013829724400,0.289724365234375,-8.89846606503427,-2.671137902356684,3.1389024213612076
1667710013839774500,0.2997744140625,-8.852073147171735,-2.7417870173364878,3.2083935984775422
1667710013849825300,0.3098251953125,-8.803727926197647,-2.812968047235906,3.279019917103648
1667710013859876400,0.31987646484375,-8.752067881587147,-2.885124644169211,3.353767407312989
1667710013869927400,0.329927490234375,-8.697097689515351,-2.957442276883125,3.4328426975935695
1667710013879977500,0.3399775390625,-8.640689573594928,-3.028728228461742,3.5122181398645043
1667710013890028500,0.350028564453125,-8.583657772818206,-3.097610333769023,3.591101999226212
1667710013900079600,0.36007958984375,-8.527973294997215,-3.161289901997149,3.667465400199592
1667710013910130400,0.37013037109375,-8.475116149556637,-3.215907627369463,3.7417543329864738
1667710013920180200,0.38018017578125,-8.427911330789327,-3.25867826308161,3.8107363915368913
1667710013930231300,0.390231201171875,-8.386735270792245,-3.29206206176728,3.8723873765468597
1667710013940282400,0.400282470703125,-8.347450723630189,-3.320098654206097,3.9328608422100544
1667710013950333400,0.41033349609375,-8.309239358657598,-3.3427278346434233,3.994132180252671
1667710013960383500,0.420383544921875,-8.271316747498512,-3.3565152447164057,4.0607279281884425
1667710013970434300,0.430434326171875,-8.233410502952337,-3.3580668580725788,4.135785799521208
1667710013980485400,0.4404853515625,-8.194733858555555,-3.3465541149333116,4.221054391483962
1667710013990536400,0.450536376953125,-8.153371336075663,-3.325363150605559,4.316813982322812
1667710014000586500,0.46058642578125,-8.107028687095642,-3.301071005392074,4.421469996322691
1667710014010637300,0.47063720703125,-8.052510330444575,-3.28321269261837,4.5329877127856015
1667710014020688400,0.4806884765625,-7.986183462578058,-3.2839337003692983,4.648336970235407
1667710014030739200,0.4907392578125,-7.906771487689018,-3.3123987473532557,4.762495848856866
1667710014040789200,0.500789306640625,-7.817367111095786,-3.368727076035738,4.869377137690782
1667710014050840300,0.51084033203125,-7.723820812392234,-3.444612338103354,4.964637254574894
1667710014060891400,0.520891357421875,-7.63087657123506,-3.5242636747062206,5.051699451956153
1667710014070942500,0.5309423828125,-7.542442500978708,-3.5896474165037273,5.137741074118018
1667710014080992500,0.540992431640625,-7.4606749028742305,-3.6267341613605617,5.2302504309892655
1667710014091043600,0.551043701171875,-7.386490891766548,-3.6280475820466873,5.333611436742544
1667710014101094400,0.561094482421875,-7.3196163268893955,-3.597701251360774,5.445194911918044
1667710014111145500,0.5711455078125,-7.258039283898472,-3.5505543002605435,5.557410839778185
1667710014121195300,0.5811953125,-7.197462942382693,-3.5016423853144047,5.666164059963822
1667710014131246300,0.591246337890625,-7.133954054546356,-3.4623195519685743,5.769699837762117
1667710014141297400,0.60129736328125,-7.068211708569526,-3.435789856961369,5.865671902307867
1667710014151348500,0.611348388671875,-7.00609982804954,-3.4182693978399037,5.949822596156597
1667710014161398500,0.6213984375,-6.950088602492213,-3.404557098829746,6.022925826290249
1667710014171449300,0.631449462890625,-6.900173940244317,-3.3917283046558495,6.087212712761759
1667710014181500400,0.64150048828125,-6.857870337522029,-3.381567268386483,6.14043927603662
1667710014191551500,0.651551513671875,-6.82317954789102,-3.379088895574212,6.180321204569935
1667710014201601500,0.6616015625,-6.792902483049034,-3.3868688819259405,6.209345639002323
1667710014211652400,0.67165234375,-6.763391141882538,-3.401370285487175,6.233586346289515
1667710014221703200,0.681703125,-6.738337364646792,-3.415951768547296,6.252717163217067
1667710014231754200,0.691754150390625,-6.721143068739772,-3.4269229521557687,6.26520781147778
1667710014241804300,0.70180419921875,-6.715308955758809,-3.4334248813956973,6.267902457389235
1667710014251855400,0.71185546875,-6.722869161880016,-3.433873794206977,6.259546716976166
1667710014261906400,0.721906494140625,-6.744374891245365,-3.4251346074342726,6.2411728558957575
1667710014271957500,0.73195751953125,-6.780503020203113,-3.404811073590815,6.213085410052537
1667710014282007600,0.742007568359375,-6.830299024507403,-3.3738118319541215,6.175337570938468
1667710014292058400,0.752058349609375,-6.888667042323947,-3.3352669972434636,6.131283909678459
1667710014302109400,0.762109375,-6.95067195533812,-3.2939240562468766,6.083470019102096
1667710014312160500,0.772160400390625,-7.012852224919199,-3.2554932033047077,6.0325821279078715
1667710014322210300,0.782210205078125,-7.07404172989726,-3.224639507618546,5.977458206579088
1667710014332261400,0.792261474609375,-7.133668223342299,-3.2023648397073146,5.9182794569015496
1667710014342312400,0.8023125,-7.191292729315161,-3.186871794760227,5.856580248835683
1667710014352363300,0.81236328125,-7.24513654770553,-3.174916568550467,5.796403135770559
1667710014362413300,0.822413330078125,-7.293116442498564,-3.164518216393888,5.741659738191962
1667710014372464400,0.83246435546875,-7.336782565745711,-3.1546941569939255,5.691212576502561
1667710014382515500,0.842515380859375,-7.378543147632479,-3.145742788775265,5.6419666072964665
1667710014392566500,0.85256640625,-7.418884510371089,-3.139479928988218,5.5923348536431785
1667710014402616600,0.862616455078125,-7.457832372924685,-3.1393633168712256,5.54035449103713
1667710014412667400,0.87266748046875,-7.495340558063983,-3.148839001224935,5.484074385410547
1667710014422718200,0.88271826171875,-7.53149031433165,-3.1689021305665372,5.422646980023384
1667710014432769300,0.892769287109375,-7.567064316537976,-3.1979972921475768,5.35562628467381
1667710014442819300,0.9028193359375,-7.603278370213508,-3.2330247663870453,5.282811808353662
1667710014452870400,0.912870361328125,-7.640330628278851,-3.2709938470363613,5.2054135113745925
1667710014462921500,0.92292138671875,-7.678254408481717,-3.3115348240002986,5.123331440493464
1667710014472972300,0.93297216796875,-7.715270426189899,-3.353483914196491,5.039754747140408
1667710014483022300,0.943022216796875,-7.7495041197031735,-3.3946289945334196,4.959038119393587
1667710014493073400,0.953073486328125,-7.780168722558021,-3.431461764629185,4.885123865137994
1667710014503124500,0.96312451171875,-7.806790772023796,-3.461729184859991,4.820875264850258
1667710014513175600,0.973175537109375,-7.828383010628819,-3.485419857048988,4.768506195187569
1667710014523225300,0.983225341796875,-7.846050769266486,-3.5025273514553903,4.726751166258752
1667710014533276400,0.9932763671875,-7.863440295484661,-3.513706624856591,4.689408400814235
1667710014543327200,1.0033271484375,-7.884045276618004,-3.520323704908788,4.649681370581686
1667710014553378300,1.01337841796875,-7.909867700138688,-3.5234669713705777,4.603211880351603
1667710014563428400,1.023428466796875,-7.941988931542634,-3.523346852122247,4.547660965782404
1667710014573479400,1.0334794921875,-7.980577897655963,-3.5200951568499206,4.482153013083338
1667710014583530500,1.043530517578125,-8.025795926520228,-3.5141321567922827,4.405435684105754
1667710014593581300,1.053581298828125,-8.07680072209239,-3.505202415883541,4.318475778055191
1667710014603631600,1.063631591796875,-8.130791255477071,-3.49290436758548,4.226137393836677
1667710014613682400,1.073682373046875,-8.18510093781352,-3.4769501348674297,4.133439528656005
1667710014623733200,1.083733154296875,-8.238338607004284,-3.454565284579992,4.045508439485729
1667710014633784300,1.093784423828125,-8.291642911690474,-3.420139283365011,3.965058353720605
1667710014643834400,1.10383447265625,-8.34720756252408,-3.369919208429754,3.8907781887620687
1667710014653885400,1.113885498046875,-8.404150515973567,-3.3080703627601262,3.8206434530451894
1667710014663936300,1.123936279296875,-8.459775957083702,-3.2434289637625215,3.7526989208489656
1667710014673987300,1.1339873046875,-8.508830787631869,-3.186445386041701,3.690087858635187
1667710014684037400,1.144037353515625,-8.547291158929466,-3.1469138783812522,3.634711716111004
1667710014694088400,1.15408837890625,-8.572900231960416,-3.131883774770796,3.587070551753044
1667710014704139500,1.164139404296875,-8.585635794892907,-3.1429858912825583,3.5466719058692453
1667710014714190600,1.174190673828125,-8.587126325711607,-3.177649500645697,3.5120062506794927
1667710014724240400,1.184240478515625,-8.579090318772197,-3.229725432580709,3.4840310330390927
1667710014734291200,1.194291259765625,-8.562645379927753,-3.291345437930524,3.4667753623336552
1667710014744342300,1.20434228515625,-8.539832075095177,-3.355727893730998,3.4613206040591
1667710014754393300,1.214393310546875,-8.512603876429795,-3.414222168275714,3.471173597292602
1667710014764443400,1.224443359375,-8.483287181052566,-3.4610423716396093,3.4964842718988653
1667710014774494500,1.234494384765625,-8.454693539252876,-3.4927374865859746,3.5340248980030413
1667710014784545500,1.244545654296875,-8.42844675284028,-3.5101267205432056,3.579199964508414
1667710014794596400,1.254596435546875,-8.405047757074236,-3.5167347405061125,3.627414252579212
1667710014804646400,1.264646484375,-8.385019699046016,-3.5182486522004006,3.6720226251125334
1667710014814697500,1.274697509765625,-8.368189560276269,-3.5196178947269914,3.7089179390504956
1667710014824748500,1.28474853515625,-8.353682311496138,-3.525221413822472,3.7361987446859475
1667710014834799400,1.29479931640625,-8.341378125718235,-3.5367604604467746,3.752748020687699
1667710014844849400,1.304849365234375,-8.331314996865391,-3.554910157382488,3.75794968098402
1667710014854900500,1.314900390625,-8.3212658965379,-3.580044890899956,3.7563539362251754
1667710014864951300,1.324951416015625,-8.309642678761481,-3.6111245042964812,3.7523330101460215
1667710014875002400,1.33500244140625,-8.296093461358547,-3.645868193158507,3.748714527387917
1667710014885052400,1.345052490234375,-8.280705338090657,-3.6802158684402704,3.7491742538541555
1667710014895103500,1.355103515625,-8.263148054090141,-3.7113083413183685,3.757254099935293
1667710014905154600,1.365154541015625,-8.243083171182871,-3.7366803907230492,3.7761329879283902
1667710014915205400,1.375205322265625,-8.220649805578589,-3.754944653949141,3.8067952526956796
1667710014925255400,1.38525537109375,-8.196359413930773,-3.7668826367631554,3.847164380224049
1667710014935306200,1.39530615234375,-8.169457378479837,-3.776721016949415,3.8944486939683554
1667710014945357300,1.405357421875,-8.138525064599513,-3.788970549930632,3.9469600947111845
1667710014955408400,1.415408447265625,-8.102346666759251,-3.8090404012739656,4.001695893505215
1667710014965458400,1.42545849609375,-8.060322465500235,-3.839672270902991,4.056907785378396
1667710014975509500,1.435509521484375,-8.011246592164039,-3.8809079521328207,4.114470624291896
1667710014985560300,1.445560302734375,-7.953470695021748,-3.9316275010228154,4.1779166760250925
1667710014995611400,1.455611328125,-7.887438426187634,-3.990688761800527,4.246539838135242
1667710015005661400,1.465661376953125,-7.812960985091328,-4.05611692726165,4.3215661452859635
1667710015015712500,1.47571240234375,-7.729391306000948,-4.124852609835565,4.405959707979858
1667710015025763600,1.485763671875,-7.635195603477954,-4.194036912959814,4.503801658050715
1667710015035814400,1.495814453125,-7.5304533724993465,-4.2621053637966515,4.614878937269747
1667710015045864400,1.505864501953125,-7.413465407931804,-4.3259108964920046,4.743142621350288
1667710015055915300,1.515915283203125,-7.283100659918785,-4.378189365261793,4.894720545522868
1667710015065966300,1.52596630859375,-7.1351721981644625,-4.4161242513805625,5.075189633136987
1667710015076017400,1.536017333984375,-6.96214261290133,-4.442563053233921,5.287965537855029
1667710015086068500,1.546068359375,-6.754952399361133,-4.450786399438977,5.54360034109056
1667710015096118500,1.556118408203125,-6.5211354601800435,-4.435313812758028,5.828650039380788
1667710015106169300,1.56616943359375,-6.250856630042195,-4.404121971158683,6.140104344993829
1667710015116220400,1.576220458984375,-5.935332298511266,-4.367599582186341,6.470415911290049
1667710015126271500,1.586271484375,-5.577313225600123,-4.3276849204272025,6.806989460590481
1667710015136321300,1.5963212890625,-5.176712317547202,-4.274003014600277,7.148771099928021
1667710015146372400,1.606372314453125,-4.739696864810585,-4.193278495807945,7.49146693150103
1667710015156423400,1.61642333984375,-4.276725717562437,-4.074176315565407,7.828224020674824
1667710015166473500,1.626473388671875,-3.778543263940513,-3.9109453630000353,8.160729297623037
1667710015176524300,1.636524169921875,-3.231265647760033,-3.7064220305815336,8.484794663006067
1667710015186575400,1.646575439453125,-2.634391933761537,-3.4743951896876095,8.784015509989857
1667710015196626400,1.65662646484375,-2.006017750605941,-3.233343915338814,9.038349752020835
1667710015206677500,1.666677490234375,-1.3644398024842141,-3.0007769762188192,9.236019273021817
1667710015216727600,1.6767275390625,-0.7006213809818029,-2.777294384047389,9.379026060464978
1667710015226778600,1.686778564453125,-0.03428377288283081,-2.5494541811883447,9.46939723626375
1667710015236829200,1.6968291015625,0.6177801622964442,-2.302928274820745,9.512372454637289
1667710015246880300,1.70688037109375,1.263672758746892,-2.0221436866290867,9.51233095358312
1667710015256930300,1.716930419921875,1.8925778339087962,-1.6918297822453081,9.472392910948395
1667710015266981400,1.7269814453125,2.474848437537253,-1.300493838404864,9.399692416396736
1667710015277032400,1.737032470703125,2.9906518880456683,-0.8548485775541513,9.300303821405768
1667710015287083300,1.747083251953125,3.4272508689358827,-0.3617780235858634,9.181147865149379
1667710015297133600,1.757133544921875,3.782273098118603,0.1662534787243232,9.046389850613474
1667710015307184400,1.767184326171875,4.055337175060808,0.7195476152479648,8.89982507842779
1667710015317235500,1.7772353515625,4.244205549968779,1.3001878411956131,8.744521119469404
1667710015327286500,1.78728662109375,4.372309659573435,1.8979082351513206,8.570368083134293
1667710015337336300,1.79733642578125,4.454379747755826,2.494690325343609,8.372895546010136
1667710015347387400,1.807387451171875,4.491197612543404,3.071625413163006,8.158714450669288
1667710015357438200,1.817438232421875,4.497393252313136,3.6185339037701487,7.927802585279941
1667710015367489300,1.8274892578125,4.48996397909522,4.128086477190256,7.679159832888841
1667710015377539300,1.837539306640625,4.477405526295304,4.594478538797795,7.417139712530374
1667710015387590400,1.84759033203125,4.45976085627228,5.014802092191577,7.150709374514221
1667710015397641500,1.857641357421875,4.442050135275721,5.390361497968435,6.883503375950455
1667710015407692500,1.867692626953125,4.416403652843833,5.7230964920192955,6.626610681608319
1667710015417742600,1.87774267578125,4.363173874698579,6.018741818603873,6.39592561071217
1667710015427793400,1.88779345703125,4.2624964089408515,6.290351020562649,6.199433316797018
1667710015437844500,1.897844482421875,4.109842087708413,6.545363307985663,6.03637158331871
1667710015447895300,1.907895263671875,3.9076746707662937,6.786261145338416,5.903143847090005
1667710015457945300,1.9179453125,3.664675477220118,7.009023022019862,5.797769163426756
1667710015467996400,1.927996337890625,3.38661782977432,7.214393034395575,5.71434152315557
1667710015478047500,1.938047607421875,3.077258158352971,7.402470551186799,5.648391671907901
1667710015488098300,1.948098388671875,2.7466902792081234,7.5711343424558635,5.594996766328811
1667710015498148400,1.9581484375,2.401396101704985,7.721537085369229,5.548111096513271
1667710015508199400,1.968199462890625,2.0519421741738912,7.856258275026082,5.499010673257708
1667710015518250500,1.97825048828125,1.7050160115547477,7.976056620839238,5.444797437033057
1667710015528301600,1.988301513671875,1.3627898433201013,8.078848302271961,5.389375994062424
1667710015538351400,1.998351318359375,1.026919035461545,8.162541900002957,5.337482725217938
1667710015548402400,2.00840234375,0.702827001267299,8.221939845389127,5.298692099052667
1667710015558453200,2.018453369140625,0.3914304902561009,8.248316395661234,5.289843606686592
1667710015568504300,2.02850439453125,0.08585652051907963,8.23720931071341,5.320846063193678
1667710015578554400,2.038554443359375,-0.21453434749161823,8.197434349685906,5.378329699391126
1667710015588605400,2.04860546875,-0.4924652084862813,8.15718124975264,5.421093320840597
1667710015598656500,2.058656494140625,-0.7591262499857694,8.12708187956512,5.435498278290033
1667710015608707300,2.068707275390625,-1.0223951282963155,8.100423005220293,5.43214662977457
1667710015618757400,2.07875732421875,-1.2569849515460432,8.058681128033996,5.444998512563109
1667710015628808400,2.088808349609375,-1.4464010234646498,8.007205792340637,5.473842914253473
1667710015638859500,2.098859619140625,-1.557323696643859,7.9450144168436525,5.5337026319324965
1667710015648910300,2.108910400390625,-1.5984470035403966,7.862270667183399,5.639152134397626
1667710015658960400,2.11896044921875,-1.5688051678620278,7.758820814102887,5.788775125110149
1667710015669011500,2.129011474609375,-1.4923336303390562,7.615594830951094,5.995500643748045
1667710015679062300,2.139062255859375,-1.4231390980817378,7.438101836538315,6.230546832463145
1667710015689113300,2.14911328125,-1.326689040760696,7.2698419498950235,6.446679646393656
1667710015699163400,2.159163330078125,-1.1982444471552967,7.154958264130354,6.5985711665600535
1667710015709214500,2.16921435546875,-1.0938570209637284,7.099130578446387,6.676540541425347
1667710015719265500,2.179265625,-0.9953450626768171,7.0657806820303195,6.727139678806066
1667710015729316400,2.18931640625,-0.8717256972707808,7.024614558905363,6.787139681738615
1667710015739367400,2.199367431640625,-0.7337579269081353,6.974639690902829,6.8546607278257605
1667710015749417200,2.209417236328125,-0.6068497490897774,6.932427858117222,6.909671836429834
1667710015759468300,2.21946826171875,-0.521254080597125,6.909133491769433,6.939923182308673
1667710015769519400,2.229519287109375,-0.4488218085275963,6.902267113131284,6.95180943493545
1667710015779570400,2.2395703125,-0.36864951679054647,6.910843802818656,6.948001859346031
1667710015789620500,2.249620361328125,-0.30793826031610366,6.933325683739781,6.928530850678682
1667710015799671300,2.25967138671875,-0.2516218047345057,6.965400737914442,6.898569427657127
1667710015809722400,2.269722412109375,-0.1746062599953264,7.012605556681752,6.852973213130236
1667710015819773400,2.2797734375,-0.09106213547131047,7.068720242613554,6.7967135657697915
1667710015829823500,2.289823486328125,-0.045629998065484685,7.124391860952973,6.738796214330196
1667710015839874600,2.29987451171875,-0.04928397682865616,7.171895370405912,6.68819064720869
1667710015849925400,2.30992529296875,-0.0757654624796938,7.200569091704487,6.6570595958858725
1667710015859976200,2.31997607421875,-0.09124014978618361,7.209144612348079,6.647577481791377
1667710015870026200,2.330026123046875,-0.10228504708483814,7.217917116868495,6.6378907850354905
1667710015880077300,2.340077392578125,-0.12708389971144496,7.235431730771064,6.618363077744841
1667710015890128400,2.35012841796875,-0.16908234547469764,7.255945526489615,6.594926088055968
1667710015900179500,2.360179443359375,-0.23987510670889167,7.282292266145348,6.563615003991127
1667710015910229500,2.3702294921875,-0.32369664166849105,7.328955817642807,6.507842263364791
1667710015920280600,2.380280517578125,-0.41799324728269127,7.399609316536783,6.421949109762907
1667710015930331400,2.390331298828125,-0.5300830280125141,7.485317761221528,6.313428529289364
1667710015940382500,2.400382568359375,-0.6405486050739884,7.575674908494949,6.194288939645886
1667710015950432300,2.410432373046875,-0.7282433282051235,7.656552279761433,6.084180213198065
1667710015960483300,2.4204833984375,-0.7958473764006048,7.715248214358091,6.000996903076768
1667710015970534400,2.430534423828125,-0.8633353239357471,7.749490091177821,5.947305644899607
1667710015980585200,2.440585205078125,-0.9383307244915514,7.759331101712584,5.923065522134304
1667710015990635500,2.450635498046875,-1.018334527793899,7.744630960708856,5.929086097598075
1667710016000686300,2.460686279296875,-1.0982866739742456,7.708398202332853,5.961943242061138
1667710016010737400,2.4707373046875,-1.174544276485592,7.655574374639987,6.0152329337000845
1667710016020788500,2.48078857421875,-1.2399202733680605,7.596088166448474,6.077206867054104
1667710016030838500,2.490838623046875,-1.294759094145149,7.547558821079135,6.126035487630963
1667710016040889600,2.5008896484375,-1.3570242655307054,7.515114349070191,6.152390410593152
1667710016050940400,2.5109404296875,-1.4503972534939646,7.4953540020674465,6.1551937775760885
1667710016060991200,2.5209912109375,-1.585425755534321,7.486490312132239,6.132638246896863
1667710016071041300,2.531041259765625,-1.7485851041682063,7.489432210803032,6.08450637641251
1667710016081092400,2.54109228515625,-1.9215768416389822,7.508273689395189,6.008640695828199
1667710016091143400,2.551143310546875,-2.0837242367513475,7.547906027081608,5.9040323203623295
1667710016101194500,2.561194580078125,-2.2011948702692985,7.612192913553118,5.777510219252109
1667710016111244500,2.57124462890625,-2.2558818614855407,7.69160196583271,5.649836025497317
1667710016121295400,2.58129541015625,-2.2646143262565133,7.759998041188717,5.551968356463313
1667710016131346400,2.591346435546875,-2.259182364335656,7.796847470158338,5.502331342113018
1667710016141397500,2.6013974609375,-2.2462268750421703,7.80387517683804,5.497669780042767
1667710016151448600,2.611448486328125,-2.240337232481688,7.798403467428684,5.5078264323979615
1667710016161498400,2.621498291015625,-2.274286702226102,7.792769845455885,5.501885351911187
1667710016171549400,2.631549560546875,-2.3590002906545995,7.793310528203844,5.465329352930188
1667710016181600300,2.641600341796875,-2.5080688623547553,7.796058365607261,5.394575900793075
1667710016191650300,2.651650390625,-2.697182444195449,7.799859511455893,5.296959576171636
1667710016201701400,2.661701416015625,-2.8805007837608456,7.809305969715118,5.1853468749016525
1667710016211752400,2.67175244140625,-3.0301486166536806,7.824530426853895,5.075953018724918
1667710016221803500,2.681803466796875,-3.1566505517587062,7.83574798643887,4.980663091224431
1667710016231854300,2.691854248046875,-3.2747222199097274,7.834436903840303,4.905934305715561
1667710016241904400,2.701904296875,-3.3862624404653903,7.822158437025546,4.849480304826796
1667710016251955500,2.71195556640625,-3.4971614405080675,7.807204028999805,4.794560966159403
1667710016262006300,2.72200634765625,-3.6046000709637998,7.796181115204095,4.732524781224131
1667710016272056300,2.732056396484375,-3.690928985634446,7.79632198497951,4.665274661032855
1667710016282107400,2.742107421875,-3.7441646089985965,7.8088763461261985,4.601419443976879
1667710016292158500,2.752158447265625,-3.760101598320901,7.82841866646409,4.554983856016397
1667710016302209300,2.762209228515625,-3.735062141871452,7.8549349174678325,4.529866950416564
1667710016312260400,2.77226025390625,-3.6872394834667443,7.885335900950431,4.516205797071755
1667710016322310100,2.78231005859375,-3.6335590389445422,7.91055217527151,4.5156157222241164
1667710016332361200,2.792361328125,-3.5627407048776742,7.9292825947046275,4.539133375933766
1667710016342412300,2.802412353515625,-3.4629157642960546,7.938042239743471,4.6006613190859555
1667710016352463400,2.81246337890625,-3.3443478370606896,7.930586663040518,4.70016068097502
1667710016362513400,2.822513427734375,-3.226136175917089,7.901328419852256,4.83026297865957
1667710016372564200,2.832564208984375,-3.1213717331066726,7.8498653591185805,4.980664260268211
1667710016382615300,2.842615234375,-3.0201635214731097,7.788854133316874,5.136415378472209
1667710016392665300,2.852665283203125,-2.905037843646109,7.726688476783036,5.294282465916872
1667710016402716400,2.86271630859375,-2.7774308699086308,7.652069581389426,5.468281772994994
1667710016412767500,2.872767578125,-2.5959026286303994,7.5715341554284095,5.66599980931282
1667710016422818300,2.882818359375,-2.2802483871094883,7.517232071876525,5.87044101640582
1667710016432869000,2.892869140625,-1.8238877440422772,7.491012757992744,6.060408292466402
1667710016442919200,2.902919189453125,-1.2906897988796233,7.495396672165393,6.1905988529562945
1667710016452970200,2.91297021484375,-0.7525671837311237,7.521775560525059,6.24715309934914
1667710016463021300,2.923021240234375,-0.19018343956191092,7.592672220525145,6.203671685019135
1667710016473072400,2.933072265625,0.3994601770525798,7.727101733759045,6.0251733129560945
1667710016483122400,2.943122314453125,0.9418987922366708,7.890214905163646,5.746974795734882
1667710016493173200,2.95317333984375,1.3129355329573154,8.056291602548956,5.435324675288796
1667710016503224300,2.963224365234375,1.4911130025029182,8.214840242516994,5.144255570578575
1667710016513275400,2.973275390625,1.55215111631155,8.35971983809471,4.886337624841929
1667710016523325200,2.9833251953125,1.653312858454883,8.472830084446072,4.65275069502443
1667710016533376300,2.993376220703125,1.8307146674528716,8.540285079559684,4.458969998155534
1667710016543427300,3.00342724609375,2.0792064670659602,8.55571411935985,4.318217711640894
1667710016553478100,3.01347802734375,2.377031183516234,8.515269880768656,4.243850745181739
1667710016563528200,3.023528076171875,2.672787130868435,8.420246495249867,4.25747215103805
1667710016573579300,3.033579345703125,2.89919788544625,8.28717190375626,4.368963564015925
1667710016583630300,3.04363037109375,3.03909209382683,8.132440191727877,4.560449720206856
1667710016593681400,3.053681396484375,3.1156875499904153,7.981288091751932,4.7709424824237825
1667710016603731500,3.0637314453125,3.1569860673233863,7.858920187711715,4.943807817035913
1667710016613782500,3.073782470703125,3.189493959957361,7.775430003598332,5.053728911957144
1667710016623833300,3.083833251953125,3.218276694588363,7.728778727060556,5.106768428227305
1667710016633884400,3.093884521484375,3.251263310649991,7.71170659622848,5.111679581144452
1667710016643934200,3.103934326171875,3.299319193288684,7.7129352612406015,5.078929988709092
1667710016653985300,3.1139853515625,3.37292891163975,7.724287845382094,5.012898304396868
1667710016664036400,3.124036376953125,3.477466267696023,7.743923689222336,4.910118897923827
1667710016674087200,3.134087158203125,3.60137351013273,7.770074614045024,4.777703647121787
1667710016684137500,3.144137451171875,3.732061206489801,7.8019591140836475,4.622938032823801
1667710016694188300,3.154188232421875,3.8643288655146955,7.84026049542725,4.446086843445896
1667710016704239400,3.1642392578125,4.000300932015478,7.880659725832938,4.2500805794820185
1667710016714290400,3.17429052734375,4.128909484010935,7.922280606988072,4.044743008071184
1667710016724340200,3.18434033203125,4.223720103561878,7.969812173491716,3.848720962016284
1667710016734391300,3.194391357421875,4.268822981613874,8.026103969556093,3.6782086202710866
1667710016744442000,3.204442138671875,4.265107760483026,8.09410432359278,3.530542316584289
1667710016754493200,3.2144931640625,4.214586364513635,8.18068078328371,3.3888238153859973
1667710016764543200,3.224543212890625,4.116618157714605,8.290632273343205,3.238707780459523
1667710016774594300,3.23459423828125,3.9704622585907576,8.420313130745292,3.082876875017583
1667710016784645400,3.244645263671875,3.784662915864587,8.552335582837461,2.950305849131942
1667710016794696400,3.254696533203125,3.5742739062830804,8.670732245159149,2.8658903668671845
1667710016804746500,3.26474658203125,3.3810222017243503,8.754179759174585,2.8466429378226397
1667710016814797300,3.27479736328125,3.274847599855065,8.775334775406122,2.9050334597319365
1667710016824848400,3.284848388671875,3.3363027700319883,8.708527430546283,3.0333249086022374
1667710016834899500,3.2948994140625,3.6028532272964715,8.539653795918822,3.203773829722404
1667710016844949200,3.30494921875,3.9015754771083593,8.32172883787453,3.4200784930884836
1667710016855000300,3.315000244140625,4.09905970467031,8.113298268884419,3.680007778647542
1667710016865051400,3.325051513671875,4.177746287894249,7.943778153046965,3.9513594987139102
1667710016875101400,3.335101318359375,4.171101150791347,7.819571343141794,4.198404168258607
1667710016885152300,3.34515234375,4.14217023986131,7.742296380281448,4.366882958349585
1667710016895203300,3.355203369140625,4.149704434758425,7.705069934692978,4.425182587105035
1667710016905254400,3.36525439453125,4.206562632533908,7.690553918084502,4.396654411756992
1667710016915305500,3.375305419921875,4.285374887964129,7.6995006101280445,4.303908323520422
1667710016925355300,3.385355224609375,4.357915808039904,7.73276165921688,4.169329757204651
1667710016935406300,3.39540625,4.407484433329105,7.773072042295336,4.040271415615082
1667710016945457200,3.40545703125,4.383925278565287,7.825792994135618,3.963400357380509
1667710016955508200,3.41550830078125,4.246375002962351,7.89511027598977,3.9756659647136923
1667710016965558300,3.425558349609375,4.047397321972251,7.961119163948297,4.05086762843132
1667710016975609300,3.435609375,3.9179900208145377,8.026870277753472,4.048345416477322
1667710016985660400,3.445660400390625,3.9629239720404144,8.055092748153209,3.947291226361692
1667710016995710500,3.45571044921875,4.053158661977947,8.059106659969688,3.846179168578982
1667710017005761300,3.46576123046875,4.025371075864136,8.083594620016216,3.823910930408537
1667710017015812400,3.475812255859375,3.864557121312618,8.122574631273746,3.906323548418283
1667710017025863400,3.485863525390625,3.627255262625217,8.157978537610173,4.057184556493163
1667710017035913200,3.495913330078125,3.3571494509667157,8.19132784950435,4.219254064063728
1667710017045964300,3.50596435546875,3.0662419665589926,8.229888758566975,4.363192579399049
1667710017056015400,3.516015380859375,2.7859520300164817,8.275513030144571,4.463716315899789
1667710017066066200,3.526066162109375,2.542700907535851,8.337950489357114,4.4926220923885705
1667710017076116200,3.5361162109375,2.337366112603992,8.427671092292666,4.436382318772376
1667710017086167300,3.546167236328125,2.1620295655727384,8.551167708101868,4.2864387178033585
1667710017096218400,3.55621826171875,1.987728645199537,8.707276553702354,4.050020363952219
1667710017106269400,3.56626953125,1.7854590830571948,8.874069874924421,3.7727176265269518
1667710017116320300,3.5763203125,1.54745638262406,9.006820056769252,3.557103575773537
1667710017126370300,3.586370361328125,1.30493547411412,9.086604956623912,3.449805815093219
1667710017136421000,3.596421142578125,1.0958695298299193,9.11503142516315,3.447559205210209
1667710017146472200,3.60647216796875,0.9348511387474835,9.113381904390454,3.4989570917531845
1667710017156522200,3.616522216796875,0.7806772797975688,9.123848353347181,3.5094574429795142
1667710017166573300,3.6265732421875,0.5966084506584332,9.134904000368714,3.516814527744055
1667710017176624400,3.636624267578125,0.37078806318920104,9.126901311177015,3.5682778807386755
1667710017186675200,3.64667529296875,0.1004960995751433,9.109271546462178,3.630629999755323
1667710017196725200,3.656725341796875,-0.19969490761505437,9.100306734240055,3.6489611907377837
1667710017206776300,3.6667763671875,-0.5064190611673519,9.114622844362259,3.5829531795620917
1667710017216827400,3.676827392578125,-0.798944392567873,9.157010033714771,3.4177824911057946
1667710017226878500,3.68687841796875,-1.0597015072531997,9.220850929984449,3.1659640312880275
1667710017236928300,3.69692822265625,-1.2827329946562647,9.293886355578898,2.8545845444768667
1667710017246979300,3.706979248046875,-1.4715852952122688,9.364286756494641,2.512960141527653
1667710017257030100,3.717030029296875,-1.63362382312268,9.424468545734882,2.16357080366537
1667710017267081200,3.727081298828125,-1.7752017468065022,9.468423422795533,1.8352074488274752
1667710017277131000,3.737131103515625,-1.8941864381492137,9.49502501399517,1.5578665713489055
1667710017287182000,3.74718212890625,-2.001492674396932,9.50556043653488,1.344892367579788
1667710017297233200,3.757233154296875,-2.1138357357680797,9.503281970208883,1.1788702499259263
1667710017307284200,3.7672841796875,-2.2422988879434764,9.491658752432466,1.0251282065220177
1667710017317334300,3.777334228515625,-2.38098284375146,9.47344621939361,0.8689793211720883
1667710017327385000,3.787385009765625,-2.515083125030994,9.451912432977556,0.7114012067366391
1667710017337436200,3.797436279296875,-2.6372180970981716,9.428917341837286,0.5576539391683414
1667710017347487200,3.8074873046875,-2.7541929099231957,9.402994965073466,0.4104733731718734
1667710017357537000,3.817537109375,-2.8848928812399506,9.368692297977208,0.27455822449009865
1667710017367588000,3.827588134765625,-3.053380439159274,9.317842400705814,0.1582824085135944
1667710017377639200,3.83763916015625,-3.260379514041543,9.248549668771028,0.06817525394586846
1667710017387690000,3.84768994140625,-3.4819621178105473,9.167666452285648,0.015453482404968235
1667710017397740000,3.857739990234375,-3.693396544791758,9.084553869313002,0.009830828209110768
1667710017407791000,3.867791015625,-3.8752763759866355,9.008353257685899,0.04684850700977258
1667710017417842200,3.87784228515625,-4.019703551621735,8.944222438558935,0.11518553652176633
1667710017427893200,3.887893310546875,-4.133118626138567,8.890971909886598,0.19581271415315568
1667710017437943300,3.897943359375,-4.21966936686635,8.848475414940713,0.26318048764104024
1667710017447994000,3.907994140625,-4.270881375448406,8.822841791990399,0.29565332722794263
1667710017458045200,3.918045166015625,-4.273332275731861,8.821783222848177,0.29183203364042565
1667710017468096300,3.92809619140625,-4.215281945562363,8.850323088634013,0.27124747424060475
1667710017478146000,3.93814599609375,-4.093398610168695,8.907574085119366,0.26382866761777546
1667710017488197000,3.948197021484375,-3.9146857185721395,8.986766864299774,0.28922205207142976
1667710017498248200,3.958248291015625,-3.689746790112555,9.079235889160632,0.35160273959543553
1667710017508299000,3.968299072265625,-3.4313097889378663,9.175918147802353,0.4461182851899415
1667710017518349000,3.97834912109375,-3.1559532171443103,9.26701003909111,0.5769438921803608
1667710017528400100,3.988400146484375,-2.8832664490818978,9.344363912406564,0.7348639153886586
1667710017538451200,3.998451171875,-2.611390705141425,9.411293422341346,0.8823726173609495
1667710017548502300,4.008502197265625,-2.314036382681876,9.47736251605451,0.9976041667152196
1667710017558552300,4.01855224609375,-1.9762701164655385,9.54299321835041,1.093632637623325
1667710017568603100,4.02860302734375,-1.6165677666425704,9.599542788568138,1.1857044798601417
1667710017578654000,4.038654052734375,-1.2646182229034602,9.641133274585009,1.2726646051064132
1667710017588705000,4.048705078125,-0.9294055866926908,9.669500706413388,1.3443686359666287
1667710017598755000,4.058755126953125,-0.6172439365278929,9.687612701687216,1.3926817082367837
1667710017608806100,4.06880615234375,-0.3304769859910011,9.697577630862593,1.4206195164762436
1667710017618857200,4.078857177734375,-0.07164029970793052,9.704078683319688,1.4128382149502634
1667710017628908000,4.088907958984375,0.16089363219160585,9.71121803368032,1.3552635394684969
1667710017638958300,4.098958251953125,0.4055758834538981,9.71332289700508,1.2873403423212468
1667710017649009200,4.109009033203125,0.671144818867743,9.706185884732008,1.2287822087600826
1667710017659060200,4.119060302734375,0.9418765073396265,9.69012146963775,1.1767669209711253
1667710017669111300,4.129111328125,1.2085965490173547,9.665477442246674,1.1350105038028209
1667710017679161000,4.1391611328125,1.4591763338856398,9.633309449091554,1.1137914093591272
1667710017689212200,4.149212158203125,1.6815407356821,9.59733680295646,1.1108305137269199
1667710017699263000,4.159262939453125,1.870937810639292,9.562293546625972,1.1101808907117694
1667710017709314000,4.16931396484375,2.0290090423539278,9.531832941910624,1.0943779030326752
1667710017719364000,4.179364013671875,2.1587454293355344,9.508537991040944,1.0478025412753225
1667710017729415200,4.189415283203125,2.2627479478627444,9.494069905227422,0.9554923602379858
1667710017739466200,4.19946630859375,2.351903756522387,9.484932074525952,0.8215785414412617
1667710017749517300,4.209517333984375,2.4672864778503776,9.467373621481656,0.6721208973582834
1667710017759567400,4.2195673828125,2.661242823547125,9.424114909991621,0.5236756451882422
1667710017769618000,4.229617919921875,2.922374178372323,9.353885773989557,0.3673005498670041
1667710017779669000,4.2396689453125,3.208808316758275,9.2649589517802,0.18567600860744712
1667710017789720000,4.249719970703125,3.477812596915662,9.16907982621491,-0.0561709370305296
1667710017799770000,4.25977001953125,3.70226052698791,9.073594083881378,-0.3653958852894604
1667710017809821200,4.2698212890625,3.8800820227026938,8.980001023426652,-0.6891526231147348
1667710017819872300,4.279872314453125,4.022378616049886,8.892705017289519,-0.9542627453777939
1667710017829923000,4.289923095703125,4.135237517988681,8.821969100809097,-1.1149254548903553
1667710017839973000,4.29997314453125,4.21384986693263,8.775761476385593,-1.183167654858902
1667710017850024200,4.310024169921875,4.240232262423635,8.755728157660364,-1.2361302334353328
1667710017860075300,4.3200751953125,4.216818361349404,8.756883757436276,-1.306055271924287
1667710017870126300,4.330126220703125,4.156933509229123,8.773591146609187,-1.383604083289951
1667710017880176000,4.340176025390625,4.0591991111859675,8.806554089534282,-1.4621563726097344
1667710017890227200,4.350227294921875,3.9098777337685227,8.85991567736566,-1.5443807745710014
1667710017900278000,4.360278076171875,3.7068911093980073,8.931814207884669,-1.628516416981071
1667710017910329000,4.3703291015625,3.477661498007178,9.011832331973313,-1.6920684133067727
1667710017920379100,4.380379150390625,3.307884484799206,9.07515475732684,-1.6940584180802105
1667710017930430200,4.39043017578125,3.328157749760151,9.088610451227426,-1.5782690156474708
1667710017940481300,4.400481201171875,3.506023376877606,9.049430533483624,-1.4092457434162498
1667710017950532000,4.410531982421875,3.691169808652997,8.99240808505714,-1.2970293771646917
1667710017960582100,4.42058203125,3.8305423312470315,8.942485239502787,-1.2366411055669189
1667710017970633000,4.430633056640625,3.9369598019614815,8.903360266816616,-1.1836134258650242
1667710017980684000,4.44068408203125,4.025672396898269,8.869609388384223,-1.1377135522164403
1667710017990735000,4.450735107421875,4.106199055030942,8.836009316599368,-1.1110733825720847
1667710018000785200,4.46078515625,4.185179945026338,8.799267439657449,-1.107939760721475
1667710018010836200,4.470836181640625,4.283266225247085,8.748398837685585,-1.135591372430697
1667710018020887000,4.480886962890625,4.433205734562874,8.666381064212322,-1.1878330893866718
1667710018030938000,4.490938232421875,4.583406525163352,8.58894828044176,-1.1801347899690269
1667710018040988200,4.50098828125,4.638832059787213,8.577932380908727,-1.0347500944133847
1667710018051039200,4.511039306640625,4.578664299072325,8.628775848439336,-0.8663070332229137
1667710018061090300,4.52109033203125,4.451387872463465,8.705098040619491,-0.759464030572772
1667710018071140000,4.53114013671875,4.310311176300049,8.776479269266128,-0.7516730844356119
1667710018081191200,4.541191162109375,4.163962384952605,8.841125052177906,-0.816280946489796
1667710018091242000,4.551241943359375,3.9902281585514543,8.918594076305627,-0.8409357875358313
1667710018101293000,4.56129296875,3.7788404933214186,9.017916620323062,-0.753600399236381
1667710018111343000,4.571343017578125,3.5055165963992474,9.139751440399884,-0.5887994939405471
1667710018121394200,4.581394287109375,3.149265702204406,9.277993205398321,-0.4139132844926789
1667710018131445200,4.5914453125,2.7221929668113587,9.417355498859285,-0.27105282845133916
1667710018141496000,4.60149609375,2.2644043367676434,9.540051319679618,-0.17399187269033864
1667710018151546000,4.611546142578125,1.8349946828596293,9.632838908970355,-0.107667251579836
1667710018161597200,4.62159716796875,1.4635790988892317,9.696745271691679,-0.03832233280008659
1667710018171648300,4.631648193359375,1.1449898268297314,9.739463300433755,0.04707057966208085
1667710018181699000,4.641698974609375,0.8664088130969554,9.767380650407075,0.13413737102006562
1667710018191749000,4.6517490234375,0.6163523945156485,9.785122643324732,0.20462646399941295
1667710018201800200,4.66180029296875,0.38333256052900105,9.795697228831052,0.26035209581470115
1667710018211851000,4.67185107421875,0.14843375352849253,9.800652220889924,0.3090956136576831
1667710018221902000,4.681902099609375,-0.12140005452190525,9.799304313412309,0.35956279522180556
1667710018231952100,4.6919521484375,-0.4582423286279663,9.786755797484517,0.42403837266582994
1667710018242003200,4.702003173828125,-0.857991844015941,9.755874921530484,0.5071121579980478
1667710018252054300,4.71205419921875,-1.2714239573955535,9.705824650204182,0.5923163429550826
1667710018262105300,4.722105224609375,-1.6470691417597234,9.645426003342866,0.6506312423449009
1667710018272155400,4.7321552734375,-1.9585197941109538,9.586234978705644,0.662341919209063
1667710018282206200,4.742206298828125,-2.211530532453209,9.532649518990516,0.6388561950076371
1667710018292257300,4.75225732421875,-2.4332781175255773,9.480959663763642,0.6007889146808535
1667710018302308400,4.762308349609375,-2.6433029699698087,9.427391739705204,0.5546424093274399
1667710018312358400,4.7723583984375,-2.8390488294318317,9.373194285571575,0.5034120613710954
1667710018322409500,4.782409423828125,-3.0148093009635804,9.320625893944502,0.45524117405060677
1667710018332460300,4.792460205078125,-3.1743963440686462,9.269273892369865,0.41732006072886285
1667710018342511400,4.802511474609375,-3.316135888054967,9.22071824351549,0.389865432896465
1667710018352561200,4.81256103515625,-3.4246146752133964,9.181678611025214,0.3730613053508103
1667710018362612200,4.8226123046875,-3.4793820381894704,9.161048495450615,0.37345191210359335
1667710018372663300,4.832663330078125,-3.4736917175933715,9.162086021804809,0.40002343695852904
1667710018382714400,4.84271435546875,-3.4134465077280995,9.181579826825857,0.4662061836466193
1667710018392764400,4.852764404296875,-3.3017268389523027,9.215887170097231,0.5800124494381249
1667710018402815200,4.862815185546875,-3.12851020668447,9.265514247575402,0.7301098527293652
1667710018412866300,4.8728662109375,-2.888957938721776,9.329456850653886,0.8863160212244838
1667710018422917400,4.88291748046875,-2.5987565567567943,9.401397466748952,1.0151754061758518
1667710018432967400,4.892967529296875,-2.2748935820780694,9.474196745499968,1.1112341260917484
1667710018443018200,4.903018310546875,-1.923741764587909,9.543502921438217,1.1794736957117915
1667710018453069300,4.9130693359375,-1.5642133100271225,9.60401379650235,1.2192254950594157
1667710018463120100,4.9231201171875,-1.2179803173039108,9.65198375442326,1.2353551574096082
1667710018473170200,4.933170166015625,-0.8675562295664101,9.689090373024344,1.240668022995442
1667710018483221200,4.94322119140625,-0.4931820880513638,9.71581997451782,1.2369386272087692
1667710018493272300,4.953272216796875,-0.10670394123932346,9.729164024737477,1.2257120075345038
1667710018503323400,4.963323486328125,0.29189273258540777,9.727820208913087,1.2061090430505572
1667710018513373400,4.97337353515625,0.7007482222318648,9.710464584964512,1.1773797191072255
1667710018523424500,4.983424560546875,1.1018950737297535,9.673789928039907,1.172186899704486
1667710018533475300,4.993475341796875,1.4752918946452438,9.617590486434102,1.2230511177621781
1667710018543526400,5.0035263671875,1.8064071785397826,9.54510158880651,1.3410099731884897
1667710018553576200,5.013576171875,2.09517516670078,9.46219943371415,1.499136442221701
1667710018563627300,5.023627197265625,2.362536063565314,9.373097254937887,1.6534417455315589
1667710018573678300,5.03367822265625,2.64186504612118,9.274068140909074,1.7839793658934533
1667710018583729200,5.043729248046875,2.932996110151708,9.163056912663578,1.8990283252224325
1667710018593779200,5.053779296875,3.2029882323026655,9.047298782151938,2.014364284799248
1667710018603830300,5.063830322265625,3.4313480751216408,8.940138968637585,2.1142712045758962
1667710018613881300,5.07388134765625,3.619395196774602,8.852021124723553,2.1707430333822963
1667710018623932400,5.083932373046875,3.7713285102561116,8.78509103026688,2.183952205175906
1667710018633982500,5.093982421875,3.8923487990796564,8.73682413522601,2.165150327941775
1667710018644033500,5.104033447265625,3.98579748262763,8.705316067284345,2.1216183524683117
1667710018654084000,5.114083984375,4.048225004968047,8.692518545031547,2.054839649181068
1667710018664135200,5.12413525390625,4.077364882473647,8.697068463420868,1.9764784985192119
1667710018674185200,5.134185302734375,4.076868915650248,8.712745340502261,1.9072496256008744
1667710018684236300,5.144236328125,4.048188472349941,8.740044266316294,1.8423317477494476
1667710018694287400,5.154287353515625,3.970966700981557,8.78869285415113,1.7778392557032405
1667710018704338400,5.16433837890625,3.825003986342251,8.85947027168572,1.746301377145201
1667710018714388500,5.174388427734375,3.5952787003889677,8.953211216178536,1.7562474554896355
1667710018724439300,5.184439208984375,3.2825419537499547,9.068787560382486,1.7755096437118947
1667710018734490400,5.194490478515625,2.92702405000478,9.191130329981446,1.7680569896183906
1667710018744540200,5.2045400390625,2.57977888456434,9.302454277437924,1.7261076071612536
1667710018754591200,5.21459130859375,2.2603091764084993,9.397526762795447,1.6576675465330482
1667710018764642300,5.224642333984375,1.971739195037633,9.476116899907588,1.5766602652765809
1667710018774693400,5.234693359375,1.7360517858095466,9.533912670794129,1.503662979735434
1667710018784743400,5.244743408203125,1.6318328480526805,9.555977203086018,1.4801413805030286
1667710018794794200,5.254794189453125,1.7478344319313763,9.523976967713237,1.5522043078035115
1667710018804845300,5.26484521484375,1.9888786920174955,9.45170258961916,1.697073381987214
1667710018814896400,5.274896484375,2.1596350716516373,9.386508525174856,1.843865094796568
1667710018824946400,5.284946533203125,2.1533787877358495,9.357915467897056,1.9906635296076536
1667710018834997500,5.29499755859375,1.9610031353592872,9.363613971799612,2.1558204817995428
1667710018845048300,5.30504833984375,1.6474499577708541,9.403128820586204,2.2444303470142186
1667710018855099100,5.31509912109375,1.3938978060282765,9.45660731279552,2.190894571659714
1667710018865149200,5.325149169921875,1.370917474065721,9.488810961785912,2.0623840732112524
1667710018875200300,5.3352001953125,1.536679406413436,9.487911382597684,1.9464182912983
1667710018885251300,5.345251220703125,1.743107403409481,9.469057044523954,1.8625044749453663
1667710018895302400,5.355302490234375,1.8924096377350388,9.45453752078414,1.7891008005604148
1667710018905352400,5.3653525390625,1.9365724584579467,9.461838783708215,1.7010775030620395
1667710018915403300,5.3754033203125,1.8292169762410222,9.502450780081748,1.5899094768196342
1667710018925454300,5.385454345703125,1.5594462417557835,9.569240004763007,1.4724657313086091
1667710018935505400,5.39550537109375,1.1657489025462417,9.641084759268164,1.3641525099754332
1667710018945555200,5.40555517578125,0.6847378754124045,9.701603233116865,1.2571489099361002
1667710018955606300,5.415606201171875,0.1316935945971403,9.739967158302663,1.1340525454908608
1667710018965657300,5.4256572265625,-0.4456362372940406,9.744742702141403,1.0058776356723158
1667710018975708200,5.435708251953125,-0.9723379157725721,9.715800100773572,0.910034750464186
1667710018985758200,5.44575830078125,-1.366512224844098,9.672204704675078,0.8668708776507527
1667710018995809300,5.455809326171875,-1.6873802554905413,9.621308630174397,0.8680718509383499
1667710019005860400,5.4658603515625,-2.030373462574929,9.554265722993016,0.8740628349814563
1667710019015911400,5.475911376953125,-2.4260364758342505,9.46488648084104,0.8370665448870509
1667710019025961500,5.48596142578125,-2.8130197774231434,9.365476258540152,0.7383561414185911
1667710019036012300,5.49601220703125,-3.1167876201868054,9.278888108411431,0.5985594751283526
1667710019046063400,5.5060634765625,-3.3371509112939237,9.210029676240682,0.45733741567749525
1667710019056114200,5.5161142578125,-3.5172061574101448,9.148419315502046,0.3256855139307678
1667710019066164200,5.526164306640625,-3.67833312343359,9.088729109171032,0.18778390413951127
1667710019076215300,5.53621533203125,-3.8129493914112444,9.034994011852145,0.026476409900409635
1667710019086266400,5.546266357421875,-3.901245222240686,8.995953210318088,-0.15326512834085151
1667710019096317200,5.556317138671875,-3.9138311475694176,8.985959055048227,-0.3238203045807779
1667710019106367200,5.5663671875,-3.8395314011275765,9.013007220971584,-0.44052547015156596
1667710019116418300,5.576418212890625,-3.710401163345575,9.065618282696605,-0.4667651692362502
1667710019126469400,5.586469482421875,-3.5564658623918888,9.130448190003634,-0.39603184657171364
1667710019136520400,5.5965205078125,-3.37746070985049,9.203303582856059,-0.24965898022893815
1667710019146570200,5.6065703125,-3.157152948322892,9.284379691565036,-0.05540675229157786
1667710019156621300,5.616621337890625,-2.8968270646616814,9.367572938558459,0.16537417513914404
1667710019166672100,5.626672119140625,-2.6129718368530273,9.444251104569435,0.38586763196457174
1667710019176723200,5.63672314453125,-2.3193965945407746,9.511396303081511,0.5693137991607189
1667710019186773200,5.646773193359375,-2.0192292604871094,9.569832125437259,0.715124026652053
1667710019196824300,5.65682421875,-1.726635868819058,9.617713820552826,0.8298655274670571
1667710019206875400,5.66687548828125,-1.436705705010891,9.658217680376767,0.908345555268228
1667710019216926500,5.676926513671875,-1.1091435835532844,9.697831313362718,0.9445955570399761
1667710019226976500,5.6869765625,-0.7223764089331031,9.733566059088707,0.9519603136543184
1667710019237027300,5.69702734375,-0.28991085631949826,9.754190329444407,0.9706290660280734
1667710019247078400,5.707078369140625,0.17559802924534304,9.748453247097133,1.0522422772884368
1667710019257129500,5.71712939453125,0.637717984757945,9.707937696835398,1.2327398603446782
1667710019267179000,5.727178955078125,1.0274079149570317,9.63672656405866,1.499438640038669
1667710019277230000,5.73722998046875,1.3294215344645082,9.549473812541365,1.7918069907791911
1667710019287281200,5.74728125,1.6141664045892654,9.442017061907052,2.100753843615949
1667710019297332000,5.75733203125,1.921858873450756,9.309393721312285,2.4108143567830322
1667710019307382000,5.767382080078125,2.2409501036830246,9.166827663373947,2.6679163099616763
1667710019317433000,5.77743310546875,2.550188340681791,9.03131210846901,2.846452968208492
1667710019327484200,5.787484130859375,2.8475363795310256,8.904355707594751,2.962157322706282
1667710019337535200,5.79753515625,3.118162707932293,8.785209103688597,3.044268035160005
1667710019347585000,5.8075849609375,3.348867944833636,8.68009277870059,3.100238928706944
1667710019357636000,5.817635986328125,3.5471348472058772,8.594269183203577,3.118776748177409
1667710019367687000,5.82768701171875,3.7212212480455635,8.531772687280178,3.0873616192162037
1667710019377737000,5.837737060546875,3.868128550058603,8.494566699957847,3.008370207826793
1667710019387788000,5.8477880859375,3.972356694035232,8.483490594670176,2.9019258491054174
1667710019397839000,5.857839111328125,4.019280942295492,8.499681851014495,2.7876807535052297
1667710019407890200,5.86789013671875,4.0073479279175395,8.54556974196434,2.661721546974778
1667710019417940200,5.877940185546875,3.937956411783397,8.620869605359434,2.5186241586387155
1667710019427991000,5.887990966796875,3.811721603181958,8.719776554313302,2.367834900625795
1667710019438042000,5.8980419921875,3.6295728919178245,8.834759608799219,2.2234264296911657
1667710019448093200,5.90809326171875,3.378495313595235,8.9662939851135,2.0884809297591445
1667710019458143000,5.91814306640625,3.04949892155081,9.116472856143117,1.9392888778097925
1667710019468194000,5.928194091796875,2.694967106233537,9.264718128761649,1.7528749103166161
1667710019478245000,5.9382451171875,2.3844541731238365,9.387983858424425,1.533152693592012
1667710019488296000,5.9482958984375,2.146981926305592,9.481920617750287,1.2860840586498379
1667710019498346000,5.958345947265625,1.985838009147346,9.547742458704114,1.0331838680099696
1667710019508397000,5.96839697265625,1.933801386309415,9.579729250073433,0.8121289413768797
1667710019518448000,5.9784482421875,2.024633019226789,9.569448679077624,0.704907460803166
1667710019528499200,5.988499267578125,2.2053831157393753,9.52184463185966,0.8007032189339399
1667710019538549000,5.998549072265625,2.3132174675144253,9.472226906731724,1.0470596139535306
1667710019548600000,6.00860009765625,2.3122097517766056,9.433090828129648,1.3567818350769578
1667710019558651000,6.01865087890625,2.2431386997684837,9.403908572787046,1.6447582344688474
1667710019568702000,6.028701904296875,2.1101232911162078,9.393628586313127,1.8648098292782902
1667710019578752000,6.038751953125,1.948778444558382,9.386468193164466,2.0656286080904303
1667710019588803000,6.048802978515625,1.8526245937049388,9.36414004150033,2.2474572936199606
1667710019598854100,6.058854248046875,1.8557775047779081,9.342661200141906,2.3326317775584755
1667710019608905000,6.068905029296875,1.972261757607013,9.333542658662795,2.272779658664018
1667710019618955000,6.078955078125,2.212053825674951,9.329725730723142,2.0575293266564607
1667710019629006000,6.089006103515625,2.392287350967526,9.33795579892993,1.8027677991241216
1667710019639057200,6.09905712890625,2.450433981118351,9.358886943277716,1.6053119208738207
1667710019649108200,6.109108154296875,2.407164894364774,9.392051546254754,1.4715058002352714
1667710019659158000,6.119157958984375,2.278212643498182,9.43863034207821,1.3756449409790337
1667710019669209000,6.129208984375,2.0598824656538666,9.500745729729532,1.2896229003004729
1667710019679260000,6.139260009765625,1.7439806791126726,9.57693465091884,1.1879516011998057
1667710019689311000,6.14931103515625,1.335744307745248,9.656881463336944,1.0633944434870033
1667710019699361000,6.159361083984375,0.8723955593563616,9.7256884575814,0.9056988401517272
1667710019709412000,6.169412109375,0.40175128366444257,9.77214450380802,0.7170582826502621
1667710019719463200,6.179463134765625,-0.11192498208954929,9.790593183690309,0.5496555608255789
1667710019729514200,6.18951416015625,-0.6938013257034122,9.771937583059072,0.4452630931327119
1667710019739564300,6.199564208984375,-1.1608631032660603,9.729258132761716,0.4053975677449256
1667710019749614800,6.20961474609375,-1.4904137681923806,9.684147655925154,0.40785033119190484
1667710019759666000,6.219666015625,-1.7805390161812304,9.635243047502636,0.4027094246394932
1667710019769717000,6.229717041015625,-2.1126883192986248,9.569884732407331,0.3524704988732934
1667710019779767000,6.23976708984375,-2.46375655015856,9.488786996388434,0.2514231586235575
1667710019789818000,6.249818115234375,-2.763791343873739,9.408480703008175,0.1110199138754513
1667710019799869200,6.259869140625,-3.002499562227726,9.33555049135387,-0.0536771839860361
1667710019809920000,6.269919921875,-3.2028383024379607,9.266106952771544,-0.2269156718926504
1667710019819970000,6.279969970703125,-3.3740465174928307,9.199127173954247,-0.40280890295859423
1667710019830021000,6.290021240234375,-3.524728369608521,9.13220409376025,-0.591186279479228
1667710019840072200,6.300072265625,-3.658666299933195,9.063396514993906,-0.7996309865925461
1667710019850123300,6.310123291015625,-3.7492885278835892,9.004220103403926,-1.018448144236207
1667710019860173000,6.320173095703125,-3.744357501222193,8.983384820646046,-1.2037361764393746
1667710019870224000,6.330223876953125,-3.6396930116549133,9.011648207578062,-1.3088954637862742
1667710019880275000,6.34027490234375,-3.4899805890932676,9.06784706466198,-1.3283638421051203
1667710019890325000,6.350324951171875,-3.341784416313469,9.130914053949713,-1.276429364467412
1667710019900376000,6.3603759765625,-3.198119749483466,9.197069656902551,-1.1646196793206036
1667710019910427100,6.37042724609375,-3.0482921761095523,9.267160261216759,-0.9990276236470789
1667710019920478200,6.380478271484375,-2.8773531333848834,9.341648223707079,-0.7904607149261981
1667710019930528300,6.3905283203125,-2.6648861484855413,9.420727021118998,-0.5645076409880072
1667710019940579000,6.4005791015625,-2.4029187812276183,9.50103272997737,-0.35604481369610874
1667710019950630000,6.4106298828125,-2.118465003003925,9.573470189678668,-0.17656174144465475
1667710019960681000,6.420680908203125,-1.850689387858659,9.630435939481854,-0.004650740994603256
1667710019970731000,6.43073095703125,-1.5990170585133134,9.673677115315199,0.18303322074739262
1667710019980782000,6.440781982421875,-1.3242124215140938,9.709197341507673,0.38517643483001734
1667710019990833200,6.450833251953125,-1.0111259846545755,9.735710669901966,0.6032778819523751
1667710020000884000,6.460884033203125,-0.6689077805306762,9.746245507919788,0.8565309776831418
1667710020010934000,6.47093408203125,-0.3094809231808409,9.736462365052104,1.1295680204879492
1667710020020985000,6.480985107421875,0.06399843405210413,9.711050860419869,1.3644715127967297
1667710020031036200,6.4910361328125,0.4508974822904914,9.67443874733746,1.5402299385018645
1667710020041087200,6.501087158203125,0.8381001987837254,9.62227426033616,1.6970118610583245
1667710020051137000,6.511136962890625,1.2189437555085867,9.549363922426103,1.86927703782022
1667710020061188000,6.52118798828125,1.5824056770607828,9.455718255001306,2.0629475523129104
1667710020071239000,6.531239013671875,1.8955020507924258,9.3557083132416,2.2468195802383124
1667710020081290000,6.5412900390625,2.1516550326831636,9.265642257869244,2.3850926171578464
1667710020091340000,6.551340087890625,2.384402442936599,9.184003254580498,2.477722239407897
1667710020101391000,6.56139111328125,2.617484053580463,9.100188660818338,2.550630239230394
1667710020111442200,6.571442138671875,2.8425585911184545,9.009093262398242,2.631817407098412
1667710020121493000,6.581492919921875,3.0404604595705864,8.913093140801786,2.7354592756196854
1667710020131543000,6.59154296875,3.204511496347189,8.82151492730081,2.842949636262655
1667710020141594000,6.601593994140625,3.3380051900357004,8.748658365404605,2.9136028428956866
1667710020151645200,6.611645263671875,3.4482737832203507,8.698147490829228,2.936329053966701
1667710020161696000,6.621696044921875,3.5387264998227357,8.668505801281333,2.916300119155645
1667710020171746000,6.63174609375,3.613234920579195,8.662090089020133,2.8430843685582277
1667710020181797000,6.641797119140625,3.668440674972534,8.682233297860622,2.7077207893446085
1667710020191848000,6.651847900390625,3.689488723698258,8.726683849483727,2.5304282859399914
1667710020201899000,6.66189892578125,3.6534848056420683,8.790369262930751,2.3562264420270917
1667710020211949000,6.671948974609375,3.54323141002655,8.870540531754493,2.220236109217256
1667710020222000000,6.682000244140625,3.3600255909249186,8.965472731858492,2.121533889055252
1667710020232051200,6.69205126953125,3.096512893921137,9.083799836075306,2.0165772846736014
1667710020242102300,6.702102294921875,2.7729773976311085,9.219368582472205,1.8666008043482898
1667710020252152000,6.712152099609375,2.4550068419918416,9.34321415784955,1.6875027128264306
1667710020262203000,6.722202880859375,2.164504577384144,9.446893143510819,1.4971666034534572
1667710020272254000,6.73225390625,1.9002577208869158,9.530990645867586,1.3113432953298092
1667710020282305000,6.742304931640625,1.7169006567463279,9.585427169454098,1.1585492003004998
1667710020292355000,6.75235498046875,1.7554821702055632,9.58331412282288,1.1174733858074992
1667710020302406100,6.76240625,1.978233525492996,9.519219544053078,1.2811870803885161
1667710020312457000,6.77245703125,2.126913097875565,9.445399690082668,1.559185106601566
1667710020322507300,6.78250732421875,2.1635731417529285,9.38463337895274,1.8487930527180432
1667710020332558000,6.79255810546875,2.1073529496200383,9.349254022535682,2.0786704604931177
1667710020342609200,6.802609130859375,1.9364616915598512,9.33625834736228,2.2923221251323818
1667710020352660200,6.81266015625,1.7546311063341795,9.312634310668706,2.5231878132924437
1667710020362710000,6.8227099609375,1.672471001780778,9.278361454188824,2.69912071878165
1667710020372761000,6.832760986328125,1.7101986748896538,9.25986776612103,2.738700157237053
1667710020382812000,6.84281201171875,1.8891469826772809,9.254078661325574,2.6388556351721286
1667710020392863000,6.852863037109375,2.1362880983337758,9.266215673843025,2.3966452539160845
1667710020402913000,6.8629130859375,2.251021269711852,9.302287688699364,2.137929289669543
1667710020412964000,6.872964111328125,2.235842405280471,9.355033190459013,1.9117391921050846
1667710020423015200,6.88301513671875,2.1152192990809677,9.420260572651028,1.71899470641613
1667710020433066200,6.893066162109375,1.9023238596364855,9.495133150544762,1.547254430311173
1667710020443116000,6.903115966796875,1.5921278835214674,9.576810147756337,1.385715084094554
1667710020453166800,6.913166748046875,1.1991968525093049,9.655144264280796,1.229014848472178
1667710020463218000,6.923218017578125,0.7765485824950039,9.718704005521536,1.055527509504184
1667710020473269000,6.93326904296875,0.373476060164161,9.764054136332868,0.8331656649909913
1667710020483319000,6.943319091796875,0.010293156482744962,9.789894095510244,0.5729248657973482
1667710020493370000,6.9533701171875,-0.38768564117196946,9.793525730010867,0.32699192035421726
1667710020503421200,6.963421142578125,-0.8371019815266132,9.76972166057527,0.148944251200743
1667710020513472000,6.973471923828125,-1.2553650952592492,9.725635850611328,0.08039956115428358
1667710020523522000,6.98352197265625,-1.6227942399419844,9.670955581396818,0.09769045843672938
1667710020533573000,6.993572998046875,-1.9779010786682367,9.604232992210983,0.13039100583228283
1667710020543624200,7.003624267578125,-2.3456144471198317,9.521260109969973,0.11871601220285519
1667710020553675300,7.01367529296875,-2.6965836015194653,9.428548508524894,0.03593638294504489
1667710020563725000,7.02372509765625,-2.9833202299833297,9.341268284478783,-0.10431252519129774
1667710020573776100,7.033776123046875,-3.203433053460717,9.264650908744335,-0.2732263730981387
1667710020583827000,7.043826904296875,-3.3740786661967634,9.196867996850608,-0.45121158974096176
1667710020593878000,7.0538779296875,-3.5142075601160525,9.132849405926466,-0.6417016475666314
1667710020603928000,7.063927978515625,-3.6310637149974703,9.06946735934019,-0.854705296625942
1667710020613979100,7.073979248046875,-3.689745036546886,9.02179959923625,-1.078559279393032
1667710020624030200,7.0840302734375,-3.6397502948001024,9.017318069908022,-1.2690826549664138
1667710020634081000,7.0940810546875,-3.497100357970595,9.055199180012941,-1.394290604738146
1667710020644131000,7.104131103515625,-3.331202524283528,9.109816320863366,-1.4438528002865612
1667710020654182000,7.114181884765625,-3.1843510441109535,9.16684052285552,-1.413975548417121
1667710020664233000,7.12423291015625,-3.046080345278978,9.22944807793796,-1.3073193005107342
1667710020674284000,7.134283935546875,-2.8930592365607617,9.301336671584844,-1.1339089723017066
1667710020684334000,7.144333984375,-2.7111168615236876,9.380524190068245,-0.9088417412873357
1667710020694385200,7.15438525390625,-2.4860244960680604,9.463298334866762,-0.6603441695205867
1667710020704436000,7.16443603515625,-2.2229101507321,9.542159105613827,-0.41983226274549956
1667710020714487000,7.174487060546875,-1.9519075363643466,9.607979193001984,-0.217242729667481
1667710020724537000,7.184537109375,-1.7032640533208847,9.657510993412137,-0.041881984343309885
1667710020734588200,7.194588134765625,-1.478957285284996,9.693501759725809,0.1381571097891312
1667710020744639200,7.20463916015625,-1.240014673653245,9.722394092211127,0.32831440112963317
1667710020754690000,7.21468994140625,-0.9471344278678298,9.747000710201263,0.5189288890525698
1667710020764740000,7.224739990234375,-0.6010016075834631,9.76202175372243,0.7156304418042302
1667710020774791000,7.234791015625,-0.21473224468389523,9.759303726935386,0.9382135278526693
1667710020784842000,7.244842041015625,0.1841942638834007,9.72988474022746,1.2107032389730215
1667710020794893000,7.25489306640625,0.5552626601176336,9.672989133051038,1.5150361682735383
1667710020804943000,7.264943115234375,0.8790862161014229,9.596680969396234,1.8169518072992563
1667710020814994200,7.274994140625,1.170066254288703,9.507228077486158,2.1009327073141932
1667710020825045000,7.285044921875,1.4528782566547394,9.405003382286429,2.3675831178218125
1667710020835096000,7.295095947265625,1.7300290183886884,9.294125425031782,2.6070330944538114
1667710020845146000,7.30514599609375,1.9679804270260035,9.193337484636903,2.7892607161730525
1667710020855197000,7.315197021484375,2.160444196077436,9.109760206761957,2.918066544306278
1667710020865248000,7.325248046875,2.3372220279581843,9.02907105154395,3.0304572442114353
1667710020875299000,7.335299072265625,2.5247119541198013,8.933927254515886,3.159297851397097
1667710020885349000,7.34534912109375,2.715416896805167,8.827305785661935,3.297807911942899
1667710020895400000,7.35539990234375,2.891014871251583,8.728744289144872,3.4090254764154553
1667710020905451000,7.365450927734375,3.046232320970297,8.660371594664454,3.448019516198337
1667710020915502000,7.375502197265625,3.177939715763926,8.627719617384672,3.410797162263095
1667710020925552000,7.38555224609375,3.271149329859018,8.627280641445518,3.3226509690374133
1667710020935603200,7.395603271484375,3.3129934983760116,8.655394975295662,3.2060257003024217
1667710020945654300,7.405654296875,3.3047745360851284,8.710669703271984,3.0615561468303203
1667710020955705000,7.415705078125,3.249377935294807,8.79059488838017,2.887446657375991
1667710020965755000,7.4257548828125,3.1329797533139585,8.891915328216552,2.6997484952911734
1667710020975806000,7.435805908203125,2.9441645698979495,9.01376125420928,2.5008731056317686
1667710020985857000,7.44585693359375,2.6784032171845435,9.158452633738516,2.2625855969078836
1667710020995907000,7.455906982421875,2.3566512433104214,9.314694750329851,1.9629127683728933
1667710021005958100,7.465958251953125,2.0488615976847706,9.451275304117798,1.6266306032344697
1667710021016009200,7.47600927734375,1.7993571138978004,9.550123800882696,1.3144640576988458
1667710021026060000,7.48606005859375,1.5975781117513774,9.618628597310185,1.0488700974415988
1667710021036110000,7.496110107421875,1.4432996964484452,9.663368487268686,0.8405860973153263
1667710021046161200,7.5061611328125,1.4196971409343182,9.67335796636343,0.7622204896740615
1667710021056212000,7.5162119140625,1.5699645670302211,9.63348305209279,0.9495353515297174
1667710021066263000,7.526262939453125,1.7156192386336624,9.564075169345736,1.324952426226437
1667710021076313000,7.53631298828125,1.7814549619823694,9.490805350473522,1.7092177010282874
1667710021086364000,7.546364013671875,1.7850499177344141,9.433487133970855,1.998333333583176
1667710021096415000,7.5564150390625,1.7099340326040982,9.39513373017907,2.231144748983532
1667710021106466000,7.566466064453125,1.5574176585376263,9.370511914619803,2.4368672280587256
1667710021116516000,7.57651611328125,1.4728436247102916,9.341572820383309,2.595404031458497
1667710021126567200,7.586567138671875,1.4865762358561156,9.314432300001382,2.6836229976594446
1667710021136618200,7.5966181640625,1.5506369123563168,9.306507352221011,2.67484698600769
1667710021146669000,7.6066689453125,1.730831128551811,9.31764366326332,2.521133803372085
1667710021156718800,7.61671875,2.00038164441511,9.352022318205236,2.1699162271693346
1667710021166770000,7.62677001953125,2.143119113397598,9.401199313828348,1.787427606651187
1667710021176821000,7.636821044921875,2.140365430775285,9.458366139161587,1.4589619604825972
1667710021186872000,7.6468720703125,2.0317006195254623,9.518128826206922,1.203233049222827
1667710021196922000,7.656922119140625,1.8597874710716307,9.575299158671498,1.0125332941692322
1667710021206973200,7.66697314453125,1.6412926041848956,9.630773208612203,0.8513437112383544
1667710021217024000,7.67702392578125,1.3657634523034095,9.686217447936535,0.694452410023287
1667710021227075000,7.687074951171875,1.010170291364938,9.739727504327893,0.5363450840819627
1667710021237125000,7.697125,0.561257443553023,9.783295427897572,0.3774833230441436
1667710021247176200,7.70717626953125,0.023624383753445,9.803959445741771,0.22849682187056167
1667710021257227300,7.717227294921875,-0.6075611852947622,9.787256148222088,0.10429364696089177
1667710021267278000,7.727278076171875,-1.2704016286104918,9.724007957148551,0.011784064044069963
1667710021277328100,7.737328125,-1.7942079144410787,9.641051441520451,-0.036452248628868256
1667710021287378700,7.747378662109375,-2.1645823187954725,9.564649754363298,-0.049545495575363745
1667710021297429800,7.7574296875,-2.4788009745553135,9.487925411123037,-0.07214250904244836
1667710021307480800,7.767480712890625,-2.802448991309106,9.39657048498392,-0.14537576333051547
1667710021317531000,7.77753076171875,-3.1148800329998134,9.294715207618474,-0.27599497929494826
1667710021327582000,7.78758203125,-3.3811022812232374,9.194871854597329,-0.4391812524683773
1667710021337632800,7.7976328125,-3.5883518237352368,9.106116881823539,-0.610547507629171
1667710021347683800,7.807683837890625,-3.7460184201717373,9.028777037033437,-0.786710422481969
1667710021357734000,7.81773388671875,-3.8657381477907298,8.96034705940783,-0.9688227472584694
1667710021367785000,7.827784912109375,-3.9335330423831936,8.908827300050854,-1.1534723354276268
1667710021377836000,7.8378359375,-3.9155318140074606,8.893177895498276,-1.3230205813810227
1667710021387887000,7.84788720703125,-3.8081659565269943,8.919843784105778,-1.450744313365966
1667710021397937000,7.85793701171875,-3.654432023364305,8.973460223481059,-1.5141092626869677
1667710021407987700,7.86798779296875,-3.4952503461897373,9.03873319838047,-1.5016395110838114
1667710021418038800,7.878038818359375,-3.330070305383205,9.115786627444624,-1.4083511326640843
1667710021428089900,7.88808984375,-3.150938896113634,9.203698135131598,-1.2385134753100573
1667710021438140000,7.898139892578125,-2.954087705758214,9.296189956346154,-1.0122312424827367
1667710021448191000,7.90819091796875,-2.7318966147020456,9.387436745935679,-0.7636498648900538
1667710021458242000,7.918241943359375,-2.4813813464373347,9.47256885203719,-0.5324985281890258
1667710021468292000,7.9282919921875,-2.2148059008620677,9.547610941278935,-0.328870939033851
1667710021478343000,7.938343017578125,-1.9467722193025052,9.610724107795953,-0.12018274202086031
1667710021488393700,7.948393798828125,-1.6719997310072183,9.662402272585034,0.11305879015875979
1667710021498444800,7.95844482421875,-1.3859835257723927,9.701082424113153,0.3720819389246404
1667710021508494800,7.968494873046875,-1.1072053089670837,9.724227737379074,0.6195948105029762
1667710021518546000,7.9785458984375,-0.8123647228941321,9.742067345452307,0.7762478459827602
1667710021528597000,7.988596923828125,-0.4496360475199297,9.763156310710311,0.8056076498493552
1667710021538647800,7.998647705078125,-0.030740682032052425,9.775628838792443,0.7787900047462433
1667710021548697900,8.00869775390625,0.3961645695732906,9.766891405585408,0.7882048988234251
1667710021558749000,8.0187490234375,0.8052228152502328,9.734726335039735,0.8701173852913081
1667710021568800000,8.028800048828124,1.1739164269108324,9.684535193938016,1.0010500693853943
1667710021578851000,8.03885107421875,1.4885111494414507,9.626533086824416,1.1333928394731134
1667710021588900900,8.04890087890625,1.7634332753404973,9.567079027336835,1.237607466381043
1667710021598952000,8.058951904296874,2.0216857137285174,9.505148933124541,1.317318131955713
1667710021609002800,8.069002685546875,2.270525011605024,9.4372479478091,1.3976523362562059
1667710021619053800,8.0790537109375,2.5021751281410456,9.361557039269805,1.506907953006029
1667710021629103900,8.089103759765624,2.704909823577106,9.28541721791923,1.6232389149695634
1667710021639155000,8.099155029296876,2.8760259764343497,9.220692524552344,1.6963782393299043
1667710021649206000,8.1092060546875,3.0220974121451376,9.171125652828811,1.7110650824606417
1667710021659256800,8.1192568359375,3.150919606891274,9.134895232540368,1.6720546760648487
1667710021669307000,8.129306884765626,3.2652836526960134,9.108999159261584,1.591989059572667
1667710021679358000,8.13935791015625,3.3628117145121097,9.09283712901175,1.4772130719661711
1667710021689408800,8.14940869140625,3.4404219006761907,9.086730628830194,1.3286049573846161
1667710021699459800,8.1594599609375,3.4886338506594297,9.09043065239191,1.1678454364340751
1667710021709510000,8.169510009765625,3.477811427871883,9.110430068847537,1.0369600255478173
1667710021719561000,8.17956103515625,3.3642382401838895,9.16053703879714,0.9679057054787874
1667710021729611800,8.18961181640625,3.116685621117055,9.250865544497966,0.9370760482553392
1667710021739662800,8.199662841796876,2.739882060497999,9.37381972399354,0.8915806637544185
1667710021749713000,8.209712890625,2.3002951498381794,9.496987838500738,0.8284122599188238
1667710021759764000,8.219763916015625,1.863791592146456,9.596919454327224,0.7718955690573901
1667710021769815000,8.22981494140625,1.4869868624836207,9.664789459982513,0.7423604816891253
1667710021779865900,8.239865966796875,1.2355173622339963,9.700205641278624,0.7415293646272272
1667710021789916000,8.249916015625,1.273261986477673,9.691036830917,0.7956324184756726
1667710021799966700,8.259966796875,1.6509196797080337,9.614089784836768,1.0070384230799971
1667710021810017800,8.270017822265626,2.005419346321374,9.510178743985295,1.3058353455632925
1667710021820068900,8.28006884765625,2.1438439205408093,9.443331067115068,1.5485032613284886
1667710021830119000,8.290118896484374,2.0458931032679972,9.42471462945044,1.7774939493969082
1667710021840170000,8.300169921875,1.8838132204338907,9.396431953296064,2.0805581739358603
1667710021850220800,8.310220703125,1.857667994699627,9.331786170384287,2.374282177069038
1667710021860271900,8.32027197265625,1.9996197201319037,9.267617941856384,2.5066300617232917
1667710021870322000,8.330322021484376,2.278154045178741,9.208314689016342,2.487435531909764
1667710021880373000,8.340373046875,2.5812387279838322,9.15621099229157,2.381472526964545
1667710021890424000,8.350424072265625,2.7268057213038204,9.149967713987827,2.238971935477853
1667710021900475000,8.360474853515624,2.7303827030077574,9.185516581752896,2.083661985170096
1667710021910525000,8.37052490234375,2.6265283607795835,9.25729294719696,1.8905650327816605
1667710021920575700,8.38057568359375,2.41288824044764,9.361675112691522,1.6454156754642724
1667710021930626800,8.390626708984374,2.057207839617133,9.490652790260315,1.365936909174174
1667710021940676900,8.4006767578125,1.5801584826558828,9.617354339590667,1.0862655429214239
1667710021950728000,8.41072802734375,1.0574038978353142,9.71442355172336,0.8259857634242623
1667710021960779000,8.420779052734375,0.5723553222810849,9.773144036239385,0.5731097573775797
1667710021970830000,8.430830078125,0.1742553641984239,9.800426595440506,0.3027867593044415
1667710021980881000,8.440880859375,-0.21849314985368398,9.804164612925051,0.03129864927495364
1667710021990930700,8.4509306640625,-0.657803545127064,9.782947052851318,-0.17782555083539336
1667710022000981800,8.460981689453124,-1.0520525999352335,9.74642904779315,-0.26592109158607197
1667710022011032800,8.47103271484375,-1.3998463391691445,9.702890934839845,-0.25440365400537845
1667710022021083000,8.481082763671875,-1.741185349305719,9.648395374542474,-0.21707663411926476
1667710022031134000,8.491134033203124,-2.071046541485935,9.583000819090008,-0.21733857299108056
1667710022041185000,8.50118505859375,-2.346746666020155,9.517494619956612,-0.2836477042715065
1667710022051235800,8.51123583984375,-2.575024675774574,9.453706915178895,-0.4087306211577728
1667710022061286000,8.521285888671875,-2.7740988028764724,9.389211354392767,-0.5634443591380491
1667710022071337000,8.5313369140625,-2.9425530430480835,9.32691418043375,-0.7214222500134259
1667710022081388000,8.541387939453125,-3.0849311771988868,9.26717838139534,-0.8792029012836515
1667710022091439000,8.551439208984375,-3.209783299270272,9.207036924165486,-1.0479260215245187
1667710022101489000,8.561489013671874,-3.3117519738823176,9.147547793364524,-1.234924949298799
1667710022111540000,8.5715400390625,-3.367097136746347,9.099695908865332,-1.4242831535503266
1667710022121590800,8.5815908203125,-3.339203167648613,9.083801589640974,-1.5826111365050077
1667710022131641900,8.591641845703125,-3.225123491743207,9.10878230164051,-1.673032435055822
1667710022141692000,8.60169189453125,-3.0808935922458764,9.158543234631418,-1.6731847030080853
1667710022151743000,8.611742919921875,-2.9684938322514296,9.212262549859284,-1.578809698395431
1667710022161794000,8.6217939453125,-2.8888091779008507,9.266079480242729,-1.4017631325758992
1667710022171844900,8.631844970703124,-2.7923542982742187,9.327707376638054,-1.1691889599975198
1667710022181894700,8.641894775390625,-2.6383891867041585,9.40054581835568,-0.9159824068222194
1667710022191945700,8.65194580078125,-2.4244784327372906,9.477339135178923,-0.6872606718882918
1667710022201996800,8.661996826171874,-2.1612337390199303,9.551129763054847,-0.5247526633026078
1667710022212048000,8.6720478515625,-1.8644253600053489,9.619038931676744,-0.41036059697978194
1667710022222098000,8.682097900390625,-1.5777688110403716,9.674190325534344,-0.30176386426379903
1667710022232149000,8.69214892578125,-1.3304415251620112,9.714261054638028,-0.1828161256643012
1667710022242199800,8.70219970703125,-1.0717355708528309,9.747668234199285,-0.06879597052694297
1667710022252251000,8.7122509765625,-0.735380778869614,9.778974057567119,0.03538460798091255
1667710022262301000,8.722301025390625,-0.3032611718831584,9.800472188147902,0.17078027196638285
1667710022272352500,8.7323525390625,0.19004035956310109,9.797296480721235,0.3837301450118422
1667710022282403600,8.742403564453125,0.6513949932590126,9.759896432131528,0.7003716440044343
1667710022292454400,8.752454345703125,1.0010206240952015,9.696096452394126,1.0742692540489136
1667710022302504400,8.76250439453125,1.2771743376158178,9.614996378287673,1.4460425654157996
1667710022312555500,8.772555419921876,1.5493630930282174,9.511488657540083,1.8169848327860234
1667710022322606600,8.782606689453125,1.835350218299031,9.386830012214183,2.1654797060266135
1667710022332657700,8.79265771484375,2.1014519088827073,9.264280321866273,2.434625440481305
1667710022342707700,8.802707763671876,2.3128189697161314,9.167523828944564,2.6034163652613755
1667710022352758500,8.812758544921875,2.4812296630069612,9.09121215815842,2.713627090778947
1667710022362809600,8.8228095703125,2.6344559389084576,9.018025925916433,2.8116259849771854
1667710022372860700,8.832860595703124,2.783189871826768,8.936808947432041,2.9253558245316147
1667710022382910500,8.842910400390625,2.911612253600359,8.847385281616448,3.068667147879302
1667710022392961500,8.85296142578125,3.005025865834951,8.763279595953225,3.2163883966237306
1667710022403012600,8.8630126953125,3.063270549532771,8.709414150252938,3.306483678090572
1667710022413063400,8.8730634765625,3.0862890215486285,8.701686186349392,3.3054327077329155
1667710022423113500,8.883113525390625,3.0654741970568895,8.741074778407812,3.2197607956662773
1667710022433164500,8.89316455078125,2.9955826224461197,8.81888750140667,3.069868632623553
1667710022443215600,8.903215576171876,2.878793103060126,8.924972963687777,2.8684155014306305
1667710022453266700,8.9132666015625,2.7080241562053557,9.05253142210841,2.6246315872475505
1667710022463316700,8.923316650390625,2.4625641255035995,9.20197788721025,2.3301845305368305
1667710022473367600,8.933367431640624,2.147859732053429,9.36511034783721,1.9625972726829348
1667710022483418400,8.94341845703125,1.8287402986399828,9.51244493535161,1.5295416634880006
1667710022493468400,8.953468505859375,1.5756759304143488,9.617855274850129,1.08834505260922
1667710022503519500,8.96351953125,1.4080987653382122,9.680680856597423,0.6870738440793007
1667710022513570600,8.973570556640626,1.3323973354049026,9.709268068656325,0.3538761278875172
1667710022523621600,8.98362158203125,1.4106478652991354,9.70403776678741,0.11009852471421472
1667710022533671700,8.993671630859374,1.725062482022494,9.653636782327293,0.042910980331175956
1667710022543722800,9.00372265625,2.1043885468564927,9.575812368890643,0.21394341412745416
1667710022553773600,9.013773681640625,2.2867617145262655,9.520696630868315,0.5453583385556936
1667710022563824600,9.02382470703125,2.2914861126996575,9.485543484422564,0.9715548756361007
1667710022573874400,9.03387451171875,2.2111285275235772,9.457048042300343,1.358497114562243
1667710022583925500,9.043925537109375,2.050807324925065,9.458868827986716,1.5793588567107915
1667710022593976600,9.0539765625,1.855266194254905,9.479223049229383,1.694904221254587
1667710022604027400,9.06402734375,1.852303398926556,9.461810726657509,1.7926280979037283
1667710022614077700,9.07407763671875,2.0657748846933246,9.40173707396686,1.873576634710282
1667710022624128500,9.08412841796875,2.3795729769535363,9.313643195450306,1.9401196295455096
1667710022634179600,9.0941796875,2.685007730016112,9.217387053266167,2.0002320068113506
1667710022644230700,9.104230712890624,2.8266876527696847,9.17080942648649,2.0190290617398916
1667710022654280700,9.11428076171875,2.750323667274415,9.202658855211734,1.9791772360838948
1667710022664331800,9.124331787109375,2.485629359270632,9.301900150686501,1.8619008099637924
1667710022674382300,9.13438232421875,2.078301188789308,9.434801723700762,1.6839067341610787
1667710022684433400,9.144433349609375,1.5845556947015225,9.564800561010838,1.47450176718086
1667710022694483500,9.1544833984375,1.0899351713448762,9.664132457378505,1.2597609921306372
1667710022704534500,9.164534423828124,0.6716953654225916,9.72744202325046,1.0469404445532708
1667710022714585600,9.174585693359376,0.3690939360897988,9.7674642370373,0.7942204327858984
1667710022724636700,9.18463671875,0.12091634439188055,9.794411865195631,0.4746246140323579
1667710022734686700,9.194686767578125,-0.27381937055522576,9.802014156892895,0.12626868347157724
1667710022744737500,9.204737548828126,-0.8124814080763608,9.772548408433794,-0.08681523688286542
1667710022754788600,9.21478857421875,-1.2997238769456743,9.719415368661284,-0.11866198046067729
1667710022764839700,9.224839599609375,-1.695810522444546,9.658536244806646,-0.0854422497629188
1667710022774889500,9.234889404296876,-2.036029296379536,9.592596330431103,-0.08412850941638461
1667710022784940500,9.2449404296875,-2.3427939828716218,9.521586857706307,-0.14521027057049796
1667710022794991600,9.25499169921875,-2.612121357503533,9.448685287624597,-0.2637581048659049
1667710022805042400,9.26504248046875,-2.8604823703438043,9.370731110328435,-0.4212344576936215
1667710022815092500,9.275092529296876,-3.0828076091736554,9.291212167933583,-0.5831494688222184
1667710022825143600,9.2851435546875,-3.264644185748696,9.217572931227087,-0.7408304225776344
1667710022835194600,9.295194580078125,-3.413557274626195,9.147679895311594,-0.9154019765857606
1667710022845245700,9.30524560546875,-3.5325761604994534,9.079939068993925,-1.1162480817962437
1667710022855295700,9.315295654296875,-3.5879274608433245,9.02978183016181,-1.326731710858643
1667710022865346600,9.3253466796875,-3.5321056203782555,9.024234132906795,-1.502601780244708
1667710022875397600,9.335397705078124,-3.3761221547231077,9.066625998434423,-1.602643432316929
1667710022885448400,9.345448486328126,-3.1786566318616267,9.135448774769902,-1.6155825549975036
1667710022895498500,9.35549853515625,-2.977917786417901,9.214216606536507,-1.549388958121836
1667710022905549600,9.365549560546874,-2.7836311858534812,9.29610286258459,-1.4157161084741354
1667710022915600600,9.3756005859375,-2.594383748500049,9.377387061086296,-1.2264392988957464
1667710022925650700,9.385650634765625,-2.3971685471378263,9.457022323337197,-0.9943281407192349
1667710022935701500,9.395701416015624,-2.1744326816804707,9.533506428080797,-0.7446248464245349
1667710022945752600,9.405752685546876,-1.9210605626799164,9.602164369243383,-0.5275778037259354
1667710022955803600,9.4158037109375,-1.6573768930234014,9.658732644161582,-0.3638378421925008
1667710022965853400,9.425853515625,-1.405330615799129,9.702997317823767,-0.2174322243575938
1667710022975904500,9.435904541015624,-1.1623095757473259,9.737320443186164,-0.06346271517362911
1667710022985955600,9.44595556640625,-0.8983115794446319,9.765081141293049,0.08147512709707952
1667710022996006400,9.45600634765625,-0.5687369125882163,9.788097275221347,0.20022337020225822
1667710023006056400,9.466056396484374,-0.16300147292474285,9.800582662785052,0.3039786907690577
1667710023016107500,9.476107421875,0.2893136028124019,9.792572374808788,0.4384479332251474
1667710023026158600,9.48615869140625,0.7430508020408451,9.757157947078346,0.64507748067528
1667710023036209700,9.496209716796875,1.136267518126592,9.696963882878423,0.9209571995601058
1667710023046259700,9.506259765625,1.4569807235375045,9.620487961441277,1.222215470655635
1667710023056310500,9.516310546875,1.7561875419959425,9.525434765306114,1.5337212872602044
1667710023066361600,9.526361572265625,2.0643639949820933,9.406054352644086,1.8533591915898024
1667710023076412700,9.53641259765625,2.366185525983572,9.27215616980791,2.1444516771756112
1667710023086462500,9.54646240234375,2.616728851298988,9.150090463584661,2.366213290773332
1667710023096513500,9.556513427734375,2.8012591970026492,9.052892072114348,2.5235852881774306
1667710023106564600,9.566564697265624,2.9502015119746328,8.964270954853296,2.6661817412540314
1667710023116615400,9.576615478515626,3.081277038605511,8.868799241045117,2.83205794763118
1667710023126665500,9.58666552734375,3.1874566089108582,8.769851375558972,3.016661943092942
1667710023136716500,9.596716552734375,3.2719203142315147,8.685905848893523,3.165426855671406
1667710023146767600,9.606767578125,3.35004546418041,8.633091373550892,3.22758871281296
1667710023156818700,9.616818603515625,3.42629605242908,8.613936006703973,3.1985873669952154
1667710023166868500,9.626868408203125,3.4818943132713436,8.62593390301168,3.1048443766757843
1667710023176919600,9.63691943359375,3.496658459421992,8.668214124858379,2.9674621511161328
1667710023186970400,9.646970458984375,3.4628599424555895,8.740141296949982,2.790858214497566
1667710023197021400,9.657021484375,3.3704978851005434,8.838051636081934,2.5882372085690495
1667710023207071500,9.667071533203124,3.210046334120631,8.954609977060557,2.383471591827273
1667710023217122600,9.67712255859375,2.980551934313774,9.082755295458435,2.188663159345835
1667710023227173600,9.687173583984375,2.691848681952059,9.217485837465524,1.99054384875074
1667710023237224700,9.697224609375,2.3559501093037425,9.355533541196584,1.7589499924466012
1667710023247274800,9.707274658203126,2.038564075554162,9.477990877085924,1.477279853592068
1667710023257325600,9.71732568359375,1.8146517136633395,9.565561608511208,1.1736463047325612
1667710023267376600,9.727376708984375,1.6888365917786954,9.619485506400466,0.8852752799998969
1667710023277426700,9.7374267578125,1.6387185159131883,9.648601126247645,0.624078385657817
1667710023287476700,9.747476806640625,1.6759413082398473,9.653935473012924,0.4039421447722241
1667710023297527800,9.75752783203125,1.8205825650170444,9.631216860726475,0.3091157796628773
1667710023307579000,9.767578857421874,2.070119051377475,9.573071545749903,0.49125323888063427
1667710023317629700,9.777629638671876,2.2077517445668575,9.513605211302638,0.8874250053796917
1667710023327680000,9.787679931640625,2.1870415494933724,9.467820196205377,1.321977502068877
1667710023337730800,9.797730712890624,2.0572565010644492,9.439266886416076,1.6847221421971916
1667710023347781600,9.80778173828125,1.8279018019892275,9.423356200578809,2.0073624432131645
1667710023357832700,9.817832763671875,1.5306173298954964,9.409058795157074,2.3015702843405306
1667710023367882800,9.8278828125,1.2897748759917913,9.389547454479336,2.518578273670375
1667710023377933800,9.837933837890626,1.2085372200455515,9.373861225047706,2.615444948968291
1667710023387984600,9.847984619140625,1.321081868403405,9.378321711587905,2.5440578751027583
1667710023398035700,9.85803564453125,1.5990518375657499,9.389888815262912,2.333115761683136
1667710023408085800,9.868085693359374,1.8946796284936367,9.41729353953898,1.9736112725198267
1667710023418136800,9.87813671875,1.984191118723154,9.483960599145293,1.5125709472037852
1667710023428188000,9.88818798828125,1.8574336014218626,9.568808627608417,1.0762086976788938
1667710023438239000,9.898239013671875,1.6347788383767008,9.638085577452182,0.7779161445211619
1667710023448288800,9.908288818359376,1.4151098131440578,9.683103115308285,0.6366738825324922
1667710023458339600,9.918339599609375,1.2255398658379912,9.713414082419872,0.5639195389017463
1667710023468390700,9.928390625,1.0511856809075921,9.738545601066946,0.475540632898733
1667710023478441700,9.938441650390626,0.8515327310044318,9.76412661704719,0.32725239792130884
1667710023488491800,9.94849169921875,0.5745251406008377,9.788938986742496,0.13028922595824113
1667710023498542800,9.95854296875,0.1578161975076422,9.805227858242391,-0.05478887612156104
1667710023508594000,9.968593994140624,-0.48343401649706064,9.793162157395482,-0.17506790442401543
1667710023518644700,9.978644775390626,-1.2574823796741663,9.72367536419332,-0.1981447738299146
1667710023528694800,9.98869482421875,-1.8358587523430585,9.632333882057667,-0.13483543628682382
1667710023538745900,9.998745849609374,-2.1389739764168856,9.570152443432807,-0.08578134552417323
1667710023548796700,10.008796630859376,-2.34003197081238,9.522531445080041,-0.12664199202968737
1667710023558846700,10.0188466796875,-2.5561376044750213,9.464472639343143,-0.245578396384418
1667710023568897800,10.028897705078125,-2.788713895945251,9.393468427315353,-0.3952400751395151
1667710023578948900,10.038948974609376,-3.011098463746905,9.317282428735494,-0.5403064619936049
1667710023588999700,10.048999755859375,-3.197835671845078,9.245678497248887,-0.6794707486644387
1667710023599049700,10.0590498046875,-3.3434254615187644,9.181772719049453,-0.8288322388965637
1667710023609100800,10.069100830078124,-3.4567671785384415,9.123381320357321,-0.9925001946397125
1667710023619152000,10.07915185546875,-3.5224425967589017,9.077734836947917,-1.1651221489500254
1667710023629203000,10.089202880859375,-3.493172370871901,9.06745426595211,-1.3226498483724891
1667710023639252700,10.099252685546874,-3.36273631118834,9.099686556515097,-1.434602449121326
1667710023649303600,10.109303466796876,-3.185293877919018,9.155608350223302,-1.482944601355493
1667710023659354600,10.119354736328125,-3.010381839910149,9.219080997702479,-1.4548343591585755
1667710023669405700,10.12940576171875,-2.8452371626779436,9.287050372079014,-1.3511914677239953
1667710023679455700,10.139455810546876,-2.6726518140509725,9.35981107238531,-1.1921600126750767
1667710023689506800,10.1495068359375,-2.467723992484808,9.438419329676032,-0.998476638700813
1667710023699558000,10.159557861328125,-2.228240405844152,9.51731166460514,-0.7912775842670351
1667710023709608700,10.169608642578124,-1.9713443505011499,9.587222820699214,-0.6077347882959991
1667710023719658800,10.17965869140625,-1.7055452961258588,9.645399115335941,-0.47727911059651523
1667710023729709800,10.189709716796875,-1.4330984742991626,9.694082774484157,-0.3760266944950446
1667710023739761000,10.199760986328124,-1.163026711040735,9.733811558282374,-0.265817466814816
1667710023749812000,10.20981201171875,-0.8889361405950039,9.76532137978971,-0.13665369208939374
1667710023759861800,10.21986181640625,-0.5809076447121798,9.789427647042274,0.005984531469433568
1667710023769912800,10.229912841796875,-0.22532884109262374,9.802767021086812,0.15918399699581787
1667710023779963600,10.239963623046876,0.14860868997029028,9.79946739501953,0.3446138305561617
1667710023790014700,10.2500146484375,0.502375302201882,9.776869778764247,0.5751627078520134
1667710023800064800,10.260064697265625,0.8271746078826486,9.73507061843276,0.8453309537548571
1667710023810115800,10.27011572265625,1.1422852440461515,9.67313350995779,1.1384564064729958
1667710023820167000,10.2801669921875,1.450179372959584,9.591096447262167,1.4416079439692198
1667710023830217700,10.2902177734375,1.73527597913146,9.492462470030784,1.7470938426971434
1667710023840267800,10.300267822265624,1.997491475931555,9.38191418312192,2.0396317047856747
1667710023850318600,10.310318603515626,2.2311875652119517,9.2737437312603,2.2781321256078777
1667710023860369700,10.32036962890625,2.4360677482441067,9.178978704416751,2.4458722261607644
1667710023870420700,10.330420654296875,2.6317045943737027,9.089507107806206,2.5739798428967595
1667710023880470800,10.340470703125,2.8314985601827503,8.991582740148901,2.702669643434882
1667710023890521900,10.35052197265625,3.0208737155690786,8.885345302176475,2.845233071024716
1667710023900572700,10.36057275390625,3.1830493138626217,8.784149950024485,2.9794825515165924
1667710023910623700,10.370623779296874,3.323070948015153,8.705106808447837,3.057559770670533
1667710023920673800,10.380673828125,3.4527632035940883,8.652454830190539,3.06330912797749
1667710023930724900,10.390724853515625,3.5648373848959802,8.625660346767306,3.0100343416467306
1667710023940776000,10.40077587890625,3.6462273818597195,8.62423762048781,2.915121723026037
1667710023950827000,10.410826904296876,3.6875504491120576,8.650513048473,2.7822584361955522
1667710023960876800,10.420876708984375,3.684524087028205,8.704124811673164,2.6139742918938396
1667710023970927600,10.430927734375,3.630418695092201,8.779931455546617,2.4296616805940867
1667710023980978700,10.440978759765626,3.5190789655447006,8.872011773350835,2.252528897795826
1667710023991029800,10.45102978515625,3.345703343322873,8.977051525971293,2.0950467180155217
1667710024001079800,10.461079833984375,3.118594085086882,9.090399672731756,1.951772511807829
1667710024011131000,10.471130859375,2.861147848515212,9.205788385409116,1.7993515609398483
1667710024021181700,10.481181640625,2.590806766796112,9.318276115947961,1.621057771538198
1667710024031232000,10.49123193359375,2.348379674049467,9.413727371490001,1.4273257361166178
1667710024041282600,10.501282470703124,2.154410615001619,9.4878821565032,1.2284073840983212
1667710024051333600,10.511333740234376,2.003750974717736,9.545179914739727,1.0222140726409852
1667710024061384700,10.521384765625,1.8924463164836167,9.587450199714302,0.8184306718695908
1667710024071434800,10.531434814453124,1.8417355354219673,9.609283845859766,0.6633654170379042
1667710024081485800,10.54148583984375,1.906837099277228,9.596336101481318,0.6668561086978763
1667710024091536600,10.55153662109375,2.071899943444878,9.541250174075364,0.9176908912405372
1667710024101587700,10.561587646484375,2.20476790645048,9.469014958947897,1.2834149855710566
1667710024111637800,10.5716376953125,2.2008035328641533,9.421790850958228,1.598965328326076
1667710024121688800,10.581688720703125,2.031635006943345,9.40410614118576,1.8988525302641093
1667710024131740000,10.591739990234375,1.7894781094402075,9.385817620301246,2.2078502365052697
1667710024141791000,10.601791015625,1.62106756227985,9.358902140846848,2.4399802455127237
1667710024151840800,10.6118408203125,1.6273063105389476,9.339401321563123,2.5095497485622764
1667710024161891600,10.6218916015625,1.8751842160373926,9.332700947141646,2.3568596253640948
1667710024171942700,10.631942626953125,2.158304699830711,9.342310487008094,2.0575129600435496
1667710024181993700,10.64199365234375,2.2865755443044007,9.368649043357372,1.7805566979683936
1667710024192043800,10.652043701171875,2.271946130449325,9.409934993469715,1.5690063895225523
1667710024202094800,10.6620947265625,2.138118820892274,9.465812363514303,1.4132332056172192
1667710024212146000,10.67214599609375,1.8873858182236551,9.536984333324432,1.2861096314825118
1667710024222196700,10.68219677734375,1.5270182824902236,9.617120530834793,1.161715263115987
1667710024232246800,10.692246826171875,1.0933167766071856,9.693191963124274,1.0084964398685843
1667710024242297900,10.7022978515625,0.6484675615049899,9.753498255527019,0.7868633480213582
1667710024252348700,10.7123486328125,0.2396933021348901,9.791977916046976,0.4797149229086935
1667710024262399700,10.722399658203125,-0.14683088490911758,9.804655026790499,0.13251584336599334
1667710024272449800,10.73244970703125,-0.6041070993181318,9.786503868550062,-0.17256441543679685
1667710024282500900,10.7425009765625,-1.0790567805863915,9.740339498746394,-0.36307343369126316
1667710024292551700,10.7525517578125,-1.4725762059457599,9.686173024272918,-0.42422125495206564
1667710024302602800,10.762602783203125,-1.8121058285728096,9.629022565552592,-0.41058172891717404
1667710024312652800,10.77265283203125,-2.16302953639552,9.556724806582928,-0.4008529831178486
1667710024322704000,10.782703857421875,-2.5392083892449735,9.461947504779696,-0.4408731510780751
1667710024332755000,10.7927548828125,-2.8851301971271632,9.357204104757308,-0.5377271495575084
1667710024342805800,10.8028056640625,-3.1571006336137653,9.260225493517517,-0.6718035019721835
1667710024352855800,10.812855712890626,-3.368566332516074,9.173016581141948,-0.8239730353623628
1667710024362906600,10.82290673828125,-3.545564529149234,9.08946151509881,-0.990475337748602
1667710024372957700,10.832957763671875,-3.704200262878835,9.00343099885285,-1.177925004965067
1667710024383008800,10.8430087890625,-3.837076116929948,8.91814107184112,-1.383468181950599
1667710024393058800,10.853058837890625,-3.899290873302519,8.857136275780201,-1.5865261179916559
1667710024403110000,10.86310986328125,-3.841938170008361,8.851538309642672,-1.7493354841440916
1667710024413160700,10.87316064453125,-3.688831136572361,8.897787435120344,-1.8418167839646338
1667710024423211800,10.883211669921875,-3.51200186676532,8.966341915908455,-1.8549827011384068
1667710024433261800,10.89326171875,-3.3515055998608467,9.042447250467538,-1.780993920341879
1667710024443313000,10.90331298828125,-3.2044723333805796,9.126223265784978,-1.6167269027270377
1667710024453363700,10.91336376953125,-3.0577190528854725,9.217049199613928,-1.3662912755697965
1667710024463414800,10.923414794921875,-2.8831211953923104,9.313751916521786,-1.0545195015054196
1667710024473464800,10.93346484375,-2.6446882868483663,9.414331182602048,-0.7391819247182458
1667710024483515600,10.943515625,-2.348861466217041,9.509095624923706,-0.47991468326449394
1667710024493566700,10.953566650390625,-2.047048410782963,9.586741759184003,-0.27269018386220556
1667710024503617800,10.96361767578125,-1.7687478944920003,9.645602528953551,-0.06539965175269172
1667710024513667800,10.973667724609374,-1.4913953265756368,9.691194067305325,0.16397994430176913
1667710024523719000,10.983718994140625,-1.154898861099407,9.730391520705819,0.39505375878717747
1667710024533769700,10.993769775390625,-0.7576596845645457,9.75748703290224,0.6227194453295319
1667710024543820800,11.00382080078125,-0.351341933234781,9.761676301285624,0.8698540581800043
1667710024553870600,11.01387060546875,0.02935531948772259,9.741564072105287,1.1275889024347066
1667710024563921700,11.023921630859375,0.37930662948116656,9.706146721765398,1.3480568229600787
1667710024573972700,11.03397265625,0.720469552398473,9.664324765080213,1.500717135541886
1667710024584022800,11.044022705078126,1.0774912117701023,9.608462008082865,1.639167867115885
1667710024594073900,11.054073974609375,1.4400680210508405,9.527821368181705,1.8213215468160806
1667710024604124700,11.064124755859375,1.7532096952289342,9.430594335138798,2.0397380877695976
1667710024614175700,11.07417578125,1.9964520498812197,9.338129986453056,2.2324650378018616
1667710024624225800,11.084225830078125,2.2077331859968603,9.256412657231092,2.369626314087212
1667710024634276900,11.09427685546875,2.423159459093213,9.172514476838707,2.482676939205825
1667710024644328000,11.104327880859374,2.635634042777121,9.075254710569977,2.6198463987976313
1667710024654379000,11.11437890625,2.8222251204028725,8.968369622343777,2.788151878148317
1667710024664428800,11.1244287109375,2.9865546818599102,8.869163982704281,2.930666205899417
1667710024674479600,11.134479736328124,3.140647511462867,8.793207701227068,2.9977050214275716
1667710024684530700,11.14453076171875,3.2793259143128988,8.744390771088003,2.9919927812606093
1667710024694581800,11.154581787109375,3.385872856625914,8.72199773749411,2.938192217490077
1667710024704631800,11.1646318359375,3.457270451885462,8.727679874783753,2.8364193577110766
1667710024714683000,11.174682861328124,3.496858365908265,8.761223832467198,2.6801711036399007
1667710024724734000,11.18473388671875,3.5011727219760416,8.816282871866227,2.4870389338076113
1667710024734784800,11.19478466796875,3.4509853802666064,8.886717175051569,2.2994195360474285
1667710024744834600,11.20483447265625,3.3106159555897117,8.975331278049945,2.1572243572480976
1667710024754885600,11.2148857421875,3.079853727804124,9.080686672490835,2.0557351367160677
1667710024764936700,11.224936767578125,2.790836002665758,9.197486421009897,1.9462432269923389
1667710024774987800,11.23498779296875,2.488485333223641,9.314515886631607,1.7937686462409794
1667710024785037800,11.245037841796876,2.2344009743005038,9.411894310843945,1.610618064457923
1667710024795089000,11.2550888671875,2.04012986356616,9.487538457632064,1.4123947089664637
1667710024805139700,11.2651396484375,1.8760069305971263,9.54913069819212,1.2104103935062884
1667710024815190800,11.275190673828124,1.7482110101588069,9.594286767736076,1.0313993957459926
1667710024825240800,11.28524072265625,1.735917784166336,9.607218145501614,0.9264617883257568
1667710024835292000,11.2952919921875,1.871833005913347,9.572621463894844,1.0156371784687042
1667710024845343000,11.305343017578124,2.026228910116106,9.50337958536446,1.3230904317468404
1667710024855393800,11.315393798828126,2.042189134183526,9.447341471800208,1.6575867363817989
1667710024865443600,11.325443603515625,1.8867098186582325,9.418088489308953,1.977452750378847
1667710024875494700,11.33549462890625,1.6457012144073844,9.38303003540933,2.328269344565272
1667710024885545700,11.345545654296876,1.4599806360058485,9.333767115068435,2.630515969111025
1667710024895596800,11.3555966796875,1.4409795829378067,9.292731340324877,2.7819246741965413
1667710024905646800,11.365646728515625,1.6051862486675381,9.270096899190545,2.7675042269170285
1667710024915698000,11.375697998046874,1.8864033830575644,9.265634659084677,2.599982299159467
1667710024925748700,11.385748779296875,2.0904057603418824,9.279902838411926,2.3841122278183695
1667710024935799800,11.3957998046875,2.168982015059143,9.317223392024635,2.157611749130487
1667710024945849600,11.405849609375,2.110713658224791,9.384190311360358,1.9110837969362735
1667710024955900700,11.415900634765626,1.8985529627956448,9.480143671205639,1.6409649796657264
1667710024965951700,11.42595166015625,1.52380297370553,9.591555296945572,1.3603306135997175
1667710024976002800,11.4360029296875,1.0452420431375502,9.690835170865059,1.0796151451215148
1667710024986052900,11.446052978515626,0.5640276754513383,9.759970666411519,0.7715188446994871
1667710024996103700,11.456103759765625,0.16429480067091062,9.797085468319057,0.4006298053538426
1667710025006154800,11.46615478515625,-0.15983245096718893,9.805346516185999,-0.0026027857848734126
1667710025016205800,11.476205810546874,-0.5336116770626976,9.786326758417486,-0.3368410776628181
1667710025026256000,11.486255859375,-1.0120566165681928,9.739997553440928,-0.5277981319457292
1667710025036307000,11.496306884765625,-1.4584465583063662,9.678863578042387,-0.6024260874286294
1667710025046357800,11.506357666015624,-1.8221623815543948,9.615876083731651,-0.6205239811118691
1667710025056408800,11.516408935546876,-2.1430789275176823,9.547488191682099,-0.6504221296388656
1667710025066458600,11.526458740234375,-2.4520082446977494,9.467177806648612,-0.7284121089007705
1667710025076509700,11.536509765625,-2.7170854145392775,9.383969362086058,-0.8537915427818894
1667710025086560800,11.546560791015626,-2.9183421463772654,9.307976255729795,-1.007588677373901
1667710025096611800,11.55661181640625,-3.069560589587688,9.24073168849647,-1.1649318140096963
1667710025106662000,11.566661865234375,-3.195629686233401,9.175724671056866,-1.3283135732226072
1667710025116712700,11.576712646484374,-3.3117388221397994,9.106542998281121,-1.5078598469033837
1667710025126763800,11.586763671875,-3.406035939210653,9.038393006640673,-1.696102637258917
1667710025136814800,11.59681494140625,-3.439344919094443,8.988814444479345,-1.8821531782671808
1667710025146865000,11.606864990234374,-3.3585146018400787,8.986856880670786,-2.0315449905723333
1667710025156915700,11.616915771484376,-3.2052208136603233,9.030326604562998,-2.08570605821833
1667710025166966800,11.626966796875,-3.0948323934882875,9.085554570788144,-2.0112411843426523
1667710025177016800,11.637016845703124,-3.0432147267147895,9.142871033725141,-1.8212999195061623
1667710025187067600,11.647067626953126,-2.9894971650525926,9.209885883855819,-1.5528364682272076
1667710025197118700,11.65711865234375,-2.8711949030160904,9.294103213199973,-1.2434931634187698
1667710025207169800,11.667169677734375,-2.6736235816925764,9.389365668171644,-0.9284034969780594
1667710025217219800,11.6772197265625,-2.4306848861619827,9.47803588527143,-0.6549806697260588
1667710025227271000,11.68727099609375,-2.1779295838855206,9.551559971165657,-0.4412420209230855
1667710025237321700,11.69732177734375,-1.9180889995232224,9.613829088073969,-0.25616432526865973
1667710025247372800,11.707372802734374,-1.6387791600592434,9.668499420416355,-0.06988272001745645
1667710025257422600,11.717422607421875,-1.3206804479956626,9.716462364074587,0.12856514211199246
1667710025267473700,11.7274736328125,-0.9388044064179062,9.75590297858119,0.33378322446215897
1667710025277525200,11.737525146484375,-0.5271698805121705,9.776711373332143,0.5553252404924481
1667710025287576300,11.747576416015624,-0.12018202963480726,9.771852242863178,0.816609155530855
1667710025297626400,11.75762646484375,0.26011359261739997,9.741659349173307,1.0967238085716962
1667710025307677200,11.76767724609375,0.6028776671210303,9.697367202982306,1.3296611884392797
1667710025317728300,11.777728271484374,0.9197590758167207,9.648333415222167,1.4946832622051238
1667710025327779300,11.787779296875,1.240754970626533,9.587014146384597,1.649265628890693
1667710025337829400,11.797829345703125,1.5780502583302556,9.4992400013417,1.855958706563711
1667710025347880400,11.80788037109375,1.8815718712478875,9.392357251203059,2.1008863839544354
1667710025357931300,11.81793115234375,2.1210637873254714,9.291671602138877,2.3100515508294106
1667710025367982300,11.827982421875,2.3194863186508416,9.20399039607644,2.465140113471448
1667710025378032000,11.8380322265625,2.5143510113641616,9.113252140530943,2.6071166810840367
1667710025388083200,11.848083251953126,2.6976199588298795,9.00629983228743,2.789224475815892
1667710025398134300,11.85813427734375,2.847815780994296,8.886172985172271,3.015995880399644
1667710025408185300,11.868185302734375,2.9807243682712317,8.772070220652223,3.21503668975383
1667710025418235400,11.8782353515625,3.1175127195909615,8.682780994871258,3.3257781611472366
1667710025428286200,11.8882861328125,3.2552906664699313,8.626450035840273,3.3403310026347635
1667710025438337300,11.898337158203125,3.3705975460827347,8.604107855650781,3.28311010902673
1667710025448388400,11.908388427734375,3.4505899512082334,8.618485925093292,3.1599940169677136
1667710025458438100,11.918438232421876,3.493496195998788,8.670181625539064,2.9654385363340374
1667710025468489200,11.9284892578125,3.4870755153015254,8.753267905026673,2.718639658243954
1667710025478540300,11.938540283203125,3.405892439086735,8.860687246260046,2.4614038495525716
1667710025488591000,11.948591064453124,3.2355519467771052,8.98555924207568,2.2274045395419
1667710025498641200,11.95864111328125,2.9920091478735205,9.119721044284105,2.0121990695893763
1667710025508692200,11.968692138671875,2.704432269193232,9.254210763272642,1.7933282089971005
1667710025518743300,11.978743408203124,2.430456191972643,9.37331235899329,1.5505819672986865
1667710025528794400,11.98879443359375,2.216993181773275,9.46514659308195,1.2908546340525149
1667710025538844400,11.998844482421875,2.0590318401739,9.532480007642507,1.0308299252949655
1667710025548895200,12.008895263671874,1.9385139479145406,9.581961539170145,0.7736624325994401
1667710025558946300,12.0189462890625,1.8674980454489587,9.612065001010894,0.5394928075231611
1667710025568997400,12.028997314453125,1.8751134888887404,9.61729530287981,0.4024411656247452
1667710025579047200,12.039047119140625,1.9727682458244262,9.593242811641096,0.49827802295088763
1667710025589098200,12.04909814453125,2.0753616282060743,9.548554359608888,0.8296648903284222
1667710025599149300,12.0591494140625,2.1338452352263033,9.492752977409959,1.2266682853460311
1667710025609200000,12.0692001953125,2.157857248324156,9.445654541626572,1.5144813108697532
1667710025619250200,12.079250244140624,2.130831001971662,9.417528517338633,1.7146728976942598
1667710025629301200,12.08930126953125,2.0514840551428497,9.393562535339594,1.9294579502776263
1667710025639352300,12.099352294921875,2.102232683996856,9.327675812456011,2.17841532157585
1667710025649403400,12.1094033203125,2.315162317971885,9.23409385791719,2.3541250858336684
1667710025659453400,12.119453369140626,2.5651281356602906,9.15354148082137,2.408982611311227
1667710025669504300,12.129504150390625,2.7178409090816973,9.123346833565831,2.3554680248752233
1667710025679555000,12.13955517578125,2.751874111586809,9.125916976314782,2.3054719679541886
1667710025689606100,12.149606201171874,2.6897441108882427,9.154235308304429,2.266201887708902
1667710025699656200,12.15965625,2.5360654150441286,9.217687497517465,2.184720705330372
1667710025709707300,12.169707275390625,2.278961269908398,9.31868586579263,2.034405786830932
1667710025719758300,12.17975830078125,1.9024594687148928,9.444533428642153,1.8307956237345933
1667710025729809400,12.189809326171876,1.4544056123524904,9.56637993915677,1.5935660996310412
1667710025739859500,12.199859375,1.0000063324861228,9.663780575200915,1.3347984051972628
1667710025749910300,12.20991015625,0.5869785986563191,9.735532390725613,1.022385849011317
1667710025759961300,12.21996142578125,0.21607195058874784,9.781990190517902,0.6605988018687814
1667710025770012400,12.230012451171875,-0.2510042573580518,9.798172679033875,0.32125480147432534
1667710025780062200,12.240062255859375,-0.7703259816531092,9.775601950785518,0.12081618108619004
1667710025790113300,12.25011328125,-1.1902442421816288,9.734013802856206,0.05185233861247543
1667710025800164000,12.2601640625,-1.5360000458471477,9.685506669318675,0.04532525209840387
1667710025810215200,12.270215087890625,-1.8992692943714558,9.620926937380432,0.03074170951193664
1667710025820265200,12.28026513671875,-2.295918103797734,9.53403951204419,-0.0350252571662073
1667710025830316300,12.29031640625,-2.662616449987888,9.436927045291661,-0.15896337651507927
1667710025840367400,12.300367431640625,-2.9722642907008527,9.339198492467403,-0.33970775567293165
1667710025850418400,12.31041845703125,-3.223565740907192,9.244752614575624,-0.55995052567292
1667710025860468500,12.320468505859376,-3.412952878992259,9.159336430835724,-0.7929062083821743
1667710025870519000,12.33051904296875,-3.5581732508316635,9.079479050266743,-1.0357870362456887
1667710025880570000,12.340570068359375,-3.665627955639362,9.00372442884147,-1.290924630548805
1667710025890620200,12.3506201171875,-3.7100831834375856,8.945923397257923,-1.541467663603276
1667710025900671200,12.360671142578125,-3.662993515482545,8.92690597757697,-1.7502103672824798
1667710025910722300,12.370722412109375,-3.5346064972832796,8.950000437438488,-1.8906158861860631
1667710025920773400,12.3807734375,-3.3599308983787894,9.004103199025987,-1.9512489263251422
1667710025930823400,12.390823486328125,-3.1970804695636033,9.072011783125996,-1.9098868422366677
1667710025940874200,12.400874267578125,-3.0828985023275015,9.143779380741714,-1.7485512018986045
1667710025950925300,12.41092529296875,-2.9938378246054054,9.220781371879577,-1.4780099214322864
1667710025960976400,12.420976318359376,-2.8607816455513237,9.312730172258615,-1.1222156849637628
1667710025971026200,12.431026123046875,-2.644764859215915,9.415548741698265,-0.7232257923040538
1667710025981077200,12.4410771484375,-2.372788139118999,9.508362049952149,-0.36238267494812604
1667710025991128300,12.45112841796875,-2.0974514410696923,9.579349895367026,-0.0844079748117365
1667710026001179100,12.46117919921875,-1.845993046735972,9.630402621734142,0.13427882531736976
1667710026011229200,12.471229248046875,-1.5979162576645611,9.66920026216209,0.3515884553417563
1667710026021280300,12.4812802734375,-1.2944897756844758,9.703378426095842,0.5823320149594917
1667710026031331300,12.491331298828126,-0.9149223033100367,9.729334120607376,0.8205813470974564
1667710026041382400,12.50138232421875,-0.4876643110105768,9.737129889050125,1.05870767391026
1667710026051432400,12.511432373046874,-0.03656084640276385,9.72163947445154,1.287932024604082
1667710026061483300,12.521483154296876,0.39607849872503426,9.6815266597718,1.5104836195357143
1667710026071534000,12.5315341796875,0.7816266164116561,9.625100423672794,1.7078920053824782
1667710026081585200,12.541585205078125,1.128268993653357,9.556745264849067,1.8883816973932086
1667710026091635200,12.55163525390625,1.4724436656072735,9.467033429741859,2.092258402471244
1667710026101686300,12.561686279296875,1.8102793437980114,9.353174410849808,2.326246314305067
1667710026111737300,12.5717373046875,2.092282221738249,9.234980577623844,2.5510569402098655
1667710026121788200,12.5817880859375,2.317010576187074,9.12331117773056,2.7508196340978146
1667710026131838200,12.591838134765625,2.5123370411932466,9.011059594035148,2.9426778384715315
1667710026141889300,12.60188916015625,2.6839371781751513,8.892201743942499,3.1457284679889677
1667710026151940400,12.6119404296875,2.832005925182998,8.769526965910195,3.353439490532875
1667710026161991400,12.621991455078126,2.9727327849954364,8.659143514174222,3.5146059117838737
1667710026172041200,12.632041259765625,3.117682230938971,8.580325998046995,3.581681844452023
1667710026182092300,12.64209228515625,3.250028508158028,8.535304368537664,3.571592412114143
1667710026192143000,12.65214306640625,3.3422143321633335,8.523371354159712,3.5145544738575816
1667710026202194200,12.662194091796875,3.3934625811025496,8.548249774828554,3.4032714429333804
1667710026212244200,12.672244140625,3.4033269725129007,8.61373493117392,3.2235607724711297
1667710026222295300,12.68229541015625,3.3460543487176295,8.716688525170087,2.9989456691384313
1667710026232346400,12.692346435546876,3.1880659729808567,8.851474012234807,2.7673195179998875
1667710026242397200,12.702397216796875,2.9153879727467893,9.01238061350584,2.539265672390163
1667710026252447500,12.712447509765624,2.561979023979604,9.186082983464003,2.2852824357539414
1667710026262498300,12.722498291015626,2.1970592317692934,9.348597019931674,1.986726628550142
1667710026272549400,12.73254931640625,1.9015888233602045,9.474430554255843,1.6701872747577726
1667710026282600200,12.74260009765625,1.7042691387102007,9.557979190558195,1.382350137706101
1667710026292650200,12.752650146484376,1.5817261703640222,9.612291210982203,1.1280123154785484
1667710026302701300,12.762701416015625,1.5464138878338038,9.641721303606033,0.9034324295897036
1667710026312752000,12.772752197265625,1.633747157241404,9.640666826117037,0.7475259746935218
1667710026322803200,12.78280322265625,1.828239217250049,9.602541385862231,0.7868436204075813
1667710026332853000,12.79285302734375,2.0131768285803497,9.53693055731058,1.0790903175298123
1667710026342904000,12.802904052734375,2.0730286552138626,9.47163946223259,1.4700273982457817
1667710026352955100,12.812955078125,1.9932174518741665,9.42926571688354,1.8128484636336564
1667710026363006200,12.823006103515626,1.8038158468723295,9.39765126595795,2.1449445752590894
1667710026373056300,12.83305615234375,1.5668723001033067,9.36113559898734,2.466667469169199
1667710026383107000,12.843107177734375,1.4449550624400376,9.310905294919014,2.7183734085232016
1667710026393158100,12.853158203125,1.4998248628772795,9.270735197094082,2.823894807180762
1667710026403209200,12.863209228515625,1.7121321271702645,9.254320653387904,2.7561832069575787
1667710026413259000,12.873259033203125,1.9876986884526908,9.264400148853658,2.5279057817250488
1667710026423310000,12.88331005859375,2.146746948505938,9.294640388816594,2.274100532004237
1667710026433361200,12.893361083984376,2.176929466932267,9.342693348845838,2.036045516861975
1667710026443412000,12.903411865234375,2.0729843776807186,9.412290616685151,1.8116013861820102
1667710026453462000,12.9134619140625,1.8375864529184995,9.500237780207396,1.5934750603467225
1667710026463513000,12.92351318359375,1.4675959333151578,9.59812123133242,1.3757247282169758
1667710026473564200,12.933564208984375,1.0124586214978246,9.686572252723574,1.1470128570899367
1667710026483615200,12.943615234375,0.5579276415431872,9.75239526272118,0.8659639188736676
1667710026493665300,12.953665283203126,0.1646592866017483,9.79290496776402,0.49223037681709975
