time,seconds_elapsed,z,y,x
1667710013568404500,0.028404541015625,-0.07610694319009781,0.6822465658187866,1.071492314338684
1667710013578455600,0.03845556640625,0.013816025108098984,0.8695186972618103,0.9277967810630798
1667710013588506400,0.04850634765625,0.027407221496105194,1.010955810546875,0.6694908142089844
1667710013598556200,0.05855615234375,0.011495101265609264,1.0956488847732544,0.2982884645462036
1667710013608607200,0.068607177734375,-0.022013800218701363,1.172384262084961,-0.08857640624046326
1667710013618658300,0.078658203125,-0.07706400752067566,1.1516789197921753,-0.44826722145080566
1667710013628709400,0.08870947265625,-0.12924617528915405,1.1343066692352295,-0.7528164386749268
1667710013638759400,0.098759521484375,-0.1234269067645073,1.135564923286438,-0.9755882620811462
1667710013648810500,0.108810546875,-0.05808402597904205,1.1425400972366333,-1.1410739421844482
1667710013658861300,0.118861328125,0.05969506874680519,1.1509426832199097,-1.2240164279937744
1667710013668912400,0.128912353515625,0.19989106059074402,1.1691280603408813,-1.2612642049789429
1667710013678962400,0.13896240234375,0.3413275480270386,1.164576768875122,-1.2708721160888672
1667710013689013500,0.149013427734375,0.457216739654541,1.1193066835403442,-1.2284114360809326
1667710013699064600,0.159064697265625,0.5197058916091919,1.0674751996994019,-1.105252742767334
1667710013709115400,0.169115478515625,0.5557152032852173,1.032171368598938,-0.9408740401268005
1667710013719165400,0.17916552734375,0.5736659169197083,1.0033400058746338,-0.7338500022888184
1667710013729216300,0.18921630859375,0.5838043689727783,1.011275291442871,-0.5119394659996033
1667710013739267300,0.199267333984375,0.5888361930847168,1.0306357145309448,-0.2858724892139435
1667710013749318400,0.209318359375,0.6020604968070984,1.072566270828247,-0.06514765322208405
1667710013759368400,0.219368408203125,0.6212839484214783,1.1134991645812988,0.127919539809227
1667710013769419500,0.22941943359375,0.6702284216880798,1.1589863300323486,0.29207152128219604
1667710013779470300,0.23947021484375,0.7591886520385742,1.190657377243042,0.42804133892059326
1667710013789521400,0.249521484375,0.8495330214500427,1.2226461172103882,0.5207736492156982
1667710013799571500,0.259571533203125,0.9099332690238953,1.2113556861877441,0.5439247488975525
1667710013809622300,0.269622314453125,0.9386427998542786,1.173080563545227,0.516666054725647
1667710013819673300,0.27967333984375,0.9597592949867249,1.122027039527893,0.4800300598144531
1667710013829724400,0.289724365234375,0.9818657636642456,1.0771310329437256,0.4462835192680359
1667710013839774500,0.2997744140625,0.9916448593139648,1.0893805027008057,0.4351925253868103
1667710013849825300,0.3098251953125,0.9906578063964844,1.129752278327942,0.4427837133407593
1667710013859876400,0.31987646484375,1.0024423599243164,1.2146719694137573,0.4401527941226959
1667710013869927400,0.329927490234375,1.0384083986282349,1.2637354135513306,0.41446295380592346
1667710013879977500,0.3399775390625,1.102213978767395,1.2986254692077637,0.36064285039901733
1667710013890028500,0.350028564453125,1.1822566986083984,1.3317307233810425,0.2827403247356415
1667710013900079600,0.36007958984375,1.2283779382705688,1.3270901441574097,0.17157572507858276
1667710013910130400,0.37013037109375,1.164413332939148,1.3043502569198608,0.05701890215277672
1667710013920180200,0.38018017578125,1.141624093055725,1.1975950002670288,-0.0752994492650032
1667710013930231300,0.390231201171875,1.1992559432983398,1.188869833946228,-0.1960858553647995
1667710013940282400,0.400282470703125,1.2489515542984009,1.2168718576431274,-0.2817557752132416
1667710013950333400,0.41033349609375,1.2539947032928467,1.2594252824783325,-0.37646299600601196
1667710013960383500,0.420383544921875,1.2493146657943726,1.355317234992981,-0.5139646530151367
1667710013970434300,0.430434326171875,1.2319328784942627,1.4650624990463257,-0.6818157434463501
1667710013980485400,0.4404853515625,1.1942821741104126,1.5893325805664062,-0.8265905380249023
1667710013990536400,0.450536376953125,1.1630650758743286,1.7026501893997192,-0.9098497629165649
1667710014000586500,0.46058642578125,1.1504480838775635,1.7998923063278198,-0.9117307662963867
1667710014010637300,0.47063720703125,1.1711772680282593,1.886577844619751,-0.7951393127441406
1667710014020688400,0.4806884765625,1.229689359664917,1.9473365545272827,-0.5473790168762207
1667710014030739200,0.4907392578125,1.3158531188964844,1.9608263969421387,-0.24686677753925323
1667710014040789200,0.500789306640625,1.4022772312164307,1.8923176527023315,-0.003893272252753377
1667710014050840300,0.51084033203125,1.4391627311706543,1.7970969676971436,0.11920923739671707
1667710014060891400,0.520891357421875,1.3931238651275635,1.7550519704818726,0.06476090848445892
1667710014070942500,0.5309423828125,1.2580057382583618,1.7577985525131226,-0.153053417801857
1667710014080992500,0.540992431640625,1.0668461322784424,1.8193974494934082,-0.48704099655151367
1667710014091043600,0.551043701171875,0.880673885345459,1.9000436067581177,-0.8612707853317261
1667710014101094400,0.561094482421875,0.7615642547607422,1.911239743232727,-1.1355398893356323
1667710014111145500,0.5711455078125,0.6983916759490967,1.8594372272491455,-1.2268774509429932
1667710014121195300,0.5811953125,0.6849405765533447,1.809124231338501,-1.1711636781692505
1667710014131246300,0.591246337890625,0.6989460587501526,1.7376585006713867,-1.0191473960876465
1667710014141297400,0.60129736328125,0.7220931649208069,1.6307977437973022,-0.8943894505500793
1667710014151348500,0.611348388671875,0.7388423085212708,1.4658560752868652,-0.8378349542617798
1667710014161398500,0.6213984375,0.7081118226051331,1.3330156803131104,-0.8000519275665283
1667710014171449300,0.631449462890625,0.6794016361236572,1.1932661533355713,-0.7734462022781372
1667710014181500400,0.64150048828125,0.6656482219696045,1.0020620822906494,-0.6940962672233582
1667710014191551500,0.651551513671875,0.6605852246284485,0.8131080865859985,-0.5496563911437988
1667710014201601500,0.6616015625,0.6526263952255249,0.7039504051208496,-0.4103994369506836
1667710014211652400,0.67165234375,0.6736480593681335,0.6650185585021973,-0.38943687081336975
1667710014221703200,0.681703125,0.7179638743400574,0.6003162860870361,-0.47101452946662903
1667710014231754200,0.691754150390625,0.7183629274368286,0.48983171582221985,-0.5369044542312622
1667710014241804300,0.70180419921875,0.6955947875976562,0.31133678555488586,-0.5890830159187317
1667710014251855400,0.71185546875,0.6261414885520935,0.1182776689529419,-0.6330065131187439
1667710014261906400,0.721906494140625,0.5191806554794312,-0.07543480396270752,-0.6870009899139404
1667710014271957500,0.73195751953125,0.3997359573841095,-0.28840571641921997,-0.7477423548698425
1667710014282007600,0.742007568359375,0.3090153634548187,-0.45526766777038574,-0.7928954362869263
1667710014292058400,0.752058349609375,0.245429128408432,-0.5503832101821899,-0.8016852140426636
1667710014302109400,0.762109375,0.20406784117221832,-0.6141421794891357,-0.7551257014274597
1667710014312160500,0.772160400390625,0.21429535746574402,-0.6494413614273071,-0.6758074760437012
1667710014322210300,0.782210205078125,0.25852060317993164,-0.6983258128166199,-0.5840112566947937
1667710014332261400,0.792261474609375,0.30275335907936096,-0.7134953737258911,-0.5043809413909912
1667710014342312400,0.8023125,0.3321700990200043,-0.7104223370552063,-0.45231398940086365
1667710014352363300,0.81236328125,0.3501424491405487,-0.6412602066993713,-0.42880985140800476
1667710014362413300,0.822413330078125,0.3748936057090759,-0.5443429350852966,-0.43045541644096375
1667710014372464400,0.83246435546875,0.40564942359924316,-0.4965539276599884,-0.4439130425453186
1667710014382515500,0.842515380859375,0.439252108335495,-0.4740438163280487,-0.44575247168540955
1667710014392566500,0.85256640625,0.4781479835510254,-0.47334712743759155,-0.4140557050704956
1667710014402616600,0.862616455078125,0.49678611755371094,-0.5105357766151428,-0.3114483654499054
1667710014412667400,0.87266748046875,0.4871823787689209,-0.5748270153999329,-0.16225440800189972
1667710014422718200,0.88271826171875,0.46349331736564636,-0.6523590683937073,-0.0012892247177660465
1667710014432769300,0.892769287109375,0.41180768609046936,-0.7455769777297974,0.13867779076099396
1667710014442819300,0.9028193359375,0.3461892604827881,-0.840345025062561,0.24229446053504944
1667710014452870400,0.912870361328125,0.2600395083427429,-0.929504930973053,0.3344607353210449
1667710014462921500,0.92292138671875,0.16816283762454987,-1.0127735137939453,0.42616748809814453
1667710014472972300,0.93297216796875,0.07449828088283539,-1.0372675657272339,0.4951961040496826
1667710014483022300,0.943022216796875,-0.013437433168292046,-1.0059512853622437,0.5167471766471863
1667710014493073400,0.953073486328125,-0.06570699065923691,-0.9200977683067322,0.474793016910553
1667710014503124500,0.96312451171875,-0.08233603090047836,-0.7812243103981018,0.3954734206199646
1667710014513175600,0.973175537109375,-0.07088730484247208,-0.6189026236534119,0.30330705642700195
1667710014523225300,0.983225341796875,-0.050597213208675385,-0.5066850185394287,0.2088194489479065
1667710014533276400,0.9932763671875,-0.02611963078379631,-0.48515164852142334,0.12339982390403748
1667710014543327200,1.0033271484375,-0.011756669729948044,-0.5425747036933899,0.07107483595609665
1667710014553378300,1.01337841796875,-0.02249317243695259,-0.6493427157402039,0.032719891518354416
1667710014563428400,1.023428466796875,-0.050088848918676376,-0.7796037793159485,0.006526369601488113
1667710014573479400,1.0334794921875,-0.08113908767700195,-0.917756974697113,-0.013175278902053833
1667710014583530500,1.043530517578125,-0.10658638924360275,-1.0698213577270508,-0.03066372498869896
1667710014593581300,1.053581298828125,-0.1565125435590744,-1.188883662223816,-0.04899820685386658
1667710014603631600,1.063631591796875,-0.19411131739616394,-1.224564790725708,-0.07103294134140015
1667710014613682400,1.073682373046875,-0.19849778711795807,-1.1948645114898682,-0.12457113713026047
1667710014623733200,1.083733154296875,-0.1824788749217987,-1.0925618410110474,-0.2352137565612793
1667710014633784300,1.093784423828125,-0.1800054907798767,-0.9985602498054504,-0.4246939420700073
1667710014643834400,1.10383447265625,-0.22089380025863647,-0.9425011873245239,-0.5800923109054565
1667710014653885400,1.113885498046875,-0.295572966337204,-0.9348459839820862,-0.6353976726531982
1667710014663936300,1.123936279296875,-0.3918164074420929,-0.9269608855247498,-0.5638853907585144
1667710014673987300,1.1339873046875,-0.4710882902145386,-0.8661148548126221,-0.3786509931087494
1667710014684037400,1.144037353515625,-0.5064670443534851,-0.7845579385757446,-0.11387952417135239
1667710014694088400,1.15408837890625,-0.4920743703842163,-0.6820680499076843,0.19154509902000427
1667710014704139500,1.164139404296875,-0.44256487488746643,-0.5920436382293701,0.4631563425064087
1667710014714190600,1.174190673828125,-0.3736034333705902,-0.5079516172409058,0.6740221977233887
1667710014724240400,1.184240478515625,-0.2933083474636078,-0.3804208040237427,0.7957313060760498
1667710014734291200,1.194291259765625,-0.23751547932624817,-0.22398996353149414,0.8459386229515076
1667710014744342300,1.20434228515625,-0.22364600002765656,-0.06923021376132965,0.8227632641792297
1667710014754393300,1.214393310546875,-0.28757551312446594,0.09645721316337585,0.7436886429786682
1667710014764443400,1.224443359375,-0.409249484539032,0.21070656180381775,0.6330617666244507
1667710014774494500,1.234494384765625,-0.5546520352363586,0.26753026247024536,0.5151354670524597
1667710014784545500,1.244545654296875,-0.6851708889007568,0.2801179587841034,0.4226231575012207
1667710014794596400,1.254596435546875,-0.7860820889472961,0.23523832857608795,0.37434810400009155
1667710014804646400,1.264646484375,-0.8113712072372437,0.15041372179985046,0.36256974935531616
1667710014814697500,1.274697509765625,-0.7539377212524414,0.06591921299695969,0.3685320019721985
1667710014824748500,1.28474853515625,-0.6557602882385254,-0.010931620374321938,0.39349833130836487
1667710014834799400,1.29479931640625,-0.5443379878997803,-0.103998564183712,0.4225747585296631
1667710014844849400,1.304849365234375,-0.4481489062309265,-0.18142756819725037,0.4622393548488617
1667710014854900500,1.314900390625,-0.37956857681274414,-0.20453843474388123,0.5125002861022949
1667710014864951300,1.324951416015625,-0.3398190438747406,-0.2001415491104126,0.5566262006759644
1667710014875002400,1.33500244140625,-0.3337169289588928,-0.17389532923698425,0.5743390917778015
1667710014885052400,1.345052490234375,-0.3372485339641571,-0.10604330897331238,0.5537781715393066
1667710014895103500,1.355103515625,-0.33814454078674316,0.005552324466407299,0.500298261642456
1667710014905154600,1.365154541015625,-0.33353912830352783,0.14871826767921448,0.4219358563423157
1667710014915205400,1.375205322265625,-0.3270780146121979,0.2910782992839813,0.33659669756889343
1667710014925255400,1.38525537109375,-0.309553861618042,0.39428403973579407,0.27399590611457825
1667710014935306200,1.39530615234375,-0.2804069221019745,0.4818248152732849,0.25858622789382935
1667710014945357300,1.405357421875,-0.24758316576480865,0.5462536215782166,0.30938735604286194
1667710014955408400,1.415408447265625,-0.19510501623153687,0.5868199467658997,0.40780916810035706
1667710014965458400,1.42545849609375,-0.11964009702205658,0.6290744543075562,0.5052284002304077
1667710014975509500,1.435509521484375,-0.03512662276625633,0.7332053184509277,0.5932652354240417
1667710014985560300,1.445560302734375,0.045849453657865524,0.8494940996170044,0.6673583388328552
1667710014995611400,1.455611328125,0.11821315437555313,0.9613109827041626,0.7266436815261841
1667710015005661400,1.465661376953125,0.16961856186389923,1.0932313203811646,0.7684502005577087
1667710015015712500,1.47571240234375,0.19440153241157532,1.2704321146011353,0.7815106511116028
1667710015025763600,1.485763671875,0.2073727250099182,1.4744908809661865,0.7753614187240601
1667710015035814400,1.495814453125,0.19485542178153992,1.6726406812667847,0.7676176428794861
1667710015045864400,1.505864501953125,0.12865589559078217,1.9360920190811157,0.7153714895248413
1667710015055915300,1.515915283203125,0.017306853085756302,2.2669870853424072,0.6020656228065491
1667710015065966300,1.52596630859375,-0.13517537713050842,2.6469593048095703,0.5349214673042297
1667710015076017400,1.536017333984375,-0.3505977392196655,3.0997612476348877,0.5610883831977844
1667710015086068500,1.546068359375,-0.6667472124099731,3.5867691040039062,0.4796616733074188
1667710015096118500,1.556118408203125,-0.8709834814071655,3.948517322540283,0.39267778396606445
1667710015106169300,1.56616943359375,-0.9770718216896057,4.467625141143799,0.39529648423194885
1667710015116220400,1.576220458984375,-1.04180109500885,4.842380046844482,0.5102381706237793
1667710015126271500,1.586271484375,-1.1102941036224365,5.180580139160156,0.5651919841766357
1667710015136321300,1.5963212890625,-1.25619637966156,5.572047233581543,0.48826298117637634
1667710015146372400,1.606372314453125,-1.4982388019561768,5.811096668243408,0.30844926834106445
1667710015156423400,1.61642333984375,-1.8219693899154663,6.035171031951904,0.05948369577527046
1667710015166473500,1.626473388671875,-2.221018075942993,6.393436431884766,-0.08812574297189713
1667710015176524300,1.636524169921875,-2.608222723007202,6.723255157470703,0.018364012241363525
1667710015186575400,1.646575439453125,-2.845180034637451,6.826728343963623,0.4158109724521637
1667710015196626400,1.65662646484375,-2.860715627670288,6.635593891143799,1.005144476890564
1667710015206677500,1.666677490234375,-2.667694568634033,6.503206729888916,1.5708614587783813
1667710015216727600,1.6767275390625,-2.515465497970581,6.546489715576172,1.9687342643737793
1667710015226778600,1.686778564453125,-2.471494436264038,6.31564474105835,2.1962625980377197
1667710015236829200,1.6968291015625,-2.582282543182373,6.238779544830322,2.2449111938476562
1667710015246880300,1.70688037109375,-2.8688433170318604,6.256908416748047,2.134629964828491
1667710015256930300,1.716930419921875,-3.3912270069122314,6.062300682067871,2.0124318599700928
1667710015266981400,1.7269814453125,-3.989905834197998,5.60781717300415,1.7061223983764648
1667710015277032400,1.737032470703125,-4.5524516105651855,4.967233180999756,1.5114861726760864
1667710015287083300,1.747083251953125,-5.027008533477783,4.2381911277771,1.4433151483535767
1667710015297133600,1.757133544921875,-5.36221981048584,3.4830169677734375,1.3913511037826538
1667710015307184400,1.767184326171875,-5.578576564788818,2.6986467838287354,1.6967028379440308
1667710015317235500,1.7772353515625,-5.656549453735352,2.0687477588653564,2.2228448390960693
1667710015327286500,1.78728662109375,-5.6094183921813965,1.8132401704788208,2.6913559436798096
1667710015337336300,1.79733642578125,-5.296351909637451,1.6482148170471191,3.210900068283081
1667710015347387400,1.807387451171875,-4.8208327293396,1.615351915359497,3.7228915691375732
1667710015357438200,1.817438232421875,-4.303645133972168,1.8397338390350342,4.120981693267822
1667710015367489300,1.8274892578125,-3.790076732635498,2.2028422355651855,4.348869800567627
1667710015377539300,1.837539306640625,-3.295598268508911,2.511547803878784,4.390446186065674
1667710015387590400,1.84759033203125,-2.8832225799560547,2.724290132522583,4.245096683502197
1667710015397641500,1.857641357421875,-2.5249593257904053,2.870603561401367,4.006192684173584
1667710015407692500,1.867692626953125,-2.153141736984253,2.7541613578796387,3.7998321056365967
1667710015417742600,1.87774267578125,-1.8285905122756958,2.34846568107605,3.7058918476104736
1667710015427793400,1.88779345703125,-1.6474257707595825,1.7291994094848633,3.6882786750793457
1667710015437844500,1.897844482421875,-1.6128629446029663,1.016465187072754,3.6458680629730225
1667710015447895300,1.907895263671875,-1.6031287908554077,0.22575457394123077,3.484185218811035
1667710015457945300,1.9179453125,-1.6324522495269775,-0.5835099220275879,3.221259117126465
1667710015467996400,1.927996337890625,-1.6815862655639648,-1.4062578678131104,2.9447455406188965
1667710015478047500,1.938047607421875,-1.6910579204559326,-2.169025421142578,2.667431354522705
1667710015488098300,1.948098388671875,-1.6270798444747925,-2.7005093097686768,2.4466898441314697
1667710015498148400,1.9581484375,-1.556469202041626,-3.0951552391052246,2.287554979324341
1667710015508199400,1.968199462890625,-1.5147584676742554,-3.264979124069214,2.1254000663757324
1667710015518250500,1.97825048828125,-1.3992228507995605,-3.2844767570495605,2.0576820373535156
1667710015528301600,1.988301513671875,-1.2083396911621094,-3.178792953491211,2.0622525215148926
1667710015538351400,1.998351318359375,-0.9613502621650696,-2.975600481033325,2.088444471359253
1667710015548402400,2.00840234375,-0.5577852129936218,-2.7120361328125,2.084913730621338
1667710015558453200,2.018453369140625,0.004208405502140522,-2.552314043045044,2.0662386417388916
1667710015568504300,2.02850439453125,0.5887930393218994,-2.557722568511963,2.026392698287964
1667710015578554400,2.038554443359375,0.7725583910942078,-3.309396982192993,1.3735824823379517
1667710015588605400,2.04860546875,0.5925763845443726,-3.9863691329956055,0.6023645401000977
1667710015598656500,2.058656494140625,0.40812385082244873,-4.315000534057617,0.3879616856575012
1667710015608707300,2.068707275390625,0.49284085631370544,-4.080625057220459,0.4013161063194275
1667710015618757400,2.07875732421875,0.908114492893219,-3.444725751876831,0.3091908395290375
1667710015628808400,2.088808349609375,0.9517841935157776,-2.921759605407715,-0.039750631898641586
1667710015638859500,2.098859619140625,1.3339602947235107,-1.392882227897644,-0.15827684104442596
1667710015648910300,2.108910400390625,1.5906075239181519,-0.08474397659301758,0.15685340762138367
1667710015658960400,2.11896044921875,1.9020293951034546,1.9636729955673218,0.5543079972267151
1667710015669011500,2.129011474609375,2.448220729827881,2.8069026470184326,1.252027988433838
1667710015679062300,2.139062255859375,2.507417917251587,3.25321364402771,1.7502602338790894
1667710015689113300,2.14911328125,1.906180500984192,3.9966952800750732,1.8278521299362183
1667710015699163400,2.159163330078125,0.8875212669372559,3.777817487716675,1.8092349767684937
1667710015709214500,2.16921435546875,0.22523492574691772,3.4485414028167725,1.9335111379623413
1667710015719265500,2.179265625,0.20422698557376862,3.707487106323242,1.986477255821228
1667710015729316400,2.18931640625,0.44480496644973755,4.059783458709717,1.9999797344207764
1667710015739367400,2.199367431640625,0.4965353012084961,4.037268161773682,1.954148769378662
1667710015749417200,2.209417236328125,0.3241906762123108,3.376678705215454,1.839902400970459
1667710015759468300,2.21946826171875,0.08091893047094345,2.499072790145874,1.4776113033294678
1667710015769519400,2.229519287109375,-0.049284081906080246,1.9928869009017944,0.8890953063964844
1667710015779570400,2.2395703125,-0.2873387634754181,1.7156411409378052,0.632003128528595
1667710015789620500,2.249620361328125,-0.4335170090198517,1.9263638257980347,1.2112747430801392
1667710015799671300,2.25967138671875,-0.6253806948661804,2.5156586170196533,1.5453236103057861
1667710015809722400,2.269722412109375,-0.8152744770050049,2.773365020751953,1.494452714920044
1667710015819773400,2.2797734375,-0.8687024712562561,2.7897145748138428,1.6447727680206299
1667710015829823500,2.289823486328125,-0.7982008457183838,2.5287013053894043,2.142533779144287
1667710015839874600,2.29987451171875,-0.6175616383552551,2.2150115966796875,2.3662400245666504
1667710015849925400,2.30992529296875,-0.26995521783828735,2.0871059894561768,2.269293785095215
1667710015859976200,2.31997607421875,-0.09021808207035065,2.0774900913238525,2.035423755645752
1667710015870026200,2.330026123046875,-0.24432827532291412,1.932816982269287,2.011502504348755
1667710015880077300,2.340077392578125,-0.3406299650669098,1.8067234754562378,2.086033344268799
1667710015890128400,2.35012841796875,-0.3701796233654022,1.5660549402236938,2.192920446395874
1667710015900179500,2.360179443359375,-0.5952057838439941,1.1085810661315918,2.1047136783599854
1667710015910229500,2.3702294921875,-1.008622407913208,0.8698768615722656,1.9540916681289673
1667710015920280600,2.380280517578125,-1.3714094161987305,0.5525606870651245,1.8673491477966309
1667710015930331400,2.390331298828125,-1.5480766296386719,0.05884764716029167,1.6206631660461426
1667710015940382500,2.400382568359375,-1.5528157949447632,-0.1339157223701477,1.2046315670013428
1667710015950432300,2.410432373046875,-1.2798329591751099,-0.028499020263552666,0.9540201425552368
1667710015960483300,2.4204833984375,-0.8780730962753296,0.042579811066389084,0.8552905321121216
1667710015970534400,2.430534423828125,-0.4923509657382965,-0.11031518876552582,0.842929482460022
1667710015980585200,2.440585205078125,-0.08606743067502975,-0.23227395117282867,0.8210769891738892
1667710015990635500,2.450635498046875,0.2997678816318512,-0.2891574800014496,0.836704671382904
1667710016000686300,2.460686279296875,0.605705201625824,-0.24685797095298767,0.820168673992157
1667710016010737400,2.4707373046875,0.8213674426078796,-0.20738060772418976,0.7790215015411377
1667710016020788500,2.48078857421875,0.7848479151725769,-0.05738954246044159,0.7098028063774109
1667710016030838500,2.490838623046875,0.5079721212387085,-0.05486806109547615,0.6543472409248352
1667710016040889600,2.5008896484375,0.24872641265392303,-0.2755252718925476,0.7489770650863647
1667710016050940400,2.5109404296875,0.0038556656800210476,-0.6748465299606323,0.9739276170730591
1667710016060991200,2.5209912109375,-0.2553963363170624,-1.015821099281311,1.202523946762085
1667710016071041300,2.531041259765625,-0.5352543592453003,-1.2080885171890259,1.2920167446136475
1667710016081092400,2.54109228515625,-0.8702247738838196,-1.2920221090316772,1.247064232826233
1667710016091143400,2.551143310546875,-1.2299400568008423,-1.1636431217193604,1.0165703296661377
1667710016101194500,2.561194580078125,-1.5275421142578125,-0.7213500738143921,0.5652303099632263
1667710016111244500,2.57124462890625,-1.439100742340088,-0.28210240602493286,0.13931655883789062
1667710016121295400,2.58129541015625,-0.9365063905715942,-0.1255948394536972,-0.13410069048404694
1667710016131346400,2.591346435546875,-0.27905187010765076,-0.06244063749909401,-0.10635854303836823
1667710016141397500,2.6013974609375,0.09682296216487885,0.05927061662077904,-0.1856006383895874
1667710016151448600,2.611448486328125,0.13130131363868713,-0.14548784494400024,0.05379677191376686
1667710016161498400,2.621498291015625,-0.03776061162352562,-0.7734063267707825,0.13445143401622772
1667710016171549400,2.631549560546875,-0.2765375077724457,-1.3560559749603271,0.5685320496559143
1667710016181600300,2.641600341796875,-0.3887648582458496,-2.2156972885131836,0.7121260762214661
1667710016191650300,2.651650390625,-0.40859872102737427,-2.7834227085113525,0.6029455661773682
1667710016201701400,2.661701416015625,-0.3180844783782959,-3.055708408355713,0.10099539905786514
1667710016211752400,2.67175244140625,-0.06499204784631729,-3.2434988021850586,-0.4012141823768616
1667710016221803500,2.681803466796875,0.3130092918872833,-3.4750781059265137,-0.6630600094795227
1667710016231854300,2.691854248046875,0.6776626706123352,-3.567269802093506,-0.7776433229446411
1667710016241904400,2.701904296875,0.8808056712150574,-3.55644154548645,-0.8059474229812622
1667710016251955500,2.71195556640625,0.8892252445220947,-3.6520636081695557,-0.8235386610031128
1667710016262006300,2.72200634765625,0.8630914688110352,-3.6926493644714355,-0.9501224756240845
1667710016272056300,2.732056396484375,0.8127137422561646,-3.5163233280181885,-1.2293599843978882
1667710016282107400,2.742107421875,0.845885157585144,-3.3057668209075928,-1.4830511808395386
1667710016292158500,2.752158447265625,0.9058928489685059,-2.7986950874328613,-1.7056845426559448
1667710016302209300,2.762209228515625,0.8369812369346619,-2.2123022079467773,-1.8072788715362549
1667710016312260400,2.77226025390625,0.7733747959136963,-1.918108344078064,-1.7335127592086792
1667710016322310100,2.78231005859375,0.7994561195373535,-1.440549612045288,-1.5864245891571045
1667710016332361200,2.792361328125,0.886391282081604,-0.8715519309043884,-1.5535907745361328
1667710016342412300,2.802412353515625,1.173824429512024,-0.30813679099082947,-1.6236850023269653
1667710016352463400,2.81246337890625,1.547568678855896,-0.2342974692583084,-1.6320407390594482
1667710016362513400,2.822513427734375,1.9181805849075317,-0.28606635332107544,-1.6158533096313477
1667710016372564200,2.832564208984375,2.1754910945892334,-0.5490760803222656,-1.548673152923584
1667710016382615300,2.842615234375,2.054532766342163,-0.14665408432483673,-1.5186008214950562
1667710016392665300,2.852665283203125,1.9597800970077515,0.352612167596817,-1.3000538349151611
1667710016402716400,2.86271630859375,1.940589427947998,1.3382165431976318,-0.8612949252128601
1667710016412767500,2.872767578125,1.5064990520477295,3.4125592708587646,-0.573270857334137
1667710016422818300,2.882818359375,0.8551750183105469,6.1483588218688965,-0.4374048411846161
1667710016432869000,2.892869140625,0.28323641419410706,7.924554824829102,-0.3574543595314026
1667710016442919200,2.902919189453125,-0.2077920287847519,8.279831886291504,-0.36439576745033264
1667710016452970200,2.91297021484375,-0.611810564994812,8.433562278747559,-0.17476806044578552
1667710016463021300,2.923021240234375,-1.7245144844055176,8.889348983764648,-0.34089940786361694
1667710016473072400,2.933072265625,-2.5774335861206055,9.30848503112793,-0.35619500279426575
1667710016483122400,2.943122314453125,-2.9528398513793945,7.831958770751953,-0.2607917785644531
1667710016493173200,2.95317333984375,-3.0117907524108887,4.798456192016602,-0.09380493313074112
1667710016503224300,2.963224365234375,-2.9696900844573975,1.8753082752227783,0.005722217261791229
1667710016513275400,2.973275390625,-2.848371744155884,0.49045222997665405,-0.36751314997673035
1667710016523325200,2.9833251953125,-2.461799383163452,0.4696122109889984,-1.413966178894043
1667710016533376300,2.993376220703125,-1.8978371620178223,0.3396962881088257,-2.311711072921753
1667710016543427300,3.00342724609375,-1.206763505935669,0.3611035645008087,-3.079141616821289
1667710016553478100,3.01347802734375,-0.41791999340057373,-0.1381046324968338,-3.6640710830688477
1667710016563528200,3.023528076171875,0.3926188051700592,-1.0640307664871216,-3.7786900997161865
1667710016573579300,3.033579345703125,1.2477071285247803,-1.9612367153167725,-3.1724133491516113
1667710016583630300,3.04363037109375,1.8285844326019287,-2.0692241191864014,-2.440293788909912
1667710016593681400,3.053681396484375,1.9226597547531128,-1.481510043144226,-1.5452134609222412
1667710016603731500,3.0637314453125,1.6145795583724976,-0.4310227334499359,-0.7067627906799316
1667710016613782500,3.073782470703125,1.1835304498672485,0.38760554790496826,-0.128080815076828
1667710016623833300,3.083833251953125,0.7603349089622498,0.9725075960159302,0.27755892276763916
1667710016633884400,3.093884521484375,0.39037787914276123,1.4240955114364624,0.44150495529174805
1667710016643934200,3.103934326171875,0.12533719837665558,1.759635329246521,0.4065549969673157
1667710016653985300,3.1139853515625,-0.0939064770936966,2.2731375694274902,0.31720060110092163
1667710016664036400,3.124036376953125,-0.2388664186000824,2.9102771282196045,0.3390675485134125
1667710016674087200,3.134087158203125,-0.25228235125541687,3.43432354927063,0.46635758876800537
1667710016684137500,3.144137451171875,-0.2619529366493225,3.873398542404175,0.6052506566047668
1667710016694188300,3.154188232421875,-0.2915070950984955,4.232558250427246,0.7187167406082153
1667710016704239400,3.1642392578125,-0.29248490929603577,4.4958415031433105,0.6844801902770996
1667710016714290400,3.17429052734375,-0.4012475907802582,4.166846752166748,0.6636922955513
1667710016724340200,3.18434033203125,-0.5242522358894348,3.370023488998413,0.7437117099761963
1667710016734391300,3.194391357421875,-0.5968995690345764,2.5327932834625244,0.9088748097419739
1667710016744442000,3.204442138671875,-0.683027982711792,2.004634141921997,1.2091354131698608
1667710016754493200,3.2144931640625,-0.8319404721260071,1.7692586183547974,1.6336838006973267
1667710016764543200,3.224543212890625,-1.0049378871917725,1.7745550870895386,2.1649975776672363
1667710016774594300,3.23459423828125,-0.9926950931549072,1.6294461488723755,2.5842199325561523
1667710016784645400,3.244645263671875,-0.8494294285774231,1.053444743156433,2.7194316387176514
1667710016794696400,3.254696533203125,-0.6084511876106262,0.04459298774600029,2.4598684310913086
1667710016804746500,3.26474658203125,-0.23103420436382294,-1.1031438112258911,1.489735722541809
1667710016814797300,3.27479736328125,0.4929719567298889,-1.6808120012283325,-0.06198515743017197
1667710016824848400,3.284848388671875,1.3702648878097534,-0.9516014456748962,-2.3880903720855713
1667710016834899500,3.2948994140625,2.072237730026245,-0.36373820900917053,-3.887298583984375
1667710016844949200,3.30494921875,2.373924732208252,-1.1100152730941772,-3.5584278106689453
1667710016855000300,3.315000244140625,2.4817352294921875,-1.7167667150497437,-2.4316246509552
1667710016865051400,3.325051513671875,2.338829517364502,-1.8819239139556885,-1.2758283615112305
1667710016875101400,3.335101318359375,1.9171690940856934,-1.6459909677505493,-0.47984394431114197
1667710016885152300,3.34515234375,1.1792453527450562,-0.47786569595336914,-0.04198422655463219
1667710016895203300,3.355203369140625,0.6787942051887512,1.0431153774261475,0.15901997685432434
1667710016905254400,3.36525439453125,0.3883272409439087,2.221973180770874,0.2980395257472992
1667710016915305500,3.375305419921875,-0.03462960198521614,2.71799373626709,0.51007080078125
1667710016925355300,3.385355224609375,-0.4696439504623413,2.429384708404541,0.4576251804828644
1667710016935406300,3.39540625,-0.4523563086986542,1.6794521808624268,0.5441560745239258
1667710016945457200,3.40545703125,-0.2989409565925598,0.3533399999141693,1.199440598487854
1667710016955508200,3.41550830078125,0.12170425802469254,-1.2989956140518188,1.6982812881469727
1667710016965558300,3.425558349609375,0.03717295825481415,-1.3978123664855957,1.7295725345611572
1667710016975609300,3.435609375,-0.12004169076681137,1.437459945678711,1.2766412496566772
1667710016985660400,3.445660400390625,0.17454537749290466,3.3730955123901367,0.274335116147995
1667710016995710500,3.45571044921875,0.5120245814323425,2.809154748916626,0.7998329997062683
1667710017005761300,3.46576123046875,1.0119071006774902,1.2738728523254395,1.8278340101242065
1667710017015812400,3.475812255859375,1.0621098279953003,-1.0052225589752197,2.15927791595459
1667710017025863400,3.485863525390625,0.817613959312439,-2.6820995807647705,1.779992938041687
1667710017035913200,3.495913330078125,0.3573339283466339,-3.754585027694702,1.5207982063293457
1667710017045964300,3.50596435546875,-0.10137761384248734,-4.429446697235107,1.1958932876586914
1667710017056015400,3.516015380859375,-0.621090829372406,-4.289906978607178,0.871275007724762
1667710017066066200,3.526066162109375,-1.2516088485717773,-3.608269453048706,0.7034903168678284
1667710017076116200,3.5361162109375,-1.986115574836731,-2.8242087364196777,0.7154964208602905
1667710017086167300,3.546167236328125,-2.758192300796509,-1.8605490922927856,1.027725338935852
1667710017096218400,3.55621826171875,-3.2857987880706787,-0.8111996650695801,1.7162113189697266
1667710017106269400,3.56626953125,-2.931779623031616,0.15382739901542664,2.5722153186798096
1667710017116320300,3.5763203125,-1.681492805480957,0.7761314511299133,3.0423290729522705
1667710017126370300,3.586370361328125,-0.3881084620952606,1.1292072534561157,2.974701166152954
1667710017136421000,3.596421142578125,0.5806539058685303,1.2599186897277832,2.4693443775177
1667710017146472200,3.60647216796875,0.6825567483901978,0.8790217638015747,1.9122917652130127
1667710017156522200,3.616522216796875,-0.14800749719142914,-0.03184376657009125,1.8045636415481567
1667710017166573300,3.6265732421875,0.26010245084762573,-1.1016929149627686,1.7869536876678467
1667710017176624400,3.636624267578125,0.637704610824585,-2.1931416988372803,1.8534443378448486
1667710017186675200,3.64667529296875,0.5129748582839966,-3.088118076324463,1.927640438079834
1667710017196725200,3.656725341796875,-0.13402602076530457,-3.4625906944274902,1.9721696376800537
1667710017206776300,3.6667763671875,-1.0818392038345337,-3.256640911102295,2.020477294921875
1667710017216827400,3.676827392578125,-2.0950300693511963,-2.545257568359375,2.0739586353302
1667710017226878500,3.68687841796875,-2.883265972137451,-1.8630036115646362,1.9698237180709839
1667710017236928300,3.69692822265625,-3.340955972671509,-1.5193583965301514,1.726962924003601
1667710017246979300,3.706979248046875,-3.4703452587127686,-1.5577818155288696,1.4250924587249756
1667710017257030100,3.717030029296875,-3.334259033203125,-1.8134535551071167,1.1849240064620972
1667710017267081200,3.727081298828125,-2.814321994781494,-2.188685655593872,0.9461029171943665
1667710017277131000,3.737131103515625,-2.1097946166992188,-2.314404010772705,0.7684013247489929
1667710017287182000,3.74718212890625,-1.4860471487045288,-2.066225051879883,0.8221523761749268
1667710017297233200,3.757233154296875,-1.3073450326919556,-1.3529399633407593,1.0980401039123535
1667710017307284200,3.7672841796875,-1.512252688407898,-0.46335679292678833,1.3701088428497314
1667710017317334300,3.777334228515625,-1.6950559616088867,0.16878123581409454,1.4802542924880981
1667710017327385000,3.787385009765625,-1.7461743354797363,0.36531317234039307,1.3700480461120605
1667710017337436200,3.797436279296875,-1.6203418970108032,0.10832560062408447,1.2467724084854126
1667710017347487200,3.8074873046875,-1.3959569931030273,-0.40642258524894714,1.2372854948043823
1667710017357537000,3.817537109375,-1.094562292098999,-0.8367329239845276,1.5304638147354126
1667710017367588000,3.827588134765625,-0.7928091883659363,-0.9927678108215332,2.0207622051239014
1667710017377639200,3.83763916015625,-0.5117178559303284,-0.8144651651382446,2.3547937870025635
1667710017387690000,3.84768994140625,-0.1789693981409073,-0.3749607801437378,2.393296718597412
1667710017397740000,3.857739990234375,0.1492455005645752,0.11216998100280762,2.1907904148101807
1667710017407791000,3.867791015625,0.409094899892807,0.46098005771636963,1.8007007837295532
1667710017417842200,3.87784228515625,0.575838029384613,0.6687212586402893,1.4239510297775269
1667710017427893200,3.887893310546875,0.6156898736953735,0.5968344211578369,1.139190673828125
1667710017437943300,3.897943359375,0.485575795173645,0.2059343159198761,0.8018321394920349
1667710017447994000,3.907994140625,0.28847065567970276,-0.3104730546474457,0.32508108019828796
1667710017458045200,3.918045166015625,0.13250184059143066,-0.6806939840316772,-0.31798815727233887
1667710017468096300,3.92809619140625,0.11567401140928268,-0.6988939642906189,-1.040521502494812
1667710017478146000,3.93814599609375,0.35736146569252014,-0.6230756044387817,-1.71902334690094
1667710017488197000,3.948197021484375,0.8007720708847046,-0.6873979568481445,-2.281736135482788
1667710017498248200,3.958248291015625,1.2107545137405396,-0.8933559060096741,-2.70752215385437
1667710017508299000,3.968299072265625,1.5161738395690918,-0.7899459600448608,-2.974578857421875
1667710017518349000,3.97834912109375,1.6334400177001953,-0.13329540193080902,-2.981459856033325
1667710017528400100,3.988400146484375,1.493696928024292,0.7276027202606201,-2.799630880355835
1667710017538451200,3.998451171875,1.0293718576431274,1.2405043840408325,-2.832314968109131
1667710017548502300,4.008502197265625,0.6768872737884521,1.5772289037704468,-3.163283109664917
1667710017558552300,4.01855224609375,0.5858764052391052,1.8120925426483154,-3.4973294734954834
1667710017568603100,4.02860302734375,0.6383692622184753,1.820122241973877,-3.498131036758423
1667710017578654000,4.038654052734375,0.6571056842803955,1.3627840280532837,-3.3656527996063232
1667710017588705000,4.048705078125,0.5423078536987305,0.8228368759155273,-3.2380754947662354
1667710017598755000,4.058755126953125,0.3420432209968567,0.664599597454071,-2.969383478164673
1667710017608806100,4.06880615234375,0.14726144075393677,0.8144565224647522,-2.7104532718658447
1667710017618857200,4.078857177734375,-0.39297330379486084,1.6409224271774292,-2.217452049255371
1667710017628908000,4.088907958984375,-0.6940609812736511,1.8440587520599365,-2.121584415435791
1667710017638958300,4.098958251953125,-0.5864090919494629,1.4913952350616455,-2.443730115890503
1667710017649009200,4.109009033203125,-0.471382737159729,1.2241408824920654,-2.6149508953094482
1667710017659060200,4.119060302734375,-0.42382827401161194,0.827786922454834,-2.672267198562622
1667710017669111300,4.129111328125,-0.2981001138687134,0.27388623356819153,-2.655430793762207
1667710017679161000,4.1391611328125,-0.1484866440296173,-0.3023131489753723,-2.4972352981567383
1667710017689212200,4.149212158203125,-0.08986128121614456,-0.6209080219268799,-2.2081665992736816
1667710017699263000,4.159262939453125,-0.15000903606414795,-0.476422518491745,-1.8529869318008423
1667710017709314000,4.16931396484375,-0.2922711968421936,0.017543599009513855,-1.4951614141464233
1667710017719364000,4.179364013671875,-0.5680639147758484,0.5965901613235474,-1.1493831872940063
1667710017729415200,4.189415283203125,-0.9979304671287537,0.955197811126709,-0.8808321952819824
1667710017739466200,4.19946630859375,-1.2950422763824463,1.0048044919967651,-0.8493802547454834
1667710017749517300,4.209517333984375,-1.4390977621078491,0.49850597977638245,-1.5596944093704224
1667710017759567400,4.2195673828125,-1.5321587324142456,0.15156322717666626,-2.464946746826172
1667710017769618000,4.229617919921875,-1.551587462425232,0.6459910273551941,-2.9713547229766846
1667710017779669000,4.2396689453125,-1.5967514514923096,1.6999024152755737,-3.0303361415863037
1667710017789720000,4.249719970703125,-1.8845429420471191,3.0384559631347656,-2.7192060947418213
1667710017799770000,4.25977001953125,-2.1142632961273193,3.737152576446533,-2.336333990097046
1667710017809821200,4.2698212890625,-1.8648277521133423,3.5247855186462402,-2.0232279300689697
1667710017819872300,4.279872314453125,-1.206349492073059,2.7177155017852783,-1.7142895460128784
1667710017829923000,4.289923095703125,-0.379056841135025,1.6926285028457642,-1.3266124725341797
1667710017839973000,4.29997314453125,0.11318639665842056,1.3343156576156616,-0.801560640335083
1667710017850024200,4.310024169921875,0.16155539453029633,1.7965909242630005,-0.23929911851882935
1667710017860075300,4.3200751953125,0.29980939626693726,2.4269351959228516,0.13454318046569824
1667710017870126300,4.330126220703125,0.543402910232544,3.007838487625122,0.3885882496833801
1667710017880176000,4.340176025390625,0.801478385925293,3.6885335445404053,0.7618372440338135
1667710017890227200,4.350227294921875,0.923187255859375,4.260177135467529,1.2559947967529297
1667710017900278000,4.360278076171875,0.9437982439994812,4.420149803161621,1.7024180889129639
1667710017910329000,4.3703291015625,1.0807915925979614,4.020875453948975,1.7034581899642944
1667710017920379100,4.380379150390625,1.3537112474441528,2.251708745956421,0.6369823217391968
1667710017930430200,4.39043017578125,1.478760838508606,-1.087359070777893,-1.2390799522399902
1667710017940481300,4.400481201171875,0.9391186237335205,-1.8457239866256714,-1.9348437786102295
1667710017950532000,4.410531982421875,0.4480355978012085,-0.9418164491653442,-1.664500117301941
1667710017960582100,4.42058203125,0.3962344527244568,-0.4490935802459717,-1.2624539136886597
1667710017970633000,4.430633056640625,0.44479578733444214,-0.29642099142074585,-1.0242416858673096
1667710017980684000,4.44068408203125,0.3957374393939972,-0.06103082001209259,-0.9253219366073608
1667710017990735000,4.450735107421875,0.31355687975883484,0.3065047860145569,-0.9168240427970886
1667710018000785200,4.46078515625,0.2030700445175171,0.6881315112113953,-1.006480097770691
1667710018010836200,4.470836181640625,-0.05434451624751091,0.9513490796089172,-1.4773789644241333
1667710018020887000,4.480886962890625,-0.3115760385990143,0.4779759347438812,-2.0615882873535156
1667710018030938000,4.490938232421875,-0.32148826122283936,-2.385525941848755,-0.9907122254371643
1667710018040988200,4.50098828125,-0.2210090607404709,-4.3282341957092285,0.6145908832550049
1667710018051039200,4.511039306640625,-0.2626640498638153,-3.697042465209961,1.5691231489181519
1667710018061090300,4.52109033203125,-0.28187263011932373,-1.936280369758606,1.804925799369812
1667710018071140000,4.53114013671875,-0.3726828396320343,0.25853919982910156,1.5426576137542725
1667710018081191200,4.541191162109375,-0.5084294676780701,0.5553114414215088,1.724771499633789
1667710018091242000,4.551241943359375,-0.5443952083587646,-1.9418470859527588,2.305039405822754
1667710018101293000,4.56129296875,-0.31838497519493103,-4.413979530334473,2.9770898818969727
1667710018111343000,4.571343017578125,-0.06857884675264359,-5.318715572357178,3.7580010890960693
1667710018121394200,4.581394287109375,0.09716697782278061,-4.878650665283203,4.472718238830566
1667710018131445200,4.5914453125,0.18490999937057495,-3.7689402103424072,4.894482135772705
1667710018141496000,4.60149609375,0.2205076813697815,-2.4135618209838867,4.7774882316589355
1667710018151546000,4.611546142578125,0.41256871819496155,-1.2366845607757568,4.158807754516602
1667710018161597200,4.62159716796875,0.7160825133323669,-0.5734872221946716,3.518404722213745
1667710018171648300,4.631648193359375,0.8824860453605652,-0.334143728017807,3.025611162185669
1667710018181699000,4.641698974609375,0.7958904504776001,-0.2819489538669586,2.6694297790527344
1667710018191749000,4.6517490234375,0.6047717332839966,-0.2593207359313965,2.4245386123657227
1667710018201800200,4.66180029296875,0.5139036178588867,-0.07870995253324509,2.323854446411133
1667710018211851000,4.67185107421875,0.4854528605937958,0.17910794913768768,2.4870736598968506
1667710018221902000,4.681902099609375,0.5590866208076477,0.2868863344192505,3.046786069869995
1667710018231952100,4.6919521484375,0.7442139387130737,0.23484379053115845,3.8128128051757812
1667710018242003200,4.702003173828125,0.8983473181724548,0.149453267455101,4.267841815948486
1667710018252054300,4.71205419921875,0.7796137928962708,0.07741347700357437,4.122537136077881
1667710018262105300,4.722105224609375,0.379955917596817,-0.0533466637134552,3.5638628005981445
1667710018272155400,4.7321552734375,-0.051472220569849014,-0.29380035400390625,2.8668408393859863
1667710018282206200,4.742206298828125,-0.25887203216552734,-0.3601823151111603,2.3964691162109375
1667710018292257300,4.75225732421875,-0.36699220538139343,-0.3114490509033203,2.2281301021575928
1667710018302308400,4.762308349609375,-0.4155253767967224,-0.38886234164237976,2.140770673751831
1667710018312358400,4.7723583984375,-0.3603932857513428,-0.6168651580810547,1.9353408813476562
1667710018322409500,4.782409423828125,-0.2193717360496521,-0.7723173499107361,1.7430047988891602
1667710018332460300,4.792460205078125,-0.07685687392950058,-0.7841616272926331,1.602143406867981
1667710018342511400,4.802511474609375,0.0324789360165596,-0.7751031517982483,1.3592699766159058
1667710018352561200,4.81256103515625,0.17728742957115173,-0.7725621461868286,0.8905230164527893
1667710018362612200,4.8226123046875,0.411027729511261,-0.747120201587677,0.23009422421455383
1667710018372663300,4.832663330078125,0.6827727556228638,-0.586753785610199,-0.3910772502422333
1667710018382714400,4.84271435546875,1.0215675830841064,-0.14547230303287506,-0.9232292771339417
1667710018392764400,4.852764404296875,1.327528476715088,0.39216360449790955,-1.4894689321517944
1667710018402815200,4.862815185546875,1.4054080247879028,0.9371353387832642,-2.1478588581085205
1667710018412866300,4.8728662109375,1.11455500125885,1.4352827072143555,-2.742678165435791
1667710018422917400,4.88291748046875,0.6452077031135559,1.934795618057251,-3.054868698120117
1667710018432967400,4.892967529296875,0.28621530532836914,2.365607261657715,-3.2834949493408203
1667710018443018200,4.903018310546875,-0.00500375684350729,2.829814910888672,-3.412208080291748
1667710018453069300,4.9130693359375,-0.2337455153465271,3.0631215572357178,-3.2832322120666504
1667710018463120100,4.9231201171875,-0.233865886926651,2.595747470855713,-3.1795847415924072
1667710018473170200,4.933170166015625,-0.17426981031894684,2.1062726974487305,-3.4706413745880127
1667710018483221200,4.94322119140625,-0.17124180495738983,1.705843448638916,-3.697190999984741
1667710018493272300,4.953272216796875,-0.15934154391288757,1.3847407102584839,-3.824524402618408
1667710018503323400,4.963323486328125,-0.24029257893562317,0.8543288707733154,-4.0523762702941895
1667710018513373400,4.97337353515625,-0.3140672445297241,-0.7939815521240234,-4.277496814727783
1667710018523424500,4.983424560546875,-0.21208174526691437,-3.587501049041748,-4.455962657928467
1667710018533475300,4.993475341796875,-0.07285740226507187,-6.2005295753479,-4.427547931671143
1667710018543526400,5.0035263671875,0.19664518535137177,-7.083259105682373,-4.220947742462158
1667710018553576200,5.013576171875,0.42076146602630615,-5.790679931640625,-3.7629709243774414
1667710018563627300,5.023627197265625,0.6593218445777893,-3.3927104473114014,-3.46191143989563
1667710018573678300,5.03367822265625,0.9017690420150757,-1.3257869482040405,-3.3589136600494385
1667710018583729200,5.043729248046875,1.215114951133728,-0.03129100799560547,-3.1315317153930664
1667710018593779200,5.053779296875,1.472664475440979,0.57813960313797,-2.6203103065490723
1667710018603830300,5.063830322265625,1.336762547492981,1.1461471319198608,-2.0364267826080322
1667710018613881300,5.07388134765625,1.1163350343704224,1.8247857093811035,-1.4547336101531982
1667710018623932400,5.083932373046875,0.8897876143455505,2.1999075412750244,-0.9834578633308411
1667710018633982500,5.093982421875,0.6726985573768616,2.3221945762634277,-0.6491765975952148
1667710018644033500,5.104033447265625,0.4531211853027344,2.3874940872192383,-0.31983813643455505
1667710018654084000,5.114083984375,0.3022869825363159,2.521329402923584,0.07106441259384155
1667710018664135200,5.12413525390625,0.2832701504230499,2.5030500888824463,0.4210602045059204
1667710018674185200,5.134185302734375,0.28822457790374756,2.1128063201904297,0.605291485786438
1667710018684236300,5.144236328125,-0.06785842776298523,1.5671595335006714,0.8770601153373718
1667710018694287400,5.154287353515625,-0.2244476079940796,0.8545485734939575,1.4025009870529175
1667710018704338400,5.16433837890625,-0.1281098872423172,-0.09659193456172943,2.0627458095550537
1667710018714388500,5.174388427734375,-0.1236560270190239,-0.9275619983673096,2.869553565979004
1667710018724439300,5.184439208984375,-0.39392825961112976,-1.3930399417877197,3.518763303756714
1667710018734490400,5.194490478515625,-0.7600993514060974,-1.5159554481506348,3.591689348220825
1667710018744540200,5.2045400390625,-1.0406830310821533,-1.54036545753479,3.287848472595215
1667710018754591200,5.21459130859375,-1.2196381092071533,-1.646854043006897,2.9403717517852783
1667710018764642300,5.224642333984375,-1.200916051864624,-1.6132346391677856,2.5677225589752197
1667710018774693400,5.234693359375,-0.8538353443145752,-1.34002685546875,1.78134286403656
1667710018784743400,5.244743408203125,0.023193398490548134,-1.0491323471069336,-0.13649794459342957
1667710018794794200,5.254794189453125,0.9409992694854736,-1.7048919200897217,-2.5602521896362305
1667710018804845300,5.26484521484375,1.4355424642562866,-1.0967082977294922,-2.688384532928467
1667710018814896400,5.274896484375,1.64346182346344,0.8166804909706116,-0.8402791023254395
1667710018824946400,5.284946533203125,1.524898886680603,-0.7957714200019836,0.9831781983375549
1667710018834997500,5.29499755859375,0.6746967434883118,-4.587944507598877,1.854896068572998
1667710018845048300,5.30504833984375,-0.9963984489440918,-6.471360683441162,1.9066100120544434
1667710018855099100,5.31509912109375,-1.8479775190353394,-4.711628437042236,0.5669847726821899
1667710018865149200,5.325149169921875,-1.6376482248306274,-1.6512506008148193,-1.3955894708633423
1667710018875200300,5.3352001953125,-1.0612176656723022,-0.2152213156223297,-2.276505947113037
1667710018885251300,5.345251220703125,-0.777287483215332,-0.056147508323192596,-1.986978530883789
1667710018895302400,5.355302490234375,-0.8291518092155457,-0.09847673773765564,-1.1308399438858032
1667710018905352400,5.3653525390625,-0.9850375652313232,0.37641841173171997,0.3264607787132263
1667710018915403300,5.3754033203125,-0.9307137727737427,1.6135649681091309,2.2798306941986084
1667710018925454300,5.385454345703125,-0.6984208822250366,2.9584245681762695,4.010480880737305
1667710018935505400,5.39550537109375,-0.655282199382782,3.4641268253326416,5.026993274688721
1667710018945555200,5.40555517578125,-0.9742974638938904,2.6727657318115234,5.707308292388916
1667710018955606300,5.415606201171875,-1.3266119956970215,1.377110481262207,6.042250633239746
1667710018965657300,5.4256572265625,-1.2551289796829224,0.6113418340682983,5.8917555809021
1667710018975708200,5.435708251953125,-0.7648116946220398,0.5757828950881958,4.805764198303223
1667710018985758200,5.44575830078125,-0.27678579092025757,0.6635153889656067,3.529372215270996
1667710018995809300,5.455809326171875,0.08620337396860123,0.3197924494743347,3.3101398944854736
1667710019005860400,5.4658603515625,0.0461968369781971,-0.6571149230003357,3.8233959674835205
1667710019015911400,5.475911376953125,-0.31664109230041504,-1.5417945384979248,4.165206432342529
1667710019025961500,5.48596142578125,-0.9370865225791931,-1.3799145221710205,3.6488046646118164
1667710019036012300,5.49601220703125,-1.3768811225891113,-0.5754871964454651,2.6920220851898193
1667710019046063400,5.5060634765625,-1.2695131301879883,-0.5203294157981873,2.0586884021759033
1667710019056114200,5.5161142578125,-1.0525422096252441,-0.9580103158950806,1.8132410049438477
1667710019066164200,5.526164306640625,-1.0040985345840454,-1.5190387964248657,1.616842269897461
1667710019076215300,5.53621533203125,-1.0242109298706055,-2.113656520843506,1.2746754884719849
1667710019086266400,5.546266357421875,-0.9280763268470764,-2.505586862564087,0.6599125266075134
1667710019096317200,5.556317138671875,-0.630402147769928,-2.429495096206665,-0.2768992483615875
1667710019106367200,5.5663671875,-0.11888054758310318,-1.6880974769592285,-1.133960485458374
1667710019116418300,5.576418212890625,0.45814570784568787,-0.4863232970237732,-1.5439263582229614
1667710019126469400,5.586469482421875,1.0004768371582031,0.5792718529701233,-1.8039089441299438
1667710019136520400,5.5965205078125,1.5026216506958008,1.069045901298523,-2.159755229949951
1667710019146570200,5.6065703125,1.9144457578659058,1.0061674118041992,-2.6078662872314453
1667710019156621300,5.616621337890625,2.1648013591766357,0.8375169038772583,-2.9097938537597656
1667710019166672100,5.626672119140625,1.8735313415527344,1.0707682371139526,-3.010572910308838
1667710019176723200,5.63672314453125,1.171921730041504,2.1338555812835693,-2.9881467819213867
1667710019186773200,5.646773193359375,0.5433492064476013,3.82350492477417,-2.8336470127105713
1667710019196824300,5.65682421875,0.12919674813747406,4.943502902984619,-2.5234456062316895
1667710019206875400,5.66687548828125,-0.10932821035385132,4.706545352935791,-2.653873920440674
1667710019216926500,5.676926513671875,-0.2763133645057678,3.905726909637451,-3.2896687984466553
1667710019226976500,5.6869765625,-0.20262446999549866,3.144698143005371,-3.904132127761841
1667710019237027300,5.69702734375,0.34762412309646606,2.493716239929199,-4.360531806945801
1667710019247078400,5.707078369140625,1.3235496282577515,1.190006971359253,-4.721552848815918
1667710019257129500,5.71712939453125,2.2784106731414795,-1.9702187776565552,-4.732800483703613
1667710019267179000,5.727178955078125,2.3647372722625732,-5.715757369995117,-4.363065242767334
1667710019277230000,5.73722998046875,2.0885891914367676,-7.296525478363037,-4.270917892456055
1667710019287281200,5.74728125,2.343143939971924,-5.891904830932617,-4.4251604080200195
1667710019297332000,5.75733203125,2.5051310062408447,-2.9774043560028076,-4.183653354644775
1667710019307382000,5.767382080078125,2.325169086456299,-0.18290749192237854,-3.483980655670166
1667710019317433000,5.77743310546875,1.9713774919509888,1.4758319854736328,-2.8835346698760986
1667710019327484200,5.787484130859375,1.6126600503921509,1.7208374738693237,-2.6514101028442383
1667710019337535200,5.79753515625,1.2766088247299194,1.371819257736206,-2.3635032176971436
1667710019347585000,5.8075849609375,0.9925352931022644,1.3756587505340576,-1.94222092628479
1667710019357636000,5.817635986328125,0.7315658330917358,1.9167485237121582,-1.4526559114456177
1667710019367687000,5.82768701171875,0.4347475469112396,2.5390329360961914,-0.9711766839027405
1667710019377737000,5.837737060546875,0.16988706588745117,2.8727567195892334,-0.4994652271270752
1667710019387788000,5.8477880859375,-0.023061342537403107,2.7581255435943604,0.04284650832414627
1667710019397839000,5.857839111328125,-0.19097618758678436,2.502204418182373,0.6197439432144165
1667710019407890200,5.86789013671875,-0.5392476320266724,2.2089192867279053,1.1655290126800537
1667710019417940200,5.877940185546875,-0.9573588967323303,1.6859312057495117,1.622597098350525
1667710019427991000,5.887990966796875,-1.2693876028060913,1.0105760097503662,2.037405014038086
1667710019438042000,5.8980419921875,-1.3650920391082764,0.4700315296649933,2.500499725341797
1667710019448093200,5.90809326171875,-1.5150352716445923,-0.036087870597839355,3.245509386062622
1667710019458143000,5.91814306640625,-1.941314697265625,-0.3377548158168793,3.827476739883423
1667710019468194000,5.928194091796875,-2.3426284790039062,-0.5058863162994385,3.5824222564697266
1667710019478245000,5.9382451171875,-2.631225347518921,-0.5378464460372925,2.824110984802246
1667710019488296000,5.9482958984375,-2.7623934745788574,-0.3533918857574463,2.059220790863037
1667710019498346000,5.958345947265625,-2.46769118309021,0.47492292523384094,1.2633185386657715
1667710019508397000,5.96839697265625,-1.586929202079773,1.7604267597198486,-0.010221912525594234
1667710019518448000,5.9784482421875,0.08464204519987106,0.9083287119865417,-1.6275793313980103
1667710019528499200,5.988499267578125,1.245496153831482,-3.229114055633545,-2.042229413986206
1667710019538549000,5.998549072265625,1.695275068283081,-5.601171016693115,-1.0856105089187622
1667710019548600000,6.00860009765625,2.1464593410491943,-4.907393932342529,-0.2970716953277588
1667710019558651000,6.01865087890625,2.3129303455352783,-1.349578857421875,0.8084484338760376
1667710019568702000,6.028701904296875,2.1282103061676025,0.024085713550448418,1.7310422658920288
1667710019578752000,6.038751953125,1.695177435874939,-2.1120028495788574,1.0834288597106934
1667710019588803000,6.048802978515625,0.6028262972831726,-5.005762100219727,-0.7109761238098145
1667710019598854100,6.058854248046875,-1.104853868484497,-6.324035167694092,-2.1490285396575928
1667710019608905000,6.068905029296875,-2.346466541290283,-4.136908531188965,-3.0354058742523193
1667710019618955000,6.078955078125,-2.453996181488037,1.6035537719726562,-2.2431514263153076
1667710019629006000,6.089006103515625,-1.9054577350616455,2.2426795959472656,-0.7853235006332397
1667710019639057200,6.09905712890625,-1.4697389602661133,0.9646285176277161,0.12246409058570862
1667710019649108200,6.109108154296875,-1.0421987771987915,0.4512690305709839,0.9967969059944153
1667710019659158000,6.119157958984375,-0.5991141200065613,1.2595374584197998,1.9925986528396606
1667710019669209000,6.129208984375,-0.38264915347099304,2.586571455001831,3.1410679817199707
1667710019679260000,6.139260009765625,-0.6014426350593567,3.1599628925323486,4.190707206726074
1667710019689311000,6.14931103515625,-1.0795856714248657,2.4568095207214355,4.863271713256836
1667710019699361000,6.159361083984375,-1.6992158889770508,1.4859222173690796,4.9847187995910645
1667710019709412000,6.169412109375,-1.8851219415664673,1.281753659248352,4.835055828094482
1667710019719463200,6.179463134765625,-1.4342989921569824,0.9588048458099365,5.885121822357178
1667710019729514200,6.18951416015625,-0.7809227705001831,1.0026415586471558,5.668758869171143
1667710019739564300,6.199564208984375,-0.2695443034172058,1.298978328704834,3.9944491386413574
1667710019749614800,6.20961474609375,-0.006091647315770388,0.5809152126312256,2.974212169647217
1667710019759666000,6.219666015625,-0.11390956491231918,-0.7137371301651001,3.123420238494873
1667710019769717000,6.229717041015625,-0.4810923635959625,-1.4570565223693848,3.6339504718780518
1667710019779767000,6.23976708984375,-1.0268503427505493,-1.033900260925293,3.4939067363739014
1667710019789818000,6.249818115234375,-1.4882209300994873,-0.5182263851165771,2.790468454360962
1667710019799869200,6.259869140625,-1.4838428497314453,-1.0914208889007568,2.3105783462524414
1667710019809920000,6.269919921875,-1.1543083190917969,-2.0481467247009277,2.0330300331115723
1667710019819970000,6.279969970703125,-0.9461323618888855,-2.728034019470215,1.8380366563796997
1667710019830021000,6.290021240234375,-1.0163660049438477,-2.949913263320923,1.7525957822799683
1667710019840072200,6.300072265625,-1.2391012907028198,-2.8710215091705322,1.5864964723587036
1667710019850123300,6.310123291015625,-1.345935583114624,-2.434690237045288,0.8444774746894836
1667710019860173000,6.320173095703125,-1.0602070093154907,-1.4491606950759888,-0.4881400465965271
1667710019870224000,6.330223876953125,-0.4665966331958771,-0.5033321380615234,-1.462454080581665
1667710019880275000,6.34027490234375,0.16567960381507874,0.1075613871216774,-1.6960175037384033
1667710019890325000,6.350324951171875,0.7615193128585815,0.38658955693244934,-1.6154794692993164
1667710019900376000,6.3603759765625,1.324090838432312,0.5407306551933289,-1.6342432498931885
1667710019910427100,6.37042724609375,1.78054940700531,0.7869729399681091,-1.763914942741394
1667710019920478200,6.380478271484375,2.1047143936157227,0.8964223265647888,-2.0798988342285156
1667710019930528300,6.3905283203125,2.100752353668213,0.9137741327285767,-2.5692296028137207
1667710019940579000,6.4005791015625,1.6703691482543945,1.325476050376892,-2.9998574256896973
1667710019950630000,6.4106298828125,1.2362499237060547,2.379690408706665,-2.96673583984375
1667710019960681000,6.420680908203125,1.1609317064285278,3.5223872661590576,-2.6334776878356934
1667710019970731000,6.43073095703125,1.3405954837799072,4.095014572143555,-2.548121690750122
1667710019980782000,6.440781982421875,1.52078115940094,4.472501277923584,-2.84197998046875
1667710019990833200,6.450833251953125,1.8544933795928955,4.967063903808594,-3.06594181060791
1667710020000884000,6.460884033203125,2.4795188903808594,4.38310432434082,-3.209871292114258
1667710020010934000,6.47093408203125,2.6556057929992676,2.0151755809783936,-3.499291181564331
1667710020020985000,6.480985107421875,2.0614542961120605,-1.4361679553985596,-4.105751991271973
1667710020031036200,6.4910361328125,1.3909058570861816,-4.890479564666748,-4.781118392944336
1667710020041087200,6.501087158203125,1.0666313171386719,-6.797570705413818,-5.166096210479736
1667710020051137000,6.511136962890625,1.159443736076355,-5.972823143005371,-5.0993266105651855
1667710020061188000,6.52118798828125,1.5257624387741089,-3.2645907402038574,-4.338277816772461
1667710020071239000,6.531239013671875,1.532639980316162,-1.1008156538009644,-3.248906373977661
1667710020081290000,6.5412900390625,1.1442291736602783,-0.22854678332805634,-2.6020679473876953
1667710020091340000,6.551340087890625,0.8245073556900024,-0.06002035364508629,-2.5265092849731445
1667710020101391000,6.56139111328125,0.8115335702896118,0.07362178713083267,-2.5236032009124756
1667710020111442200,6.571442138671875,1.0997754335403442,0.29112428426742554,-2.284130096435547
1667710020121493000,6.581492919921875,1.4107412099838257,0.39396336674690247,-1.8950631618499756
1667710020131543000,6.59154296875,1.2955198287963867,0.6377983689308167,-1.4605884552001953
1667710020141594000,6.601593994140625,0.9345200657844543,1.085759162902832,-1.0107589960098267
1667710020151645200,6.611645263671875,0.6357495784759521,1.5641534328460693,-0.6133096218109131
1667710020161696000,6.621696044921875,0.31675735116004944,1.9969030618667603,-0.2705957889556885
1667710020171746000,6.63174609375,-0.11963623017072678,2.595841884613037,0.08936905860900879
1667710020181797000,6.641797119140625,-0.6047770977020264,2.9992244243621826,0.45241546630859375
1667710020191848000,6.651847900390625,-1.0490344762802124,2.4955453872680664,0.7569364905357361
1667710020201899000,6.66189892578125,-1.3453115224838257,1.103155493736267,1.103885531425476
1667710020211949000,6.671948974609375,-1.4906692504882812,-0.5773069262504578,1.5200244188308716
1667710020222000000,6.682000244140625,-1.6740338802337646,-1.7454240322113037,2.025623321533203
1667710020232051200,6.69205126953125,-2.014178514480591,-1.874368667602539,2.9280552864074707
1667710020242102300,6.702102294921875,-2.1147570610046387,-0.9287140965461731,3.3921005725860596
1667710020252152000,6.712152099609375,-1.9211375713348389,0.2348409742116928,3.2666332721710205
1667710020262203000,6.722202880859375,-1.8580358028411865,0.7345680594444275,3.062722682952881
1667710020272254000,6.73225390625,-1.6525052785873413,0.9170811176300049,2.6640732288360596
1667710020282305000,6.742304931640625,-1.048497200012207,1.2408945560455322,1.2259628772735596
1667710020292355000,6.75235498046875,0.6605002284049988,0.11645463854074478,-1.855565071105957
1667710020302406100,6.76240625,1.9471644163131714,-2.96252179145813,-2.6673481464385986
1667710020312457000,6.77245703125,2.2135307788848877,-4.2687883377075195,-1.571115255355835
1667710020322507300,6.78250732421875,2.3541557788848877,-1.8819000720977783,-0.3168296217918396
1667710020332558000,6.79255810546875,2.3384413719177246,0.5635157823562622,1.3288124799728394
1667710020342609200,6.802609130859375,2.1160459518432617,-1.3864063024520874,1.9043303728103638
1667710020352660200,6.81266015625,1.5059603452682495,-4.7697906494140625,0.19710005819797516
1667710020362710000,6.8227099609375,-0.017924189567565918,-6.784600734710693,-1.7201809883117676
1667710020372761000,6.832760986328125,-1.5206573009490967,-6.5813798904418945,-3.0071940422058105
1667710020382812000,6.84281201171875,-2.333158016204834,-1.2106291055679321,-3.342242956161499
1667710020392863000,6.852863037109375,-2.112248420715332,3.3901126384735107,-1.1251966953277588
1667710020402913000,6.8629130859375,-1.938106894493103,2.7576351165771484,0.1270933449268341
1667710020412964000,6.872964111328125,-1.8967727422714233,1.3792301416397095,1.0663354396820068
1667710020423015200,6.88301513671875,-1.7386047840118408,0.6500153541564941,1.8729519844055176
1667710020433066200,6.893066162109375,-1.439591407775879,1.4883004426956177,2.9727745056152344
1667710020443116000,6.903115966796875,-1.16280996799469,2.803185224533081,4.142876148223877
1667710020453166800,6.913166748046875,-1.1885744333267212,3.6104352474212646,4.766236305236816
1667710020463218000,6.923218017578125,-1.7151638269424438,3.361147165298462,4.6767683029174805
1667710020473269000,6.93326904296875,-2.439685344696045,2.867398500442505,4.12307071685791
1667710020483319000,6.943319091796875,-2.6627566814422607,2.5504517555236816,3.8089184761047363
1667710020493370000,6.9533701171875,-2.3118388652801514,0.67996746301651,4.444626331329346
1667710020503421200,6.963421142578125,-1.229764699935913,-0.6277875304222107,4.537463665008545
1667710020513472000,6.973471923828125,-0.11804433166980743,-0.17375823855400085,3.9744362831115723
1667710020523522000,6.98352197265625,0.2985292077064514,0.5844070315361023,3.6296439170837402
1667710020533573000,6.993572998046875,0.12244421243667603,0.36531147360801697,3.751706600189209
1667710020543624200,7.003624267578125,-0.39202845096588135,-0.3875769376754761,3.8568074703216553
1667710020553675300,7.01367529296875,-1.0585449934005737,-0.586012601852417,3.420171022415161
1667710020563725000,7.02372509765625,-1.4489165544509888,-0.8099296689033508,2.6729109287261963
1667710020573776100,7.033776123046875,-1.330784559249878,-1.5834929943084717,2.1124889850616455
1667710020583827000,7.043826904296875,-1.1571943759918213,-2.214442253112793,1.7464357614517212
1667710020593878000,7.0538779296875,-1.2398929595947266,-2.462559938430786,1.589460015296936
1667710020603928000,7.063927978515625,-1.4427788257598877,-2.5443458557128906,1.3319154977798462
1667710020613979100,7.073979248046875,-1.4433751106262207,-2.3071091175079346,0.38559502363204956
1667710020624030200,7.0840302734375,-1.0195200443267822,-1.8676472902297974,-0.9231401085853577
1667710020634081000,7.0940810546875,-0.3996741473674774,-1.4872483015060425,-1.6112109422683716
1667710020644131000,7.104131103515625,0.2305976003408432,-0.9595351815223694,-1.5771965980529785
1667710020654182000,7.114181884765625,0.9050431251525879,-0.4227635860443115,-1.4222227334976196
1667710020664233000,7.12423291015625,1.5687309503555298,-0.12917819619178772,-1.5183870792388916
1667710020674284000,7.134283935546875,2.124573230743408,0.16109783947467804,-1.7812530994415283
1667710020684334000,7.144333984375,2.4903130531311035,0.2916414439678192,-2.163994789123535
1667710020694385200,7.15438525390625,2.5959994792938232,0.16887453198432922,-2.620236873626709
1667710020704436000,7.16443603515625,2.2433295249938965,0.4179687798023224,-2.873328685760498
1667710020714487000,7.174487060546875,1.5409762859344482,1.7006219625473022,-2.773477792739868
1667710020724537000,7.184537109375,1.1175767183303833,3.704389810562134,-2.41732120513916
1667710020734588200,7.194588134765625,1.134581208229065,5.238010883331299,-2.1978578567504883
1667710020744639200,7.20463916015625,1.2494114637374878,5.4346089363098145,-2.5041611194610596
1667710020754690000,7.21468994140625,1.4478249549865723,5.337006092071533,-2.9998972415924072
1667710020764740000,7.224739990234375,1.763379693031311,4.91957426071167,-3.405935049057007
1667710020774791000,7.234791015625,2.4636406898498535,2.6666057109832764,-3.8071515560150146
1667710020784842000,7.244842041015625,3.00933575630188,-1.1459381580352783,-4.149185657501221
1667710020794893000,7.25489306640625,2.8959624767303467,-4.896396636962891,-4.3235182762146
1667710020804943000,7.264943115234375,2.3783962726593018,-7.254227638244629,-4.5135884284973145
1667710020814994200,7.274994140625,1.9422104358673096,-7.422179222106934,-4.572539806365967
1667710020825045000,7.285044921875,1.9613673686981201,-4.991329193115234,-4.286286354064941
1667710020835096000,7.295095947265625,1.9668502807617188,-1.7398837804794312,-3.3020668029785156
1667710020845146000,7.30514599609375,1.704785704612732,0.3679181933403015,-2.1913297176361084
1667710020855197000,7.315197021484375,1.4622979164123535,0.993117094039917,-1.6131291389465332
1667710020865248000,7.325248046875,1.4750046730041504,0.7041274309158325,-1.753227710723877
1667710020875299000,7.335299072265625,1.6664392948150635,0.4266500174999237,-1.994642972946167
1667710020885349000,7.34534912109375,1.7388955354690552,0.7195841073989868,-1.8290101289749146
1667710020895400000,7.35539990234375,1.381609320640564,1.4018473625183105,-1.3278146982192993
1667710020905451000,7.365450927734375,0.760940670967102,2.244661808013916,-0.7809829711914062
1667710020915502000,7.375502197265625,0.17266356945037842,2.60787296295166,-0.3029378354549408
1667710020925552000,7.38555224609375,-0.3463338315486908,2.2711193561553955,0.08099812269210815
1667710020935603200,7.395603271484375,-0.8681195378303528,1.6085782051086426,0.42137086391448975
1667710020945654300,7.405654296875,-1.4441678524017334,1.0263733863830566,0.7115095853805542
1667710020955705000,7.415705078125,-2.0145208835601807,0.2105736881494522,0.9949719309806824
1667710020965755000,7.4257548828125,-2.5286343097686768,-1.1591088771820068,1.361207365989685
1667710020975806000,7.435805908203125,-3.1017587184906006,-2.2835259437561035,1.8489075899124146
1667710020985857000,7.44585693359375,-3.7023727893829346,-2.7255706787109375,2.6297178268432617
1667710020995907000,7.455906982421875,-4.104165554046631,-2.3206961154937744,3.025485038757324
1667710021005958100,7.465958251953125,-3.7702934741973877,-1.2214031219482422,2.742180824279785
1667710021016009200,7.47600927734375,-2.980482339859009,0.16783705353736877,2.339942693710327
1667710021026060000,7.48606005859375,-2.2101519107818604,1.6570109128952026,2.057868719100952
1667710021036110000,7.496110107421875,-1.3836960792541504,2.506182909011841,1.4685951471328735
1667710021046161200,7.5061611328125,0.4844740629196167,0.3312394917011261,-0.9230506420135498
1667710021056212000,7.5162119140625,2.809108257293701,-2.748595714569092,-2.09043025970459
1667710021066263000,7.526262939453125,3.695971965789795,-3.3755240440368652,-1.5981788635253906
1667710021076313000,7.53631298828125,3.39372181892395,-0.7975006103515625,-0.44116824865341187
1667710021086364000,7.546364013671875,2.757140636444092,0.6188228130340576,0.3677736818790436
1667710021096415000,7.5564150390625,2.0774264335632324,-1.3211108446121216,1.1277432441711426
1667710021106466000,7.566466064453125,1.3656818866729736,-3.7409377098083496,0.5392842292785645
1667710021116516000,7.57651611328125,0.7205719351768494,-4.029143333435059,-0.849597156047821
1667710021126567200,7.586567138671875,-0.26421067118644714,-4.530771732330322,-1.7686649560928345
1667710021136618200,7.5966181640625,-1.3079066276550293,-4.006719589233398,-2.092371940612793
1667710021146669000,7.6066689453125,-2.2264902591705322,4.179193496704102,-1.9267122745513916
1667710021156718800,7.61671875,-2.4766063690185547,8.007894515991211,-0.4889887869358063
1667710021166770000,7.62677001953125,-2.399897336959839,6.32553243637085,0.4851527810096741
1667710021176821000,7.636821044921875,-2.224498748779297,3.767803192138672,1.2768505811691284
1667710021186872000,7.6468720703125,-1.9944145679473877,1.3816020488739014,1.6923351287841797
1667710021196922000,7.656922119140625,-1.7426941394805908,0.05426708236336708,2.0390243530273438
1667710021206973200,7.66697314453125,-1.5596190690994263,0.3306872248649597,2.5385212898254395
1667710021217024000,7.67702392578125,-1.4419914484024048,1.2323616743087769,3.288499593734741
1667710021227075000,7.687074951171875,-1.4084962606430054,2.02695631980896,4.217618942260742
1667710021237125000,7.697125,-1.452567219734192,2.5598435401916504,5.115267276763916
1667710021247176200,7.70717626953125,-1.3925267457962036,3.137551784515381,6.003086090087891
1667710021257227300,7.717227294921875,-1.3147188425064087,3.0449447631835938,6.872786998748779
1667710021267278000,7.727278076171875,-0.9690572023391724,1.6700043678283691,6.322158336639404
1667710021277328100,7.737328125,-0.299734503030777,0.24032630026340485,4.469128131866455
1667710021287378700,7.747378662109375,0.069390207529068,-0.696220874786377,3.3475303649902344
1667710021297429800,7.7574296875,-0.11083415895700455,-1.2917976379394531,3.330437183380127
1667710021307480800,7.767480712890625,-0.7083900570869446,-1.3322234153747559,3.4744880199432373
1667710021317531000,7.77753076171875,-1.414501667022705,-0.6824262142181396,3.166806936264038
1667710021327582000,7.78758203125,-1.6607950925827026,-0.46152952313423157,2.5840258598327637
1667710021337632800,7.7976328125,-1.5711491107940674,-0.8273560404777527,2.01190447807312
1667710021347683800,7.807683837890625,-1.4936518669128418,-1.1529841423034668,1.6259254217147827
1667710021357734000,7.81773388671875,-1.4383376836776733,-1.4361023902893066,1.2592025995254517
1667710021367785000,7.827784912109375,-1.270599126815796,-1.7220425605773926,0.5659558773040771
1667710021377836000,7.8378359375,-0.8876782059669495,-1.8898677825927734,-0.47665277123451233
1667710021387887000,7.84788720703125,-0.35077935457229614,-1.774373173713684,-1.273714303970337
1667710021397937000,7.85793701171875,0.23733074963092804,-1.3359161615371704,-1.5419787168502808
1667710021407987700,7.86798779296875,0.878438413143158,-0.7614583969116211,-1.631001591682434
1667710021418038800,7.878038818359375,1.5278366804122925,-0.19685441255569458,-1.8429124355316162
1667710021428089900,7.88808984375,2.0583157539367676,0.40383195877075195,-2.0761992931365967
1667710021438140000,7.898139892578125,2.362724781036377,0.826806902885437,-2.3170979022979736
1667710021448191000,7.90819091796875,2.254075050354004,1.2066335678100586,-2.611816883087158
1667710021458242000,7.918241943359375,1.7111461162567139,2.0461153984069824,-2.870620012283325
1667710021468292000,7.9282919921875,1.2956328392028809,3.3433310985565186,-2.91607666015625
1667710021478343000,7.938343017578125,1.4098294973373413,4.269683837890625,-2.826279878616333
1667710021488393700,7.948393798828125,1.7500818967819214,4.6094889640808105,-2.865556478500366
1667710021498444800,7.95844482421875,2.0354666709899902,4.886295795440674,-2.732874870300293
1667710021508494800,7.968494873046875,1.8384877443313599,3.3759846687316895,-2.601088047027588
1667710021518546000,7.9785458984375,0.8604796528816223,0.8524656295776367,-3.225349187850952
1667710021528597000,7.988596923828125,-0.131658136844635,-1.5183825492858887,-4.206051826477051
1667710021538647800,7.998647705078125,-0.201091006398201,-3.2666015625,-4.634669780731201
1667710021548697900,8.00869775390625,0.2947859466075897,-3.923017740249634,-4.600009441375732
1667710021558749000,8.0187490234375,0.8776597380638123,-3.5912234783172607,-4.3466596603393555
1667710021568800000,8.028800048828124,1.0748040676116943,-3.0241174697875977,-3.818152666091919
1667710021578851000,8.03885107421875,0.8744696974754333,-2.385509729385376,-3.281252384185791
1667710021588900900,8.04890087890625,0.5879155397415161,-1.806626319885254,-2.9706897735595703
1667710021598952000,8.058951904296874,0.5320932865142822,-1.1271461248397827,-2.814760684967041
1667710021609002800,8.069002685546875,0.8212971687316895,-0.6059436202049255,-2.6508400440216064
1667710021619053800,8.0790537109375,1.2398457527160645,-0.3127053380012512,-2.376004934310913
1667710021629103900,8.089103759765624,1.1556875705718994,0.26428452134132385,-1.9481785297393799
1667710021639155000,8.099155029296876,0.8157435655593872,1.080889344215393,-1.4967035055160522
1667710021649206000,8.1092060546875,0.4060368835926056,1.710085153579712,-1.1561522483825684
1667710021659256800,8.1192568359375,-0.02130752056837082,1.8966121673583984,-0.980995774269104
1667710021669307000,8.129306884765626,-0.44525328278541565,1.7179648876190186,-0.8595119118690491
1667710021679358000,8.13935791015625,-0.8429586291313171,1.648381233215332,-0.7031409740447998
1667710021689408800,8.14940869140625,-1.150630235671997,1.6271253824234009,-0.4808611273765564
1667710021699459800,8.1594599609375,-1.3067996501922607,1.0096869468688965,-0.16473668813705444
1667710021709510000,8.169510009765625,-1.3841434717178345,-0.6917566657066345,0.5250068306922913
1667710021719561000,8.17956103515625,-1.4319781064987183,-2.741266965866089,1.6187820434570312
1667710021729611800,8.18961181640625,-1.4055533409118652,-3.180807590484619,3.115145683288574
1667710021739662800,8.199662841796876,-1.2231334447860718,-2.0469918251037598,4.309085369110107
1667710021749713000,8.209712890625,-0.797231912612915,-0.5383149981498718,4.642517566680908
1667710021759764000,8.219763916015625,-0.3563602864742279,0.6091446876525879,4.385130405426025
1667710021769815000,8.22981494140625,-0.07809074223041534,0.4236593246459961,3.406825304031372
1667710021779865900,8.239865966796875,0.04757637530565262,-0.5927252173423767,1.5929970741271973
1667710021789916000,8.249916015625,0.9024068713188171,-2.395935535430908,-2.892240524291992
1667710021799966700,8.259966796875,2.603118658065796,-2.332731246948242,-4.661548614501953
1667710021810017800,8.270017822265626,2.7842819690704346,-0.9618120789527893,-2.9116201400756836
1667710021820068900,8.28006884765625,2.255479574203491,0.27152419090270996,-0.036690112203359604
1667710021830119000,8.290118896484374,2.338608980178833,-2.008371114730835,1.5728200674057007
1667710021840170000,8.300169921875,2.3853251934051514,-5.686165809631348,-0.13625822961330414
1667710021850220800,8.310220703125,1.4250136613845825,-5.035374641418457,-1.8742072582244873
1667710021860271900,8.32027197265625,-0.21433290839195251,-3.069274663925171,-3.2407004833221436
1667710021870322000,8.330322021484376,-1.389084815979004,-2.618422508239746,-4.187653064727783
1667710021880373000,8.340373046875,-1.4333164691925049,0.2443174570798874,-2.535099506378174
1667710021890424000,8.350424072265625,-1.3712859153747559,0.7157267928123474,-0.5178474187850952
1667710021900475000,8.360474853515624,-1.5734810829162598,0.8860170245170593,0.7884532809257507
1667710021910525000,8.37052490234375,-1.9231209754943848,1.5221198797225952,1.9634981155395508
1667710021920575700,8.38057568359375,-2.3163962364196777,2.07407283782959,3.330031156539917
1667710021930626800,8.390626708984374,-2.495582342147827,2.3021538257598877,4.845924377441406
1667710021940676900,8.4006767578125,-2.340696096420288,2.8367044925689697,5.631346702575684
1667710021950728000,8.41072802734375,-2.143718719482422,3.7814652919769287,5.673913955688477
1667710021960779000,8.420779052734375,-2.4090576171875,4.237607955932617,4.730916976928711
1667710021970830000,8.430830078125,-2.7261767387390137,4.682977199554443,3.8399465084075928
1667710021980881000,8.440880859375,-2.726116895675659,4.70284366607666,4.438964366912842
1667710021990930700,8.4509306640625,-1.7921422719955444,3.6036183834075928,4.253561973571777
1667710022000981800,8.460981689453124,-0.6344679594039917,3.386333465576172,3.6301021575927734
1667710022011032800,8.47103271484375,0.07852333039045334,2.187859296798706,3.4117865562438965
1667710022021083000,8.481082763671875,0.2953413724899292,-0.0742240697145462,3.5463411808013916
1667710022031134000,8.491134033203124,-0.01908918283879757,-1.448998212814331,3.2290501594543457
1667710022041185000,8.50118505859375,-0.6027159094810486,-1.805649757385254,2.6276018619537354
1667710022051235800,8.51123583984375,-0.9159532189369202,-2.2784388065338135,2.3390915393829346
1667710022061286000,8.521285888671875,-0.8933850526809692,-2.6999001502990723,2.1105897426605225
1667710022071337000,8.5313369140625,-0.8306501507759094,-2.6574389934539795,1.8493735790252686
1667710022081388000,8.541387939453125,-0.9407519102096558,-2.338076591491699,1.6438225507736206
1667710022091439000,8.551439208984375,-1.1530542373657227,-2.2307088375091553,1.5106381177902222
1667710022101489000,8.561489013671874,-1.2399086952209473,-2.3872742652893066,1.247127890586853
1667710022111540000,8.5715400390625,-1.0866599082946777,-2.4068470001220703,0.598430335521698
1667710022121590800,8.5815908203125,-0.7166208624839783,-1.9459751844406128,-0.49873048067092896
1667710022131641900,8.591641845703125,-0.10203255712985992,-1.1862181425094604,-1.3472623825073242
1667710022141692000,8.60169189453125,0.6233176589012146,-0.322643905878067,-1.4157240390777588
1667710022151743000,8.611742919921875,1.2791157960891724,0.7044700980186462,-1.0831489562988281
1667710022161794000,8.6217939453125,1.7953277826309204,1.5094749927520752,-1.059304118156433
1667710022171844900,8.631844970703124,2.151244878768921,1.7107144594192505,-1.5078409910202026
1667710022181894700,8.641894775390625,2.1964874267578125,1.6517633199691772,-2.131814479827881
1667710022191945700,8.65194580078125,1.6696580648422241,1.6240077018737793,-2.6376426219940186
1667710022201996800,8.661996826171874,0.9255615472793579,1.8713034391403198,-3.0724427700042725
1667710022212048000,8.6720478515625,0.5659500360488892,2.678250312805176,-3.240473747253418
1667710022222098000,8.682097900390625,0.5551701188087463,3.8026232719421387,-2.853079080581665
1667710022232149000,8.69214892578125,0.6660141944885254,4.1649980545043945,-2.511559009552002
1667710022242199800,8.70219970703125,0.6652306914329529,3.7349398136138916,-2.9735007286071777
1667710022252251000,8.7122509765625,0.85072922706604,3.5667479038238525,-3.918330669403076
1667710022262301000,8.722301025390625,1.577994465827942,3.6751482486724854,-4.749651908874512
1667710022272352500,8.7323525390625,2.7304184436798096,2.3634965419769287,-4.981773853302002
1667710022282403600,8.742403564453125,3.6155669689178467,-1.4255561828613281,-4.266834259033203
1667710022292454400,8.752454345703125,3.252307891845703,-5.921388626098633,-3.6888039112091064
1667710022302504400,8.76250439453125,2.658374786376953,-8.850610733032227,-4.073373794555664
1667710022312555500,8.772555419921876,2.4503135681152344,-8.60871696472168,-4.587311267852783
1667710022322606600,8.782606689453125,2.2231757640838623,-5.920560359954834,-4.401228904724121
1667710022332657700,8.79265771484375,1.7200394868850708,-2.5883734226226807,-3.2777819633483887
1667710022342707700,8.802707763671876,1.3977489471435547,0.0005640315357595682,-1.999129295349121
1667710022352758500,8.812758544921875,1.489352822303772,1.5527114868164062,-1.245896577835083
1667710022362809600,8.8228095703125,1.7407903671264648,2.1067070960998535,-1.0191473960876465
1667710022372860700,8.832860595703124,2.0796868801116943,2.117619514465332,-0.8964495658874512
1667710022382910500,8.842910400390625,2.3659474849700928,1.8424289226531982,-0.6225919127464294
1667710022392961500,8.85296142578125,2.067267656326294,1.7501932382583618,-0.20661833882331848
1667710022403012600,8.8630126953125,1.172204852104187,1.8046056032180786,0.20786699652671814
1667710022413063400,8.8730634765625,0.0583219975233078,1.7084354162216187,0.6129931211471558
1667710022423113500,8.883113525390625,-0.898882269859314,1.3631185293197632,1.018555998802185
1667710022433164500,8.89316455078125,-1.6702624559402466,0.9916390180587769,1.4009428024291992
1667710022443215600,8.903215576171876,-2.266245126724243,0.7129871845245361,1.792986273765564
1667710022453266700,8.9132666015625,-2.817584276199341,0.3129943907260895,2.3460679054260254
1667710022463316700,8.923316650390625,-3.5547332763671875,-0.02693493850529194,3.0832486152648926
1667710022473367600,8.933367431640624,-4.259237766265869,0.3045350909233093,3.6146018505096436
1667710022483418400,8.94341845703125,-4.512580871582031,0.9574583172798157,3.2309062480926514
1667710022493468400,8.953468505859375,-4.269439220428467,0.971014678478241,2.28779673576355
1667710022503519500,8.96351953125,-3.6667654514312744,1.0019375085830688,1.3529205322265625
1667710022513570600,8.973570556640626,-2.7912395000457764,1.5916093587875366,0.24840345978736877
1667710022523621600,8.98362158203125,-1.521916151046753,2.5326366424560547,-1.8699743747711182
1667710022533671700,8.993671630859374,0.6987383365631104,0.22090645134449005,-4.327425479888916
1667710022543722800,9.00372265625,1.9984633922576904,-3.4304773807525635,-3.187152147293091
1667710022553773600,9.013773681640625,2.7447855472564697,-5.728248119354248,-1.0913352966308594
1667710022563824600,9.02382470703125,3.226731538772583,-5.749368667602539,-0.06654740124940872
1667710022573874400,9.03387451171875,2.823848009109497,-1.9146400690078735,0.9140355587005615
1667710022583925500,9.043925537109375,1.9378999471664429,1.9828908443450928,2.552915573120117
1667710022593976600,9.0539765625,1.18867826461792,0.6676858067512512,1.550426721572876
1667710022604027400,9.06402734375,0.3769468665122986,-3.011993646621704,-1.8877286911010742
1667710022614077700,9.07407763671875,-0.5536929965019226,-5.965912342071533,-4.219021320343018
1667710022624128500,9.08412841796875,-1.1514397859573364,-7.189944744110107,-5.005274295806885
1667710022634179600,9.0941796875,-1.281815767288208,-6.313548564910889,-4.255221366882324
1667710022644230700,9.104230712890624,-0.7627971172332764,-2.1685822010040283,-0.7433390617370605
1667710022654280700,9.11428076171875,-0.7261182069778442,0.3399876356124878,1.9928401708602905
1667710022664331800,9.124331787109375,-1.0621087551116943,2.1783809661865234,4.129848957061768
1667710022674382300,9.13438232421875,-1.4307522773742676,2.974543809890747,5.414473056793213
1667710022684433400,9.144433349609375,-1.699329137802124,3.3979551792144775,5.848607063293457
1667710022694483500,9.1544833984375,-1.7108265161514282,3.9577691555023193,5.345735549926758
1667710022704534500,9.164534423828124,-1.9606188535690308,4.565446853637695,4.163631439208984
1667710022714585600,9.174585693359376,-2.718669891357422,5.274442672729492,3.016679286956787
1667710022724636700,9.18463671875,-3.4870193004608154,6.177521705627441,3.077855110168457
1667710022734686700,9.194686767578125,-3.385404586791992,6.199451923370361,5.302276134490967
1667710022744737500,9.204737548828126,-1.4221798181533813,3.9571874141693115,5.376768589019775
1667710022754788600,9.21478857421875,0.03335697948932648,1.6072076559066772,4.46843957901001
1667710022764839700,9.224839599609375,0.45456546545028687,-0.9268072843551636,3.717585325241089
1667710022774889500,9.234889404296876,0.2389747053384781,-2.554762601852417,3.379291296005249
1667710022784940500,9.2449404296875,-0.3669881820678711,-2.40837025642395,3.0389316082000732
1667710022794991600,9.25499169921875,-1.0775015354156494,-1.5614395141601562,2.735379695892334
1667710022805042400,9.26504248046875,-1.3685709238052368,-1.2935066223144531,2.604404926300049
1667710022815092500,9.275092529296876,-1.1891088485717773,-1.4800976514816284,2.259511947631836
1667710022825143600,9.2851435546875,-1.0588616132736206,-1.954207181930542,1.915947675704956
1667710022835194600,9.295194580078125,-1.1366242170333862,-2.452481746673584,1.7271215915679932
1667710022845245700,9.30524560546875,-1.2374056577682495,-2.7804653644561768,1.4085371494293213
1667710022855295700,9.315295654296875,-1.1845345497131348,-2.6525518894195557,0.4523583948612213
1667710022865346600,9.3253466796875,-0.8111880421638489,-1.9632285833358765,-0.9440006017684937
1667710022875397600,9.335397705078124,-0.15178129076957703,-1.2522047758102417,-1.8377430438995361
1667710022885448400,9.345448486328126,0.5815709829330444,-0.7681105136871338,-2.067319631576538
1667710022895498500,9.35549853515625,1.2422422170639038,-0.45849159359931946,-2.0596485137939453
1667710022905549600,9.365549560546874,1.760603904724121,-0.025954576209187508,-2.031583070755005
1667710022915600600,9.3756005859375,2.1536881923675537,0.3729695677757263,-2.061295747756958
1667710022925650700,9.385650634765625,2.4424495697021484,0.6909365653991699,-2.2502448558807373
1667710022935701500,9.395701416015624,2.2560086250305176,1.2142213582992554,-2.594660758972168
1667710022945752600,9.405752685546876,1.4903733730316162,2.2411351203918457,-2.8641555309295654
1667710022955803600,9.4158037109375,0.8960570096969604,3.5583908557891846,-2.8098418712615967
1667710022965853400,9.425853515625,0.835943877696991,4.837355613708496,-2.6172332763671875
1667710022975904500,9.435904541015624,0.9393633008003235,5.382103443145752,-2.5367603302001953
1667710022985955600,9.44595556640625,0.9356740117073059,4.530572414398193,-2.911602735519409
1667710022996006400,9.45600634765625,0.8828821778297424,3.350281000137329,-3.7043240070343018
1667710023006056400,9.466056396484374,1.0523349046707153,2.985584259033203,-4.329320430755615
1667710023016107500,9.476107421875,1.7505595684051514,2.3114867210388184,-4.608527660369873
1667710023026158600,9.48615869140625,2.546156883239746,0.05031696707010269,-4.422369480133057
1667710023036209700,9.496209716796875,2.6164021492004395,-3.6673192977905273,-3.926665782928467
1667710023046259700,9.506259765625,2.077910900115967,-7.1177778244018555,-4.0060224533081055
1667710023056310500,9.516310546875,1.881126046180725,-7.838764667510986,-4.413998126983643
1667710023066361600,9.526361572265625,2.0691123008728027,-5.727194786071777,-4.44622802734375
1667710023076412700,9.53641259765625,2.1112449169158936,-2.6912930011749268,-3.670236349105835
1667710023086462500,9.54646240234375,1.8837385177612305,-0.35848674178123474,-2.431954860687256
1667710023096513500,9.556513427734375,1.742619514465332,0.683952271938324,-1.5648411512374878
1667710023106564600,9.566564697265624,1.9020882844924927,0.6926208734512329,-1.3499565124511719
1667710023116615400,9.576615478515626,2.1493871212005615,0.3804539442062378,-1.224902629852295
1667710023126665500,9.58666552734375,2.1256420612335205,0.24557627737522125,-0.9655109643936157
1667710023136716500,9.596716552734375,1.5993423461914062,0.8706206679344177,-0.5813323855400085
1667710023146767600,9.606767578125,0.8927885890007019,1.9094796180725098,-0.19406642019748688
1667710023156818700,9.616818603515625,0.21970327198505402,2.507598876953125,0.11232148855924606
1667710023166868500,9.626868408203125,-0.38178685307502747,2.399761199951172,0.4308842718601227
1667710023176919600,9.63691943359375,-0.941225528717041,2.1622507572174072,0.8384351134300232
1667710023186970400,9.646970458984375,-1.4011144638061523,2.0266494750976562,1.3370859622955322
1667710023197021400,9.657021484375,-1.7732093334197998,1.4969425201416016,1.843016505241394
1667710023207071500,9.667071533203124,-2.0411767959594727,0.5112425088882446,2.3162384033203125
1667710023217122600,9.67712255859375,-2.3413805961608887,-0.7403832077980042,2.6718788146972656
1667710023227173600,9.687173583984375,-2.7699780464172363,-1.7371920347213745,3.05551815032959
1667710023237224700,9.697224609375,-3.2277352809906006,-1.9650346040725708,3.2865145206451416
1667710023247274800,9.707274658203126,-3.5139365196228027,-1.6088138818740845,2.682422637939453
1667710023257325600,9.71732568359375,-3.311295509338379,-0.9957229495048523,1.633303165435791
1667710023267376600,9.727376708984375,-2.78056263923645,0.3830021917819977,0.940887987613678
1667710023277426700,9.7374267578125,-2.0975396633148193,2.60408616065979,0.2689548134803772
1667710023287476700,9.747476806640625,-1.090464472770691,4.757171630859375,-0.6306908130645752
1667710023297527800,9.75752783203125,0.6939961314201355,2.18204665184021,-2.2550437450408936
1667710023307579000,9.767578857421874,2.365487813949585,-4.523083686828613,-2.5756819248199463
1667710023317629700,9.777629638671876,3.108398675918579,-6.836789131164551,-1.157383918762207
1667710023327680000,9.787679931640625,3.2002270221710205,-4.4058661460876465,0.27088725566864014
1667710023337730800,9.797730712890624,3.0593135356903076,-2.086726427078247,1.4502761363983154
1667710023347781600,9.80778173828125,2.6084136962890625,-3.5963330268859863,2.2341248989105225
1667710023357832700,9.817832763671875,1.8639919757843018,-5.759342193603516,1.7181259393692017
1667710023367882800,9.8278828125,0.846461832523346,-6.612878799438477,0.04416542872786522
1667710023377933800,9.837933837890626,-0.552562415599823,-5.633989334106445,-1.7247834205627441
1667710023387984600,9.847984619140625,-1.9290931224822998,-2.3456058502197266,-2.8189167976379395
1667710023398035700,9.85803564453125,-2.621093988418579,2.0568735599517822,-3.0994343757629395
1667710023408085800,9.868085693359374,-3.0336129665374756,7.687700271606445,-0.6601032614707947
1667710023418136800,9.87813671875,-3.113875150680542,8.824344635009766,1.787224292755127
1667710023428188000,9.88818798828125,-2.5824785232543945,7.262441635131836,2.8859665393829346
1667710023438239000,9.898239013671875,-1.4095423221588135,4.466406345367432,2.75016188621521
1667710023448288800,9.908288818359376,-0.6251963376998901,1.9037306308746338,2.2268826961517334
1667710023458339600,9.918339599609375,-0.6519913077354431,0.3736271858215332,1.8251900672912598
1667710023468390700,9.928390625,-1.2341843843460083,-0.5884832143783569,1.77986741065979
1667710023478441700,9.938441650390626,-1.9616347551345825,-1.3732444047927856,2.2880845069885254
1667710023488491800,9.94849169921875,-2.150259256362915,-1.3558813333511353,3.3426902294158936
1667710023498542800,9.95854296875,-1.613422155380249,0.3189779222011566,5.248256206512451
1667710023508594000,9.968593994140624,-0.8781697154045105,2.3377835750579834,7.6287384033203125
1667710023518644700,9.978644775390626,-0.05844445526599884,2.7894372940063477,7.46987771987915
1667710023528694800,9.98869482421875,0.47543278336524963,1.8629957437515259,4.293252468109131
1667710023538745900,9.998745849609374,0.022701427340507507,0.24594080448150635,2.246082305908203
1667710023548796700,10.008796630859376,-0.6282728314399719,-1.1472620964050293,2.1137518882751465
1667710023558846700,10.0188466796875,-1.1939462423324585,-1.1636898517608643,2.44193172454834
1667710023568897800,10.028897705078125,-1.4391413927078247,-0.5336102843284607,2.487560749053955
1667710023578948900,10.038948974609376,-1.328176736831665,-0.4820731282234192,2.252976179122925
1667710023588999700,10.048999755859375,-1.1808182001113892,-1.013319492340088,1.8445799350738525
1667710023599049700,10.0590498046875,-1.1805884838104248,-1.4142181873321533,1.5210245847702026
1667710023609100800,10.069100830078124,-1.2180109024047852,-1.6923915147781372,1.238131046295166
1667710023619152000,10.07915185546875,-1.0899184942245483,-2.0319478511810303,0.5559133291244507
1667710023629203000,10.089202880859375,-0.6326335072517395,-2.3323099613189697,-0.6092185974121094
1667710023639252700,10.099252685546874,-0.051391080021858215,-2.303994655609131,-1.462739109992981
1667710023649303600,10.109303466796876,0.4918402433395386,-1.803503155708313,-1.6765745878219604
1667710023659354600,10.119354736328125,1.0218602418899536,-0.8664522767066956,-1.6853796243667603
1667710023669405700,10.12940576171875,1.462614893913269,-0.050848498940467834,-1.7473207712173462
1667710023679455700,10.139455810546876,1.8071773052215576,0.3495141267776489,-2.008280038833618
1667710023689506800,10.1495068359375,2.050842046737671,0.42937859892845154,-2.414477586746216
1667710023699558000,10.159557861328125,1.98080575466156,0.6315756440162659,-2.679409980773926
1667710023709608700,10.169608642578124,1.3886395692825317,1.2252424955368042,-2.7932209968566895
1667710023719658800,10.17965869140625,0.7221024036407471,2.15468168258667,-2.894733428955078
1667710023729709800,10.189709716796875,0.5600607395172119,3.1965253353118896,-2.9233903884887695
1667710023739761000,10.199760986328124,0.7633471488952637,3.8786633014678955,-2.8442351818084717
1667710023749812000,10.20981201171875,1.0535610914230347,3.827186107635498,-2.9481492042541504
1667710023759861800,10.21986181640625,1.2967637777328491,3.3796331882476807,-3.394558906555176
1667710023769912800,10.229912841796875,1.5825252532958984,3.33109188079834,-3.726630687713623
1667710023779963600,10.239963623046876,2.157538414001465,2.808727264404297,-3.6505484580993652
1667710023790014700,10.2500146484375,2.6211018562316895,0.8786793351173401,-3.376070976257324
1667710023800064800,10.260064697265625,2.7096195220947266,-2.510561466217041,-3.4435064792633057
1667710023810115800,10.27011572265625,2.3964695930480957,-5.821975231170654,-3.911078453063965
1667710023820167000,10.2801669921875,2.033879041671753,-7.397408485412598,-4.191400051116943
1667710023830217700,10.2902177734375,2.0079703330993652,-6.490699291229248,-4.069769859313965
1667710023840267800,10.300267822265624,2.134848117828369,-3.555321216583252,-3.4263155460357666
1667710023850318600,10.310318603515626,1.938519835472107,-0.897987961769104,-2.5572690963745117
1667710023860369700,10.32036962890625,1.6045763492584229,0.37761834263801575,-2.0158531665802
1667710023870420700,10.330420654296875,1.5669571161270142,0.7635692358016968,-1.95362389087677
1667710023880470800,10.340470703125,1.733858585357666,0.7397940754890442,-1.9763810634613037
1667710023890521900,10.35052197265625,1.937522053718567,0.8217787146568298,-1.718960165977478
1667710023900572700,10.36057275390625,1.729135274887085,1.2531541585922241,-1.2544682025909424
1667710023910623700,10.370623779296874,1.2642966508865356,2.067411184310913,-0.8092989921569824
1667710023920673800,10.380673828125,0.7902921438217163,2.781773567199707,-0.43537119030952454
1667710023930724900,10.390724853515625,0.2870306670665741,2.823457956314087,-0.15634885430335999
1667710023940776000,10.40077587890625,-0.23056739568710327,2.5478367805480957,0.14019937813282013
1667710023950827000,10.410826904296876,-0.6884476542472839,2.500710964202881,0.5767815113067627
1667710023960876800,10.420876708984375,-1.0934029817581177,2.309824228286743,1.0010440349578857
1667710023970927600,10.430927734375,-1.466659665107727,1.5063620805740356,1.3432234525680542
1667710023980978700,10.440978759765626,-1.768466591835022,0.31489115953445435,1.663049340248108
1667710023991029800,10.45102978515625,-2.086270809173584,-1.2315044403076172,1.9812490940093994
1667710024001079800,10.461079833984375,-2.512554883956909,-2.739729881286621,2.087883472442627
1667710024011131000,10.471130859375,-2.834892749786377,-3.4104714393615723,2.2466084957122803
1667710024021181700,10.481181640625,-2.802339792251587,-2.7804646492004395,2.320577621459961
1667710024031232000,10.49123193359375,-2.50405216217041,-1.7234598398208618,2.0576353073120117
1667710024041282600,10.501282470703124,-2.2551000118255615,-0.5990670919418335,1.7073429822921753
1667710024051333600,10.511333740234376,-2.0259079933166504,0.7510301470756531,1.4592684507369995
1667710024061384700,10.521384765625,-1.5670660734176636,2.1546390056610107,1.0911823511123657
1667710024071434800,10.531434814453124,-0.5266079902648926,2.9513697624206543,0.27743110060691833
1667710024081485800,10.54148583984375,1.5283101797103882,0.8316675424575806,-1.3541531562805176
1667710024091536600,10.55153662109375,3.189795970916748,-2.03770112991333,-1.9967541694641113
1667710024101587700,10.561587646484375,3.330214262008667,-1.6947031021118164,-1.0625834465026855
1667710024111637800,10.5716376953125,2.7184150218963623,-1.5069392919540405,0.6917284727096558
1667710024121688800,10.581688720703125,2.3461921215057373,-4.427303314208984,1.5719574689865112
1667710024131740000,10.591739990234375,1.7125298976898193,-7.2392144203186035,0.7998343706130981
1667710024141791000,10.601791015625,0.38678276538848877,-7.538171768188477,-1.0301580429077148
1667710024151840800,10.6118408203125,-1.241186261177063,-5.8971123695373535,-2.699204921722412
1667710024161891600,10.6218916015625,-2.227630853652954,3.5521512031555176,-2.668653964996338
1667710024171942700,10.631942626953125,-2.192927360534668,4.48471736907959,-1.260292887687683
1667710024181993700,10.64199365234375,-2.0183231830596924,2.4370501041412354,-0.07326161861419678
1667710024192043800,10.652043701171875,-1.6790132522583008,0.8798308968544006,0.9493493437767029
1667710024202094800,10.6620947265625,-1.2483689785003662,0.8372543454170227,2.1373863220214844
1667710024212146000,10.67214599609375,-0.8939714431762695,1.8561434745788574,3.487220287322998
1667710024222196700,10.68219677734375,-0.8961581587791443,2.9073548316955566,4.563631057739258
1667710024232246800,10.692246826171875,-1.4880918264389038,3.227365732192993,4.968891620635986
1667710024242297900,10.7022978515625,-2.5204572677612305,2.9088611602783203,4.643961429595947
1667710024252348700,10.7123486328125,-3.411684513092041,2.7109928131103516,4.030465602874756
1667710024262399700,10.722399658203125,-3.5056750774383545,2.6063029766082764,4.207849979400635
1667710024272449800,10.73244970703125,-2.7265758514404297,1.4815584421157837,4.985164642333984
1667710024282500900,10.7425009765625,-1.341324806213379,0.9785472750663757,4.450023174285889
1667710024292551700,10.7525517578125,-0.2900303304195404,1.3371350765228271,3.577111005783081
1667710024302602800,10.762602783203125,0.05455414205789566,1.055721640586853,3.4150612354278564
1667710024312652800,10.77265283203125,-0.11157011240720749,-0.02279663272202015,3.839576482772827
1667710024322704000,10.782703857421875,-0.6042152047157288,-0.5007451176643372,3.964482307434082
1667710024332755000,10.7927548828125,-1.2364450693130493,-0.1356758177280426,3.3073365688323975
1667710024342805800,10.8028056640625,-1.4145463705062866,-0.44074127078056335,2.574208974838257
1667710024352855800,10.812855712890626,-1.144053339958191,-1.5578970909118652,2.1933913230895996
1667710024362906600,10.82290673828125,-0.9889606237411499,-2.4027817249298096,2.0851969718933105
1667710024372957700,10.832957763671875,-1.1443980932235718,-2.5476369857788086,1.9918909072875977
1667710024383008800,10.8430087890625,-1.3211644887924194,-2.3813068866729736,1.5946927070617676
1667710024393058800,10.853058837890625,-1.1629064083099365,-2.2173616886138916,0.4747955799102783
1667710024403110000,10.86310986328125,-0.6425001621246338,-1.9127600193023682,-0.9434204697608948
1667710024413160700,10.87316064453125,0.023595822975039482,-1.499712586402893,-1.676897406578064
1667710024423211800,10.883211669921875,0.7006349563598633,-0.9763780236244202,-1.689218521118164
1667710024433261800,10.89326171875,1.485361933708191,-0.46728119254112244,-1.574364423751831
1667710024443313000,10.90331298828125,2.285140037536621,-0.014599981717765331,-1.5667954683303833
1667710024453363700,10.91336376953125,2.9698352813720703,0.4459679126739502,-1.718403935432434
1667710024463414800,10.923414794921875,3.3092057704925537,0.5887814164161682,-2.222801446914673
1667710024473464800,10.93346484375,2.9720869064331055,0.4959028959274292,-2.935884475708008
1667710024483515600,10.943515625,2.068119525909424,1.1232918500900269,-3.295994758605957
1667710024493566700,10.953566650390625,1.4680416584014893,2.7429001331329346,-3.088815450668335
1667710024503617800,10.96361767578125,1.4658313989639282,4.326840877532959,-2.8135855197906494
1667710024513667800,10.973667724609374,1.6370623111724854,5.08753776550293,-2.933173656463623
1667710024523719000,10.983718994140625,1.728269338607788,4.835787296295166,-3.6634058952331543
1667710024533769700,10.993769775390625,2.0499277114868164,4.483466148376465,-3.8975436687469482
1667710024543820800,11.00382080078125,2.5284624099731445,2.98079776763916,-3.782714366912842
1667710024553870600,11.01387060546875,2.577755928039551,0.2127273678779602,-3.6772282123565674
1667710024563921700,11.023921630859375,1.7538936138153076,-3.273324728012085,-3.9347543716430664
1667710024573972700,11.03397265625,0.899977445602417,-6.0832743644714355,-4.498793601989746
1667710024584022800,11.044022705078126,0.8403803706169128,-6.695949554443359,-4.952428817749023
1667710024594073900,11.054073974609375,1.4126065969467163,-5.09491491317749,-4.6142096519470215
1667710024604124700,11.064124755859375,1.7914870977401733,-2.6967670917510986,-3.488393783569336
1667710024614175700,11.07417578125,1.5737905502319336,-0.8061648011207581,-2.514303207397461
1667710024624225800,11.084225830078125,1.3087706565856934,0.3260899782180786,-2.175959348678589
1667710024634276900,11.09427685546875,1.4525682926177979,0.6281073689460754,-2.2043957710266113
1667710024644328000,11.104327880859374,1.837336540222168,0.391493558883667,-2.096271514892578
1667710024654379000,11.11437890625,2.012338638305664,0.41388463973999023,-1.789512038230896
1667710024664428800,11.1244287109375,1.584528923034668,1.0723235607147217,-1.420615553855896
1667710024674479600,11.134479736328124,0.9547997117042542,1.8661690950393677,-1.0559546947479248
1667710024684530700,11.14453076171875,0.4036369025707245,2.0697550773620605,-0.7159973978996277
1667710024694581800,11.154581787109375,-0.134364515542984,1.8695303201675415,-0.37762922048568726
1667710024704631800,11.1646318359375,-0.6807807087898254,2.012383222579956,0.028038060292601585
1667710024714683000,11.174682861328124,-1.1382696628570557,2.286770820617676,0.42745524644851685
1667710024724734000,11.18473388671875,-1.4368665218353271,2.0558125972747803,0.7747646570205688
1667710024734784800,11.19478466796875,-1.5680679082870483,0.8728655576705933,1.2161338329315186
1667710024744834600,11.20483447265625,-1.7660071849822998,-1.3346707820892334,1.8124233484268188
1667710024754885600,11.2148857421875,-2.1595969200134277,-3.2533843517303467,2.153815746307373
1667710024764936700,11.224936767578125,-2.5168397426605225,-3.7426865100860596,2.5531935691833496
1667710024774987800,11.23498779296875,-2.526421070098877,-2.5129146575927734,2.5763192176818848
1667710024785037800,11.245037841796876,-2.17157244682312,-0.6682438254356384,2.2150392532348633
1667710024795089000,11.2550888671875,-1.9752788543701172,0.7734999656677246,1.9434332847595215
1667710024805139700,11.2651396484375,-1.7437907457351685,1.5195040702819824,1.7956628799438477
1667710024815190800,11.275190673828124,-1.2299656867980957,2.1718902587890625,1.1694791316986084
1667710024825240800,11.28524072265625,-0.008488556370139122,1.956915259361267,-0.5938364267349243
1667710024835292000,11.2952919921875,2.0116803646087646,-1.503219723701477,-2.002476930618286
1667710024845343000,11.305343017578124,3.1017494201660156,-3.2344400882720947,-1.619917631149292
1667710024855393800,11.315393798828126,2.8564984798431396,-1.7525190114974976,0.5173912644386292
1667710024865443600,11.325443603515625,2.693551778793335,-4.409127712249756,1.4757887125015259
1667710024875494700,11.33549462890625,2.4252943992614746,-7.375581741333008,0.7017381191253662
1667710024885545700,11.345545654296876,1.4520946741104126,-6.983362197875977,-0.7480564713478088
1667710024895596800,11.3555966796875,-0.15132297575473785,-5.564799785614014,-2.4793665409088135
1667710024905646800,11.365646728515625,-1.5559775829315186,-2.4268550872802734,-3.549499988555908
1667710024915698000,11.375697998046874,-2.0338687896728516,0.9449405074119568,-2.557244062423706
1667710024925748700,11.385748779296875,-1.9810243844985962,1.786044716835022,-1.0898051261901855
1667710024935799800,11.3957998046875,-1.9924509525299072,2.122920513153076,0.37580183148384094
1667710024945849600,11.405849609375,-2.106893539428711,2.891328811645508,1.9654508829116821
1667710024955900700,11.415900634765626,-2.1807618141174316,3.7094223499298096,3.761603593826294
1667710024965951700,11.42595166015625,-2.238104820251465,4.21918249130249,5.196394443511963
1667710024976002800,11.4360029296875,-2.4658756256103516,4.19164514541626,5.606050491333008
1667710024986052900,11.446052978515626,-3.231363296508789,3.7233569622039795,4.879165172576904
1667710024996103700,11.456103759765625,-4.014248371124268,3.327254295349121,3.6885130405426025
1667710025006154800,11.46615478515625,-4.022129535675049,3.4016799926757812,3.180880546569824
1667710025016205800,11.476205810546874,-2.8219430446624756,2.174954414367676,4.43433141708374
1667710025026256000,11.486255859375,-1.312390685081482,0.4436035454273224,4.936083793640137
1667710025036307000,11.496306884765625,-0.3452680706977844,0.08476975560188293,4.139520168304443
1667710025046357800,11.506357666015624,-0.053113263100385666,-0.4663920998573303,3.4516549110412598
1667710025056408800,11.516408935546876,-0.24351276457309723,-1.2556145191192627,3.3815691471099854
1667710025066458600,11.526458740234375,-0.8236264586448669,-1.0583325624465942,3.1849167346954346
1667710025076509700,11.536509765625,-1.3863939046859741,-0.5064610838890076,2.5098862648010254
1667710025086560800,11.546560791015626,-1.4267092943191528,-0.8519253730773926,1.936361312866211
1667710025096611800,11.55661181640625,-1.1880487203598022,-1.5414135456085205,1.627953052520752
1667710025106662000,11.566661865234375,-1.1824374198913574,-1.9408875703811646,1.5964995622634888
1667710025116712700,11.576712646484374,-1.3157649040222168,-1.9620416164398193,1.517881989479065
1667710025126763800,11.586763671875,-1.3627327680587769,-1.9431180953979492,1.1892447471618652
1667710025136814800,11.59681494140625,-1.1727122068405151,-2.0770530700683594,0.2445167899131775
1667710025146865000,11.606864990234374,-0.5193172693252563,-1.9527027606964111,-1.1032134294509888
1667710025156915700,11.616915771484376,0.35310178995132446,-0.7292457222938538,-1.457497477531433
1667710025166966800,11.626966796875,1.1627060174942017,1.0124125480651855,-1.023097038269043
1667710025177016800,11.637016845703124,1.895504355430603,2.047518014907837,-0.8317845463752747
1667710025187067600,11.647067626953126,2.4805004596710205,2.1703097820281982,-1.1988004446029663
1667710025197118700,11.65711865234375,2.9331064224243164,1.5791438817977905,-1.9355762004852295
1667710025207169800,11.667169677734375,2.922329902648926,1.047676920890808,-2.525324583053589
1667710025217219800,11.6772197265625,2.2345612049102783,1.0933384895324707,-2.720247507095337
1667710025227271000,11.68727099609375,1.5664080381393433,1.9437586069107056,-2.7371158599853516
1667710025237321700,11.69732177734375,1.2542301416397095,3.096511125564575,-2.854980230331421
1667710025247372800,11.707372802734374,1.2775300741195679,4.144030570983887,-3.0389881134033203
1667710025257422600,11.717422607421875,1.4482687711715698,4.621584892272949,-3.5237984657287598
1667710025267473700,11.7274736328125,1.6510396003723145,4.982614517211914,-3.9737777709960938
1667710025277525200,11.737525146484375,2.1719534397125244,4.897614479064941,-3.9248390197753906
1667710025287576300,11.747576416015624,2.8237338066101074,3.2599987983703613,-3.7753100395202637
1667710025297626400,11.75762646484375,2.7622368335723877,0.06236552074551582,-3.675112247467041
1667710025307677200,11.76767724609375,1.7105164527893066,-4.363946914672852,-3.931586503982544
1667710025317728300,11.777728271484374,0.7874243259429932,-7.4481401443481445,-4.354164123535156
1667710025327779300,11.787779296875,0.797018826007843,-7.747155666351318,-4.79964542388916
1667710025337829400,11.797829345703125,1.5468940734863281,-5.670193195343018,-4.592947483062744
1667710025347880400,11.80788037109375,2.0117976665496826,-2.5908095836639404,-3.455199718475342
1667710025357931300,11.81793115234375,1.7755444049835205,-0.537506639957428,-2.3972604274749756
1667710025367982300,11.827982421875,1.5091041326522827,0.06527816504240036,-2.064695119857788
1667710025378032000,11.8380322265625,1.6797038316726685,0.008300636895000935,-2.131943941116333
1667710025388083200,11.848083251953126,2.281135320663452,-0.19767016172409058,-1.907957911491394
1667710025398134300,11.85813427734375,2.633117198944092,0.19502970576286316,-1.4621455669403076
1667710025408185300,11.868185302734375,2.2592358589172363,1.28078031539917,-1.0351868867874146
1667710025418235400,11.8782353515625,1.5020432472229004,2.2856781482696533,-0.7392878532409668
1667710025428286200,11.8882861328125,0.6282855868339539,2.444705009460449,-0.5631003379821777
1667710025438337300,11.898337158203125,-0.13436861336231232,2.261228322982788,-0.2747665345668793
1667710025448388400,11.908388427734375,-0.8369311094284058,2.510855197906494,0.20456790924072266
1667710025458438100,11.918438232421876,-1.4881759881973267,2.7731435298919678,0.6940252184867859
1667710025468489200,11.9284892578125,-2.0455832481384277,2.3162899017333984,1.1530084609985352
1667710025478540300,11.938540283203125,-2.4053452014923096,0.9993090033531189,1.6987268924713135
1667710025488591000,11.948591064453124,-2.6946487426757812,-0.689423143863678,2.1630568504333496
1667710025498641200,11.95864111328125,-3.001227617263794,-2.0745038986206055,2.5251855850219727
1667710025508692200,11.968692138671875,-3.250781297683716,-2.7342894077301025,2.6273739337921143
1667710025518743300,11.978743408203124,-3.26979660987854,-2.1341209411621094,2.2682323455810547
1667710025528794400,11.98879443359375,-2.961644172668457,-0.9456509947776794,1.7821965217590332
1667710025538844400,11.998844482421875,-2.638200044631958,0.3287152647972107,1.4696998596191406
1667710025548895200,12.008895263671874,-2.237417221069336,1.889920949935913,1.2137647867202759
1667710025558946300,12.0189462890625,-1.4728398323059082,3.4621686935424805,0.5829112529754639
1667710025568997400,12.028997314453125,0.05689799040555954,2.6212024688720703,-0.5261271595954895
1667710025579047200,12.039047119140625,2.1638758182525635,-1.428307294845581,-1.3047475814819336
1667710025589098200,12.04909814453125,3.3675992488861084,-3.754802942276001,-1.164363980293274
1667710025599149300,12.0591494140625,3.3035128116607666,-2.3063883781433105,-0.7054264545440674
1667710025609200000,12.0692001953125,2.4536378383636475,0.6982553601264954,0.006475587375462055
1667710025619250200,12.079250244140624,2.0326175689697266,-0.14759470522403717,0.7475552558898926
1667710025629301200,12.08930126953125,1.5415772199630737,-4.609231948852539,-0.45751136541366577
1667710025639352300,12.099352294921875,0.9354382753372192,-6.908172130584717,-3.188539981842041
1667710025649403400,12.1094033203125,-0.24315211176872253,-5.957005500793457,-4.272158622741699
1667710025659453400,12.119453369140626,-0.8772981762886047,-2.343764066696167,-2.938896656036377
1667710025669504300,12.129504150390625,-0.35424038767814636,1.1900348663330078,-0.6972396373748779
1667710025679555000,12.13955517578125,-0.20436275005340576,0.6614983677864075,0.354743093252182
1667710025689606100,12.149606201171874,-0.3905967175960541,0.48802247643470764,1.2934436798095703
1667710025699656200,12.15965625,-0.8669728636741638,1.4314340353012085,2.507871389389038
1667710025709707300,12.169707275390625,-1.405221700668335,2.1080141067504883,3.8509089946746826
1667710025719758300,12.17975830078125,-1.8622806072235107,2.5388824939727783,5.0017266273498535
1667710025729809400,12.189809326171876,-2.0908377170562744,3.0401463508605957,5.288480281829834
1667710025739859500,12.199859375,-2.482861280441284,3.892634153366089,5.108122825622559
1667710025749910300,12.20991015625,-3.230311870574951,4.546197414398193,4.34954833984375
1667710025759961300,12.21996142578125,-3.6947851181030273,4.903690338134766,4.334314823150635
1667710025770012400,12.230012451171875,-2.979174852371216,3.952194929122925,5.5041937828063965
1667710025780062200,12.240062255859375,-1.4557271003723145,2.6369969844818115,4.9403076171875
1667710025790113300,12.25011328125,-0.5082160234451294,2.1025876998901367,3.7318835258483887
1667710025800164000,12.2601640625,-0.22606822848320007,1.5335431098937988,3.508317232131958
1667710025810215200,12.270215087890625,-0.43995222449302673,0.2823961675167084,4.012116432189941
1667710025820265200,12.28026513671875,-0.9274454712867737,-0.2552608847618103,4.113094806671143
1667710025830316300,12.29031640625,-1.5406941175460815,-0.26442670822143555,3.562382936477661
1667710025840367400,12.300367431640625,-1.8144185543060303,-1.2138252258300781,3.047874927520752
1667710025850418400,12.31041845703125,-1.4848413467407227,-2.8430702686309814,2.523479461669922
1667710025860468500,12.320468505859376,-1.1639853715896606,-3.7647159099578857,2.1008572578430176
1667710025870519000,12.33051904296875,-1.2307167053222656,-3.8402063846588135,1.8376902341842651
1667710025880570000,12.340570068359375,-1.433215856552124,-3.4957213401794434,1.4235687255859375
1667710025890620200,12.3506201171875,-1.3915910720825195,-3.002246379852295,0.5223199129104614
1667710025900671200,12.360671142578125,-0.947572648525238,-2.5055575370788574,-0.5422585010528564
1667710025910722300,12.370722412109375,-0.297014445066452,-2.149966239929199,-1.3281488418579102
1667710025920773400,12.3807734375,0.47900593280792236,-1.7281957864761353,-1.617468237876892
1667710025930823400,12.390823486328125,1.368125557899475,-0.7630112171173096,-1.387204885482788
1667710025940874200,12.400874267578125,2.2008368968963623,0.5956733822822571,-1.0966640710830688
1667710025950925300,12.41092529296875,2.9255411624908447,1.5059714317321777,-1.3033636808395386
1667710025960976400,12.420976318359376,3.7250442504882812,1.4174500703811646,-2.0304524898529053
1667710025971026200,12.431026123046875,3.8491692543029785,1.1581543684005737,-2.7779927253723145
1667710025981077200,12.4410771484375,2.954298973083496,1.6065406799316406,-3.018685817718506
1667710025991128300,12.45112841796875,1.809924840927124,2.9955923557281494,-2.77205228805542
1667710026001179100,12.46117919921875,1.283215045928955,4.551039695739746,-2.437910556793213
1667710026011229200,12.471229248046875,1.423123836517334,5.459618091583252,-2.509942054748535
1667710026021280300,12.4812802734375,1.683829426765442,5.395430564880371,-3.2281951904296875
1667710026031331300,12.491331298828126,1.9842609167099,5.141599178314209,-3.737210273742676
1667710026041382400,12.50138232421875,2.1869125366210938,3.885305643081665,-4.117560386657715
1667710026051432400,12.511432373046874,2.336491346359253,1.0816009044647217,-4.466304779052734
1667710026061483300,12.521483154296876,2.0920543670654297,-2.7147490978240967,-4.635189056396484
1667710026071534000,12.5315341796875,1.3772767782211304,-6.272653102874756,-4.844038963317871
1667710026081585200,12.541585205078125,0.994894802570343,-7.794943809509277,-5.050798416137695
1667710026091635200,12.55163525390625,1.3897032737731934,-6.249297618865967,-5.07116174697876
1667710026101686300,12.561686279296875,1.9058595895767212,-3.1274921894073486,-4.145411491394043
1667710026111737300,12.5717373046875,2.070425510406494,-0.874522864818573,-2.9165971279144287
1667710026121788200,12.5817880859375,2.0204358100891113,-0.24550792574882507,-2.3225181102752686
1667710026131838200,12.591838134765625,2.0371243953704834,-0.45183536410331726,-2.184619665145874
1667710026141889300,12.60188916015625,2.2344894409179688,-0.3592574894428253,-1.8989182710647583
1667710026151940400,12.6119404296875,2.3394112586975098,0.29390034079551697,-1.481117844581604
1667710026161991400,12.621991455078126,1.8388148546218872,1.435455560684204,-1.0585682392120361
1667710026172041200,12.632041259765625,1.056683897972107,2.259786605834961,-0.7381768822669983
1667710026182092300,12.64209228515625,0.35313349962234497,2.028475522994995,-0.4947115480899811
1667710026192143000,12.65214306640625,-0.29028651118278503,1.6194466352462769,-0.14579753577709198
1667710026202194200,12.662194091796875,-0.9530988335609436,1.8933604955673218,0.3692229390144348
1667710026212244200,12.672244140625,-1.6433793306350708,1.963929533958435,0.9334768652915955
1667710026222295300,12.68229541015625,-2.291152000427246,1.0025885105133057,1.5034446716308594
1667710026232346400,12.692346435546876,-2.819427251815796,-0.7279038429260254,2.2098641395568848
