time,seconds_elapsed,z,y,x
1667776595279021800,0.019021728515625,0.568241201493144,0.16970190214514733,0.044550066474825144
1667776595289072600,0.02907275390625,0.7415279763877392,0.0442784099265933,0.7434304490081965
1667776595299124700,0.039124755859375,0.684873192229867,-0.36950609708726406,1.1386311054527758
1667776595309175800,0.04917578125,0.4784861117660999,-0.7586714188903569,1.08100396913141
1667776595319227600,0.0592275390625,0.33342589892446994,-0.9529220713585614,1.095620231243968
1667776595329278700,0.06927880859375,-0.13022212467193603,-0.6470794681474566,1.448710615581274
1667776595339329800,0.079329833984375,-0.9697387661248444,-0.4055690518543124,1.3937569362528621
1667776595349381600,0.089381591796875,-1.6005395919054746,-0.7377227388858795,0.6535156386747956
1667776595359432700,0.0994326171875,-2.224164826968312,-0.4813815409466624,0.8097697379648685
1667776595369484500,0.109484619140625,-2.3379905281126496,-0.18839140504598617,1.3545923622086644
1667776595379535600,0.11953564453125,-1.7961147709757088,-0.32005671426355836,1.3093950838714836
1667776595389588000,0.129587890625,-0.8724047655761241,0.10630115085840225,0.829366126577556
1667776595399638500,0.139638427734375,-0.30778935336470603,1.3682833261698484,0.10539368062466382
1667776595409689600,0.149689697265625,-0.7255828037589788,2.297754963836074,-0.8952031651005148
1667776595419742000,0.159741943359375,-2.233477429714799,1.5242369812086223,-1.400921274924278
1667776595429792800,0.169792724609375,-2.8530951827019453,-0.15140578247606754,-0.7118012389048933
1667776595439844900,0.179844970703125,-2.5425521467149257,-1.7586457488030194,0.4037637559980154
1667776595449896000,0.18989599609375,-2.439789691376686,-2.9084949983626602,1.4388701895684004
1667776595459947800,0.19994775390625,-1.5349462990105152,-3.211825034230947,2.094295168995857
1667776595469998800,0.209998779296875,-0.018182722422480584,-2.2450705446138977,2.003592861546576
1667776595480050000,0.2200498046875,0.7547726578861474,-2.1878370837852357,2.312879467731714
1667776595490101800,0.230101806640625,1.1570014594018458,-1.8233666427776216,2.3304206773802636
1667776595500152800,0.24015283203125,1.0723545064687727,-0.7649082674533129,2.090086026868224
1667776595510204700,0.25020458984375,0.0730547148168087,-0.49344636501073835,1.998296216443181
1667776595520255700,0.260255859375,-0.6039034665048122,-0.4055675905495882,1.5283303880020975
1667776595530307800,0.270307861328125,-1.1272528023481367,-0.26890052752196786,0.1672337584659457
1667776595540358700,0.280358642578125,-1.3724872076004744,0.07567161931693553,-0.4070847171142697
1667776595550409700,0.29040966796875,-1.0467641381382942,0.6413900243341922,-0.30333208169490095
1667776595560461800,0.3004619140625,-0.9511533081203698,0.7520894101515412,-0.5852990115389227
1667776595570513000,0.310512939453125,-0.5910644431978463,0.30265082143247124,-0.7842994888827204
1667776595580564700,0.320564697265625,0.3086076840102672,-0.11906447858065367,-0.657035921755433
1667776595590615800,0.33061572265625,1.0722691662728785,-0.004423077139258384,-0.1941851860165596
1667776595600667600,0.340667724609375,0.16608663425743578,0.2458221420124173,0.6162788178227842
1667776595610718700,0.35071875,0.39872926896214483,0.2716328750953078,1.6398907745629547
1667776595620770800,0.360770751953125,1.966672997689247,0.7895742144152521,1.927437696496397
1667776595630821600,0.370821533203125,1.8890578430891036,0.9423638524651526,1.7338314794115721
1667776595640872700,0.380872802734375,1.5185697492271661,1.017543304350972,1.9974029208652675
1667776595650924800,0.3909248046875,0.7605828054696321,1.56197985188663,2.181379578208923
1667776595660975600,0.4009755859375,-0.12469079402983188,1.8216244752854107,1.9737407441183923
1667776595671027700,0.41102783203125,-0.9518664248257875,1.576073259168863,1.372770262325555
1667776595681078800,0.421078857421875,-1.74034904461205,1.1834177571624516,-0.7161939209058881
1667776595691131000,0.431130859375,-0.9682137485146523,0.9819523510098457,-2.49862298861742
1667776595701181700,0.441181640625,0.3211141143620014,1.1518851393014191,-2.9193524924635885
1667776595711232800,0.451232666015625,2.0707225702285768,1.624979913417995,-0.9321510860085487
1667776595721284900,0.461284912109375,3.433689085289836,1.990618229161203,2.549681560203433
1667776595731336000,0.4713359375,2.8683541266322132,1.8060040045663712,0.532039057451114
1667776595741387800,0.4813876953125,4.091301930150389,1.855002136491239,0.7215706455081701
1667776595751438800,0.49143896484375,4.606818672671914,2.0993287792488933,2.054982564783096
1667776595761491000,0.501490966796875,3.430760630622506,1.8279764746606348,-0.8130226022809743
1667776595771541800,0.511541748046875,2.7694226277589795,1.144886074194312,-2.5810572339370843
1667776595781592800,0.5215927734375,-0.09067571170330047,-0.36768764948844906,-5.8634764380902045
1667776595791645000,0.53164501953125,-0.335835298153758,-0.08253332177996635,-6.166501938053965
1667776595801695700,0.54169580078125,2.582545134407282,2.4380916552871463,0.6094925186835229
1667776595811747800,0.551747802734375,3.9210716202169653,3.3209353972911835,3.972054203957319
1667776595821799000,0.561798828125,4.414290021690726,3.468271153849363,5.754367828595638
1667776595831850800,0.571850830078125,4.512702465125918,1.3078536996483803,5.3182618919193745
1667776595841901800,0.58190185546875,3.126475485986471,-0.5311532875925302,3.7118279812783
1667776595851953700,0.59195361328125,0.5598819539487362,-0.7792202859222889,2.022153915762156
1667776595862004700,0.602004638671875,-0.32752515044808383,-0.10505202758014201,1.5587243572220206
1667776595872055800,0.612055908203125,0.18622692048847675,0.32668811510205265,1.5324052362255751
1667776595882107600,0.622107666015625,-1.1942553775191307,-0.7384983994334936,-0.7797960399836301
1667776595892158700,0.63215869140625,0.4527355844378471,-2.0787983246564865,-0.19346140178665516
1667776595902210800,0.6422109375,1.3599357690632343,-1.9678002481535075,-0.7879118341609835
1667776595912261600,0.65226171875,0.39690029996931553,-1.5834470028072594,-2.939830047824979
1667776595922313700,0.662313720703125,-1.0007663570731877,-0.5601476191475987,-2.1654037181809542
1667776595932364800,0.67236474609375,-0.9973387207120656,0.032583588218688966,0.5221650944948196
1667776595942415600,0.68241552734375,-1.8164175542920826,-0.13673954374194144,0.8294478135116398
1667776595952467700,0.6924677734375,-2.1086340754717585,-0.6567743482097983,0.396045144444704
1667776595962519300,0.702519287109375,-1.9109008415848017,-1.110720769742131,0.43503275448679923
1667776595972571400,0.7125712890625,-1.6169149726450442,-1.4662150003507732,0.0334412279613316
1667776595982622500,0.72262255859375,-1.5064444271475075,-1.4044590936616062,-0.731597241742909
1667776595992674300,0.73267431640625,-1.7790975852012634,-0.8438084934279322,-1.233317221841216
1667776596002725400,0.742725341796875,-2.4221026435166597,-0.5044340613625944,-1.872583385889232
1667776596012777200,0.752777099609375,-3.1228830144524573,-0.35162031178474423,-2.4609756872683763
1667776596022828300,0.762828369140625,-3.381164532804489,-0.24453867807313798,-2.6190716150328517
1667776596032879400,0.77287939453125,-3.503309734004736,-0.26021950067728755,-2.645144213922322
1667776596042931200,0.78293115234375,-3.6566105364471673,-0.3155329532288015,-2.783668887515366
1667776596052982300,0.792982177734375,-3.7263387371897694,-0.3170845665849745,-3.401651440516114
1667776596063034400,0.803034423828125,-3.943551747572422,-0.1184160246092826,-4.081835598146915
1667776596073085200,0.813085205078125,-4.058784977427124,0.18079722358994185,-4.350575089888275
1667776596083137300,0.82313720703125,-4.085091385072469,0.37243681677691637,-4.561079834803938
1667776596093188400,0.833188232421875,-3.815475987279415,0.4149149723485112,-4.632131100843846
1667776596103239400,0.843239501953125,-2.8619869296878573,0.3260955560363829,-4.53005312063843
1667776596113291500,0.85329150390625,-1.7142349446684122,0.40252077019959687,-4.126785039202868
1667776596123342300,0.86334228515625,-2.52258838609457,0.5051622295066714,-3.7186753629550338
1667776596133394400,0.87339453125,-2.3935844050407407,0.34392902662977576,-4.052871953991056
1667776596143445500,0.883445556640625,-2.2323832047373053,0.25846366998590525,-3.8717806428253647
1667776596153497300,0.893497314453125,-2.147407165980339,0.3001080781470984,-3.1756480976954102
1667776596163548400,0.90354833984375,-1.836165626335144,0.2813793392144143,-2.607750302812457
1667776596173599500,0.913599609375,-1.566440922948718,0.17112777022980152,-2.442760523881018
1667776596183651300,0.9236513671875,-1.3338620011299849,0.002788461674749851,-2.591860659763217
1667776596193702400,0.933702392578125,-0.8109487186163663,-0.1488361511837691,-2.9130305959656835
1667776596203754500,0.94375439453125,-0.017473112848401067,-0.17538637752234934,-3.1332594470381734
1667776596213805300,0.953805419921875,0.4941197342276573,-0.21135449361279607,-3.2212966269314287
1667776596223857400,0.963857421875,0.8599632171541451,-0.3178717714399099,-3.163913820759952
1667776596233908500,0.973908447265625,1.196949438908696,-0.4603627913806587,-2.8959277777343986
1667776596243960300,0.983960205078125,1.4118348831266163,-0.5332916147954762,-2.6473122056111693
1667776596254011400,0.994011474609375,1.495705006468296,-0.5712367300473153,-2.5546768842726943
1667776596264062500,1.0040625,1.4840589923381804,-0.5482455844298004,-2.4335795846901833
1667776596274114300,1.0141142578125,1.387611126974225,-0.43742344901561736,-2.2925813605904577
1667776596284165400,1.024165283203125,1.1478156979054213,-0.3387299966819584,-2.314721442336589
1667776596294217500,1.034217529296875,0.8786188177853822,-0.23013518192842602,-2.384881312494725
1667776596304268300,1.044268310546875,0.766496997949481,-0.1843776393599808,-2.1908098159857095
1667776596314320400,1.0543203125,0.6857686797648668,-0.19082447741180658,-1.961866035798937
1667776596324371500,1.064371337890625,0.6685515875041484,-0.24684987762495875,-2.042104963031411
1667776596334422300,1.07442236328125,0.7054986316293478,-0.25734073037058114,-2.052526257672161
1667776596344474400,1.084474365234375,0.7786153057664632,-0.3115225485436618,-1.7495767455540596
1667776596354525400,1.094525390625,0.8540911102503538,-0.413285325320065,-1.4780366633087396
1667776596364577300,1.104577392578125,0.918093919083476,-0.45240722926631566,-1.20673316629827
1667776596374628400,1.11462841796875,1.0866805534631012,-0.5257958522126078,-0.7811495004191994
1667776596384680200,1.12468017578125,1.2562819178432225,-0.5791815515719354,-0.2928560977248475
1667776596394731300,1.134731201171875,1.3490747678309678,-0.5082698401331901,0.0126727633619681
1667776596404783400,1.144783447265625,1.2642267393678426,-0.3457099186971783,0.048340307336952534
1667776596414834400,1.15483447265625,1.0329624072790144,-0.13957389038503168,-0.1778575534088537
1667776596424885200,1.16488525390625,0.798955498483777,0.13358137197196482,-0.2273320706738159
1667776596434937600,1.1749375,0.5522399147629737,0.43721477470099923,-0.28933932177554816
1667776596444988400,1.184988525390625,0.3675216452717781,0.6020119536697864,-0.4437412538602948
1667776596455040500,1.19504052734375,-0.02823942153453827,0.6294947116181254,-0.7343094233110546
1667776596465091600,1.205091552734375,0.22517536756396292,0.623878040780127,-0.14838884580768644
1667776596475143400,1.215143310546875,0.32567923032045365,0.5678413885205984,0.5083517462629824
1667776596485194500,1.225194580078125,0.2646335177272558,0.03485445576012134,0.5950108427360653
1667776596495246300,1.235246337890625,0.6752186441779137,-0.3925169703185558,0.8534869338121265
1667776596505297400,1.24529736328125,0.6916589068472385,-0.44939737992584705,1.3261439740985632
1667776596515348500,1.255348388671875,0.4401759625941515,-0.7062026882454753,1.5561584522567689
1667776596525400300,1.265400390625,0.11459668551683425,-1.030356024172902,1.6246492201589047
1667776596535451400,1.275451416015625,-0.38526013105809687,-1.1305167725801468,1.9076354100480675
1667776596545503500,1.28550341796875,-1.5957833372890948,-1.0336696787655353,2.3706616484843193
1667776596555554300,1.29555419921875,-2.999471738839149,-1.2509557543843983,2.7692601306736466
1667776596565606400,1.3056064453125,-2.6917507745355365,-1.7581170487537978,3.285336845165491
1667776596575657500,1.315657470703125,-2.7021482499092815,-1.517669000995159,3.828348328334093
1667776596585708300,1.325708251953125,-3.2365216685920952,-0.9384703521579504,3.767873401366174
1667776596595760400,1.335760498046875,-3.2484535139262674,-0.7573337405458093,3.5271631955400107
1667776596605811500,1.3458115234375,-3.3401831185966726,-0.5632780261278152,3.2655589625060557
1667776596615863300,1.35586328125,-3.3474943183928727,-0.16995733821094036,2.9209166730403897
1667776596625914400,1.365914306640625,-3.1570775449991224,0.23450462918430565,2.6891215950757266
1667776596635966200,1.37596630859375,-2.875370727396011,0.6019952947959304,2.5343495510369536
1667776596646017300,1.386017333984375,-2.383264671078324,0.9106117466345429,2.3470567548826335
1667776596656069400,1.3960693359375,-1.7699357891023157,1.1232628559291362,2.077877556549758
1667776596666120200,1.4061201171875,-1.1250748737871645,1.225827450607717,1.7921926290959118
1667776596676171300,1.416171142578125,-0.4297650432169437,1.2355743531182408,1.4974506810918449
1667776596686223600,1.4262236328125,0.2815343836456537,1.1884756250739097,1.1909153463762252
1667776596696274200,1.436274169921875,0.7782756985485554,1.1769281028822063,0.7677418834440409
1667776596706326500,1.446326416015625,1.0018640891820192,1.2549743423759936,0.25389322026520966
1667776596716377600,1.456377685546875,1.1589070007622242,1.3075152614742516,-0.23333529314398765
1667776596726429400,1.466429443359375,1.3910802643895148,1.3268158820107578,-0.6940696212507784
1667776596736480500,1.47648046875,1.6349474729418754,1.3641960568562148,-0.9982855000428855
1667776596746531600,1.486531494140625,1.7880851937770843,1.3572291404530406,-1.1155937826059759
1667776596756583400,1.49658349609375,1.7168080100268124,1.2562275573074817,-1.156326044358313
1667776596766634500,1.506634521484375,1.344734692800045,1.0586281789332628,-0.929809052927047
1667776596776686300,1.516686279296875,0.8107564109146594,0.9276607888519763,-0.5837601115338504
1667776596786737400,1.5267373046875,0.21669980016350746,0.9412135133862495,-0.22420623027086256
1667776596796789500,1.53678955078125,-0.3141033588171005,0.963435866588354,-0.1251695174574852
1667776596806840300,1.54684033203125,-0.5305068063825369,0.8577221602290869,-0.23205343663990496
1667776596816892400,1.556892333984375,-0.6020470249831676,0.7866288086131215,-0.2413125556334853
1667776596826943500,1.566943603515625,-0.829798965036869,0.7809086774006485,-0.2893275217399001
1667776596836994300,1.576994384765625,-1.2754372846901416,0.8199082701414823,-0.37444793740361926
1667776596847046400,1.58704638671875,-1.5475848313093183,0.8249354506537317,-0.31298312261551614
1667776596857097500,1.597097412109375,-1.5814514450758694,0.7400535199210048,-0.08447685706317425
1667776596867149300,1.6071494140625,-1.693367513206601,0.724038204665482,0.21906536025106907
1667776596877200400,1.617200439453125,-1.785176028332114,0.7264902739927173,0.490804326069355
1667776596887252200,1.627252197265625,-1.7667133199244736,0.794080293662846,0.7238800914943218
1667776596897303300,1.63730322265625,-2.033237181442976,1.014100762681663,1.1083160466879605
1667776596907355400,1.64735546875,-2.6833564556777474,1.375393742696941,1.6288769208565352
1667776596917406200,1.65740625,-3.395899160599708,1.6978429050549864,2.235883029551804
1667776596927457300,1.667457275390625,-3.6290643578737973,1.9246032037228344,2.9695225907772778
1667776596937509400,1.67750927734375,-3.481091472455859,2.100216960260272,3.537503972290456
1667776596947560200,1.687560302734375,-3.024202275469899,2.0937980331286785,3.786811033809185
1667776596957611800,1.69761181640625,-2.4654414345055815,2.036741390171647,3.851220962138474
1667776596967662800,1.707662841796875,-2.0009061066806315,2.0192592172339556,3.9928728278413415
1667776596977714700,1.717714599609375,-1.465376503700018,1.9587609093904494,4.228539194281399
1667776596987765800,1.727765869140625,-0.8135323053687811,1.8432091151058674,4.262559829565882
1667776596997816800,1.73781689453125,-0.04298281715810299,1.6210691697150468,4.041540997159481
1667776597007868700,1.74786865234375,0.8241092289626598,1.2854513137042523,3.597298223517835
1667776597017919700,1.757919677734375,1.6673516129404304,0.86177260466367,3.1636399722546336
1667776597027971800,1.767971923828125,1.9786247167676687,0.4550418155536055,2.791347459319234
1667776597038022700,1.778022705078125,1.9675655626147985,0.11021890882402657,2.5151059213846922
1667776597048075000,1.788074951171875,2.0980331864804027,-0.12346154449582099,2.248606463655084
1667776597058125800,1.798125732421875,2.2635434821546077,-0.3309358356744051,1.8588392304360866
1667776597068178000,1.808177978515625,2.4360808999866244,-0.5193573435977101,1.4988526568442582
1667776597078229000,1.81822900390625,2.4613556264966725,-0.6191814073964953,1.254306233856082
1667776597088280000,1.828280029296875,2.267815168124437,-0.626401421777904,1.0588700248651206
1667776597098332000,1.838331787109375,1.9757710809022186,-0.5373983194619417,0.7857340517304837
1667776597108383000,1.848383056640625,1.638430054360628,-0.3120531482890248,0.5782074458427727
1667776597118434800,1.858434814453125,1.234676819756627,-0.01858808835297823,0.33979835656583307
1667776597128486000,1.86848583984375,0.7749503535181284,0.21719883572682738,-0.2267136830471456
1667776597138538000,1.8785380859375,0.3484019342601299,0.27257760859951374,-0.7376544959552586
1667776597148588800,1.8885888671875,0.08222937039732933,0.16534443758800624,-0.8874908371575176
1667776597158641000,1.898640869140625,-0.011432663640379905,-0.027662060038000345,-0.6206758837379515
1667776597168692000,1.90869189453125,0.09584463877379894,-0.31772754066362974,-0.09685454646870494
1667776597178742800,1.91874267578125,0.3079430826216936,-0.670666533831507,0.49958837489709257
1667776597188795000,1.928794921875,0.52647243629992,-0.9181390733994543,0.8552456871129572
1667776597198846000,1.938845947265625,0.7230190907508134,-0.9426029219180345,0.8339905715078115
1667776597208897800,1.948897705078125,0.8463537939965724,-0.866090906254202,0.630725568587333
1667776597218948900,1.958948974609375,0.8365934474825859,-0.7914433692879974,0.334691242685169
1667776597229000700,1.969000732421875,0.5966600712478161,-0.615435206605494,0.012547931405901908
1667776597239051800,1.9790517578125,0.35797348020374775,-0.2973513998501003,-0.3140118811413646
1667776597249102800,1.989102783203125,0.30855449251830575,-0.028380583570897577,-0.6556181639119982
1667776597259154700,1.99915478515625,0.4775660743117332,0.08701923502236604,-0.9234409791998565
1667776597269205800,2.009205810546875,0.7231161213845014,0.15126505883112548,-1.0374807614862918
1667776597279257900,2.0192578125,0.9766782099992036,0.2102314809322357,-1.214099530347809
1667776597289308700,2.02930859375,1.206283668965101,0.2606593533992767,-1.3140760812945662
1667776597299360800,2.03936083984375,1.2141373050749302,0.23151246163100003,-1.2660716365821658
1667776597309411800,2.049411865234375,1.1216402231633662,0.15387991750463842,-1.1894824640288948
1667776597319463700,2.059463623046875,1.096729653790593,0.11719985375255346,-1.1794614938173442
1667776597329514800,2.0695146484375,1.2132897483348846,0.13649448293969035,-1.1941568125154822
1667776597339565800,2.07956591796875,1.408846222704649,0.14320377131998538,-1.01335535114184
1667776597349618000,2.089617919921875,1.5258224968343972,0.08343933070898056,-0.7473556596279144
1667776597359668700,2.099668701171875,1.4838707762897014,-0.05263897264525294,-0.5749648106597364
1667776597369720800,2.109720947265625,1.4981167437851428,-0.18095526369586587,-0.49215091837272046
1667776597379772000,2.11977197265625,1.5028823507517575,-0.2055165812395513,-0.42373522500079125
1667776597389824000,2.129823974609375,1.3751391834139823,-0.13200301673933862,-0.47077005749605594
1667776597399874800,2.139874755859375,1.2242431040257216,0.013921119455248116,-0.6234194833576678
1667776597409927000,2.149927001953125,0.9547726676613092,0.26865458993688224,-0.6908906989537179
1667776597419978000,2.15997802734375,0.45735330736637114,0.5995002631098032,-0.7572090912528335
1667776597430028800,2.17002880859375,0.0402764808088541,0.8932935320869088,-0.8024537158630788
1667776597440081000,2.180080810546875,0.15006664282679558,1.002731811927259,-0.7553430051200092
1667776597450132000,2.190132080078125,0.8358686403393745,0.8745692501336335,-0.7682733599722384
1667776597460183800,2.200183837890625,1.723687248146534,0.5997200433403254,-0.8622929752759635
1667776597470235000,2.21023486328125,2.3860317977041006,0.2684291106179356,-0.9523947595488279
1667776597480286700,2.22028662109375,2.691106631413102,-0.03477262269556522,-0.8801307567182928
1667776597490337800,2.230337890625,2.4210528422027826,-0.3853039701998234,-0.579313434323296
1667776597500388900,2.240388916015625,1.960315153095126,-0.5340022472828626,-0.5530906863734125
1667776597510440700,2.250440673828125,1.394914727985859,-0.3950672393232584,-0.40235951522327956
1667776597520491800,2.26049169921875,0.2869651765227318,-0.1921685854971409,0.31566717406772077
1667776597530543900,2.2705439453125,-0.8897913691848516,-0.05590133544206619,0.9135923698805272
1667776597540595000,2.280594970703125,-1.8585878860235212,-0.03251490689665079,1.242310675635934
1667776597550646800,2.290646728515625,-2.2968992237895725,0.2436801615476608,1.261866439977288
1667776597560697900,2.30069775390625,-2.2270319068372246,0.660652358686924,0.9218016144949942
1667776597570749700,2.310749755859375,-2.0051222630709407,0.9644003277063369,0.5098595935426652
1667776597580800800,2.32080078125,-1.6661393145412207,1.10951986951977,0.07794993951246142
1667776597590851800,2.330851806640625,-1.2139905900806187,1.1330445374920963,-0.30964133790694176
1667776597600903700,2.340903564453125,-0.5248994878947735,1.15908235732913,-0.6554622426979243
1667776597610954800,2.350954833984375,0.1760077242910862,1.2072025373756885,-0.7824790685225278
1667776597621006800,2.3610068359375,0.699412589713931,1.2776195971652864,-0.6288992299430072
1667776597631057700,2.3710576171875,0.4557973100960254,1.1747200714439152,0.623985812003538
1667776597641110000,2.381110107421875,0.4866483754336834,0.7633277202636003,-0.08458974285311996
1667776597651160800,2.391160888671875,-0.8649661400079727,1.0227119391605257,-0.6739722973786294
1667776597661213000,2.401212890625,-0.5223293451458215,1.4448027944877744,-0.4417077752713114
1667776597671264000,2.411263916015625,0.43591655158400533,1.3788517741963267,-0.2774552976384759
1667776597681315000,2.421315185546875,0.6083569387823343,1.1122267903909087,-0.23442951812148094
1667776597691367000,2.431366943359375,0.8644874165803194,0.8912269549459219,-0.09113302701674401
1667776597701418000,2.44141796875,1.2146961080014704,0.7876289255663752,-0.11554762956611811
1667776597711469800,2.4514697265625,1.5843015738099813,0.6211807645201682,0.06900909268781542
1667776597721521000,2.46152099609375,1.6386971808642148,0.41092239558100696,0.1917947837486863
1667776597731573000,2.471572998046875,1.424082954803109,0.31579584194868804,-0.028166940820217132
1667776597741623800,2.481623779296875,1.164045532694459,0.2994990794032812,-0.22330798452319575
1667776597751676000,2.491676025390625,0.9234984084755181,0.3481087965324521,-0.5045525731757283
1667776597761727000,2.50172705078125,0.8841349508583545,0.46885757493823765,-0.923312238253653
1667776597771777800,2.51177783203125,1.0098030654877423,0.4908025725036859,-1.1438353230323641
1667776597781830000,2.521829833984375,1.2285393399149178,0.3541778873130679,-1.0244279492981732
1667776597791881000,2.531880859375,1.4089227950721979,0.1722624002829194,-0.9748194303900003
1667776597801932800,2.541932861328125,1.430190624028444,0.12113485511392354,-0.9538770339958369
1667776597811984000,2.55198388671875,1.219467560186982,-0.017010171511769295,-0.8086836962938309
1667776597822035700,2.56203564453125,0.7323492291539907,-0.3044549482449889,-0.6013651801988482
1667776597832086800,2.572086669921875,0.18471885401308535,-0.42597588006705045,-0.47596134252883493
1667776597842139000,2.582138916015625,-0.34382980403900143,-0.27826515271663665,-0.5599779616691172
1667776597852189700,2.592189697265625,-0.7511544673889875,-0.02769903104752302,-0.8149863035693764
1667776597862240800,2.60224072265625,-1.1388374416798352,0.18303718453645706,-0.945171895623207
1667776597872292900,2.61229296875,-1.2443687772095202,0.26426117728352544,-1.0601461092155426
1667776597882343700,2.62234375,-1.0094482607007027,0.38518151286393404,-1.109684412431717
1667776597892395800,2.632395751953125,-0.4285854780435562,0.5421776626929641,-1.1435432812832296
1667776597902446800,2.64244677734375,0.13929799605309962,0.23830109885782003,-1.1618991683155298
1667776597912499000,2.6524990234375,0.4043324957966804,-0.01606616865992546,-0.8468276951186359
1667776597922550000,2.662550048828125,0.30946926927566526,-0.19066344163119792,-0.22748883213810622
1667776597932600800,2.672600830078125,-0.1856885758280754,-0.5605059310659766,-0.017327932224050165
1667776597942653000,2.68265283203125,-0.3473568091213703,-0.8221127944484352,0.005621420078352093
1667776597952704000,2.6927041015625,-0.26652210795283315,-0.7860799425587057,-0.1522954247921705
1667776597962755800,2.702755859375,-0.1719552340298891,-0.6487625989288092,-0.3000062252078205
1667776597972807000,2.712806884765625,0.1308113227367401,-0.5003025145158171,-0.5077704392436891
1667776597982859000,2.72285888671875,0.4239268385827541,-0.36118659703135486,-0.7468493906062096
1667776597992909800,2.732909912109375,0.41714521561861034,-0.3071034169271588,-0.7172390460446476
1667776598002962000,2.7429619140625,0.48157355638742444,-0.2728448812335729,-0.7107003649909048
1667776598013013000,2.753012939453125,0.7429074480473995,-0.30953473572731016,-0.9618950668871402
1667776598023063800,2.763063720703125,0.9695908820867538,-0.2990653641611338,-1.1615613877285271
1667776598033116000,2.773115966796875,1.2370008787900209,-0.19113018236011264,-1.2617005818910896
1667776598043167000,2.7831669921875,1.534084713745117,0.0757429309874773,-1.3168790098860859
1667776598053219000,2.793218994140625,1.3707745584636926,0.05262947416454553,-0.8486932697948067
1667776598063270000,2.803269775390625,0.8328466621696948,-0.16581906936243176,-0.8639464415714144
1667776598073322000,2.813322021484375,0.1529880832314491,-0.05461202628389,-0.6780879890691489
1667776598083373000,2.823373046875,-0.059604866135120387,-0.23604177562370895,-0.027583642773237077
1667776598093425200,2.833425048828125,-1.2987521093040704,-0.15771934953704475,-0.4245385407403111
1667776598103476000,2.84347607421875,-1.5547013853162526,0.3314456848926842,-0.5493860597018152
1667776598113528000,2.853528076171875,-1.1692945392638445,0.605440759074688,-0.32099750224500895
1667776598123579100,2.8635791015625,-1.1441992609739302,0.7165097088567912,-0.20828027379922567
1667776598133630000,2.8736298828125,-0.9395108011215925,0.7528224006012082,-0.10838467913419007
1667776598143682000,2.88368212890625,-0.5824748940289021,0.678912530259788,-0.18726941527873275
1667776598153733000,2.893733154296875,-0.30145722773373124,0.4982528885096311,-0.3387508933395147
1667776598163785000,2.903784912109375,-0.033065818777680396,0.3258125013113022,-0.5212967872276902
1667776598173836000,2.9138359375,0.20838146915137767,0.22688158695995805,-0.6974078988280147
1667776598183888000,2.923887939453125,0.3249918325781822,0.17729615666642784,-0.7420956932730972
1667776598193939000,2.93393896484375,0.12771686385273934,0.21319471465200185,-0.7766604453716427
1667776598203990000,2.943989990234375,-0.26829087119102474,0.2877219862394035,-0.9033943626016377
1667776598214041900,2.954041748046875,-0.6139771167516708,0.3780971075609326,-0.9896898133940994
1667776598224093000,2.964093017578125,-0.7605845590353012,0.5395701105430722,-1.0334305362474172
1667776598234145000,2.97414501953125,-0.8323153317719697,0.7095519986733794,-1.0201069442939013
1667776598244195800,2.98419580078125,-0.8759931454569101,0.7879862145714461,-0.8659502556744962
1667776598254248000,2.994248046875,-0.8289151679396629,0.7067348954260348,-0.46232488523386417
1667776598264299000,3.004299072265625,-0.8211386887192725,0.5356709111474454,0.12738821642026305
1667776598274350800,3.014350830078125,-0.6868132203817368,0.3773855982907116,0.41827648467086254
1667776598284402000,3.02440185546875,-0.39796939050555225,0.34836920103430746,0.38380660778153686
1667776598294453000,3.034452880859375,-0.1478121418982744,0.4479990574352443,0.06194960263036191
1667776598304504800,3.0445048828125,-0.16210487114489078,0.589715805067867,-0.19215696812458335
1667776598314556000,3.054555908203125,-0.43935763194859023,0.6183148536950349,-0.3362313847992569
1667776598324608000,3.06460791015625,-0.7204565467864275,0.5673505362637341,-0.4434929051224142
1667776598334658800,3.074658935546875,-0.9088520434856414,0.4537256183885038,-0.3945947995059192
1667776598344711200,3.084711181640625,-0.8560241241395473,0.19228548987507818,-0.2803526995804161
1667776598354762000,3.094761962890625,-0.7384072140187025,0.01602159886583686,-0.10902337889652698
1667776598364814000,3.10481396484375,-0.6231827519923449,-0.02355959315523505,0.04619038102775812
1667776598374865200,3.114865234375,-0.5712994200199842,-0.08183174938187003,0.05088171718176454
1667776598384916000,3.124916015625,-0.5510334615826606,-0.07570084541141986,0.045365657174028455
1667776598394968000,3.134968017578125,-0.4224292935013771,0.042778526757657524,0.08071739493180066
1667776598405019100,3.14501904296875,-0.3507131338119507,0.1631089336208999,0.1284092665636912
1667776598415071000,3.155071044921875,-0.3196025407552719,0.20951149609461425,0.1559435720361769
1667776598425122000,3.1651220703125,-0.2556184366226196,0.285419554515928,0.2727441608054563
1667776598435174000,3.175173828125,-0.21774550982415675,0.3809052968494594,0.4139383824013173
1667776598445225000,3.185224853515625,-0.16978315068781374,0.424375605263561,0.5191690544839949
1667776598455277000,3.195277099609375,-0.16246727471649647,0.48012905666753647,0.6203570270471275
1667776598465327900,3.205327880859375,-0.17015198400020598,0.6148631058059633,0.687885964179784
1667776598475379000,3.21537890625,-0.21903613415658474,0.7215563247218728,0.7011492773134261
1667776598485431000,3.22543115234375,-0.3561468492984772,0.8087006474286317,0.6957962989129126
1667776598495481900,3.23548193359375,-0.4637099829167127,0.8996421704612672,0.6525922402195632
1667776598505534000,3.245533935546875,-0.5294330396711826,0.9276087664037942,0.6395468076203018
1667776598515585000,3.2555849609375,-0.451333316424489,0.9156614312395452,0.756516432813555
1667776598525636900,3.265636962890625,-0.2556628602862358,0.880889831457287,0.7610499845899641
1667776598535688000,3.27568798828125,0.05720891090929508,0.849313374454528,0.7315028414577245
1667776598545739800,3.28573974609375,0.44348260292410846,0.8262493097312748,0.5738724123131483
1667776598555790800,3.295790771484375,0.761245068770647,0.8428408174395561,0.478345095860213
1667776598565842000,3.305842041015625,0.8860083435148001,0.8443005147285759,0.4017171987317502
1667776598575893800,3.315893798828125,0.7907154934048652,0.8196846905186772,0.3829906517561525
1667776598585944800,3.32594482421875,0.5072451732605695,0.8401933716706931,0.43349326995983717
1667776598595997000,3.335996826171875,0.25599896037280556,0.7949448015376925,0.46018538898713884
1667776598606047700,3.3460478515625,0.08584463828504085,0.7554762761108577,0.5002287186272442
1667776598616100000,3.35610009765625,-0.16647417227029798,0.7861145754806697,0.6050801821339875
1667776598626151200,3.366151123046875,-0.4771574935108423,0.7865322163708508,0.8055762317977845
1667776598636203000,3.376203125,-0.7066828729778528,0.7134490061119199,0.8940051874876022
1667776598646254000,3.386254150390625,-0.6574427489906549,0.6569668020419777,0.90912048516348
1667776598656305200,3.39630517578125,-0.31760406041443345,0.5686566504262387,0.9353417718086391
1667776598666357000,3.40635693359375,0.01846913814842701,0.43526919359117744,0.9617322775408625
1667776598676408000,3.416407958984375,0.15333821184337137,0.35780499176904557,0.9080143505524844
1667776598686460000,3.4264599609375,0.12072656657397747,0.3795890996843576,0.9003468115992843
1667776598696511000,3.436510986328125,-0.024991817915439606,0.3359837667137384,0.9127782770186662
1667776598706563000,3.44656298828125,-0.05261690694391727,0.1503612418591976,0.8899499207474291
1667776598716614000,3.45661376953125,-0.06017302141189575,0.04016629843264818,0.905747647729516
1667776598726666000,3.466666015625,-0.1045996076375246,0.05738850525990128,0.9798495335116982
1667776598736717000,3.476717041015625,-0.01900280663371086,-0.06735986417606472,0.9640217036522924
1667776598746769000,3.486768798828125,0.0840776286125183,-0.27058877286985517,0.9166388249043375
1667776598756820000,3.496820068359375,0.0936024128049612,-0.345198608174175,1.0266652068309485
1667776598766871000,3.50687109375,0.041431496062874794,-0.3543246023073792,1.0223121992532163
1667776598776923000,3.5169228515625,-0.012032967621088027,-0.5083060804903506,0.8397386867057531
1667776598786974000,3.526973876953125,-0.04033610204160213,-0.5043706407375633,1.1874619179867207
1667776598797025800,3.53702587890625,0.0025467618733644483,-0.5041515911594033,1.0321600048549473
1667776598807076900,3.547076904296875,0.019159458500146866,-0.3202677266657352,0.9674840460006147
1667776598817129000,3.55712890625,0.28754443771541116,-0.24665333213955162,0.6989046401917934
1667776598827180000,3.567179931640625,0.6575012011796235,-0.28604090128466486,0.6326034182231873
1667776598837231900,3.57723193359375,0.8797790937364101,-0.3000995295144617,0.7038398315716534
1667776598847283000,3.587282958984375,0.9501689732581377,-0.43743557784482834,0.6171770087715238
1667776598857334000,3.597333984375,0.9654045363128184,-0.5039825182028115,0.6584688771679997
1667776598867385900,3.6073857421875,0.9999614704310893,-0.4838790568508208,0.671283788947016
1667776598877437000,3.61743701171875,0.955382908514142,-0.41748423831462855,0.48769883433468636
1667776598887489000,3.627489013671875,0.7444540929675102,-0.2929642708070576,0.3867287423059344
1667776598897539800,3.637539794921875,0.39181846666038034,-0.2207730409517884,0.41377018622756
1667776598907592000,3.647592041015625,0.09223521610498428,-0.11881605677753686,0.5725673941291868
1667776598917643000,3.65764306640625,-0.10242401716411113,-0.011743044763803482,0.6917370866499841
1667776598927695000,3.667695068359375,0.005894903257489204,-0.049425709687173365,0.676745415353775
1667776598937746000,3.677745849609375,0.4163730622023344,-0.061496963492035865,0.7284663963712752
1667776598947797000,3.687796875,0.9313935456395148,-0.13040054997876285,0.9672908615160732
1667776598957849000,3.69784912109375,1.247578971427679,-0.1148562132358551,1.2823491099052131
1667776598967900200,3.707900146484375,1.3690554795861243,-0.08026639976128935,1.3240458327755331
1667776598977952300,3.7179521484375,1.4679080680042504,0.019235884737223385,1.2668807610079644
1667776598988003300,3.72800341796875,1.622802861639857,0.051724926540255546,1.3693608922734857
1667776598998055200,3.73805517578125,1.7896347613066435,0.11715776817649602,1.5215835440903902
1667776599008106200,3.748106201171875,1.9663117631614206,-0.034600773259997365,1.7547928727671502
1667776599018158000,3.758157958984375,2.31779237421453,-0.21286270621865985,2.0382272448152303
1667776599028209200,3.768209228515625,2.928298599985242,-0.19008242687284946,2.0959179478920995
1667776599038260200,3.77826025390625,3.550533257472515,-0.05321370379328728,1.8889535059317946
1667776599048312000,3.78831201171875,3.9850855349659917,0.12784779675602911,1.5322006535641848
1667776599058363100,3.798363037109375,4.097300878304243,0.4429144476473331,0.9734735687389969
1667776599068415200,3.808415283203125,4.017060051375627,0.8832347871482372,0.1295584000661969
1667776599078466300,3.81846630859375,4.312914052274823,1.662880312745273,-0.683862261621654
1667776599088518100,3.82851806640625,5.024558347052335,2.5338468622118233,-1.3607488390117883
1667776599098569200,3.8385693359375,5.990256313353776,3.067007397973537,-1.979602914150059
1667776599108621000,3.84862109375,6.93254417797327,3.645497021758556,-2.510933604136109
1667776599118672100,3.858672119140625,7.773831920751928,4.3329467864781614,-3.196916803434491
1667776599128723200,3.86872314453125,8.355834521093964,5.14976527391076,-4.257020900139213
1667776599138775000,3.878775146484375,8.8217025588274,6.099957628044486,-5.199123471319675
1667776599148826000,3.888826171875,9.103724433729052,7.052946334898471,-6.1583379208207125
1667776599158878200,3.898878173828125,9.018415802016854,8.010233031207322,-6.9314394316017625
1667776599168929000,3.908928955078125,8.850673217245935,9.016938715201615,-7.343126381814479
1667776599178981000,3.918981201171875,8.798103656575083,10.045977811557053,-7.434739666628837
1667776599189032200,3.9290322265625,8.936331977570056,10.942018304264545,-7.257060209733248
1667776599199084000,3.939083984375,9.137664697253703,11.399447599476575,-6.619556086921691
1667776599209135000,3.949135009765625,9.082457773816586,11.328167493116855,-5.050034149092435
1667776599219187000,3.95918701171875,9.039804042482375,10.756517944484948,-2.600329797422886
1667776599229238000,3.969238037109375,8.813051634860038,9.865673851376771,0.4418862736433744
1667776599239289000,3.9792890625,7.681892472723126,9.287910203778743,2.881934323695302
1667776599249341200,3.989341064453125,5.411131898796558,8.889820401763915,4.64753822107315
1667776599259392000,3.99939208984375,2.6595512171983717,8.940555148223043,6.536676143661141
1667776599269444400,4.0094443359375,-0.19887422061562537,9.378183764421939,8.70088772944808
1667776599279495200,4.0194951171875,-2.8853496850967404,9.2270427703619,10.645945107656717
1667776599289547300,4.02954736328125,-5.522864427053928,8.268017121431232,11.688186215412616
1667776599299598300,4.039598388671875,-8.268826684248447,7.39118694062829,12.636039897465706
1667776599309650200,4.049650146484375,-10.277131669008732,6.407993065124749,14.187039505654573
1667776599319701200,4.059701171875,-9.887096578633784,5.169772289150953,15.854064370858667
1667776599329752300,4.06975244140625,-7.004540908169746,4.029306954008341,17.207133176761864
1667776599339804200,4.07980419921875,-2.8281355134904382,3.2828234010398387,17.8080088198781
1667776599349855200,4.089855224609375,0.9096870330050587,2.9539918441683053,17.72457299630046
1667776599359907000,4.099906982421875,3.384137411135435,2.2667536763727663,16.773073066699503
1667776599369958100,4.109958251953125,4.78629553437829,1.1262713900953532,15.63861427849531
1667776599380010200,4.12001025390625,5.329782818365096,0.05211421811878681,14.46312205363512
1667776599390061000,4.13006103515625,4.71742132011652,-0.8744698814123868,13.682509436571598
1667776599400113200,4.140113037109375,4.1722354155182835,-2.0856933448672295,13.48582249686718
1667776599410164200,4.150164306640625,7.804996874344348,-3.368344214197993,14.5447704092741
1667776599420215000,4.160215087890625,12.502878796732425,-4.4482489899158475,16.209781012046335
1667776599430267100,4.17026708984375,12.877543299496173,-6.174971075713634,14.868738159501552
1667776599440318200,4.180318115234375,7.879827366662025,-6.747594437813759,12.745433169120549
1667776599450370000,4.1903701171875,3.527996431493759,-6.08698884087801,10.990413209599255
1667776599460421000,4.200421142578125,2.5835867524147034,-5.629907920712232,8.653403509217501
1667776599470473000,4.210472900390625,4.148757509297132,-5.0835453735500575,5.7159232393890615
1667776599480524000,4.22052392578125,6.798930072775483,-3.7276270234346387,2.489999537178874
1667776599490576100,4.230576171875,6.535865411800145,-2.4650498048394915,-0.1260182432413101
1667776599500627000,4.240626953125,3.4629940902292726,-2.7944173682838676,-1.2136708566069603
1667776599510679300,4.25067919921875,0.8914847290992737,-4.077237748962641,-0.06969605203866958
1667776599520730400,4.26073046875,0.11649053643941878,-3.899661752441525,0.9018149844557046
1667776599530781000,4.270781005859375,-0.026561848277715034,-3.5160552338093516,1.003488475513458
1667776599540833300,4.280833251953125,-0.854832868528366,-3.1825287971198555,0.05449380673170089
1667776599550884400,4.29088427734375,-2.2061609682440757,-3.3630712422311304,0.20466040280163286
1667776599560936200,4.300936279296875,-3.3764415959358214,-3.6138527602165937,-0.07618599857985973
1667776599570987300,4.3109873046875,-2.663271114504337,-1.6605103687435387,-0.9311474619239568
1667776599581039000,4.3210390625,-2.7491397181868553,0.21114859577715395,-1.336532097122073
1667776599591090200,4.331090087890625,-3.0846739875674247,1.2171598677664994,-1.7760165703207254
1667776599601142300,4.341142333984375,-1.8957798448204992,2.073580297747254,-2.976681814882159
1667776599611193000,4.351193115234375,-0.5974398965138942,2.8908868609577416,-3.92787019431591
1667776599621244200,4.361244140625,0.3278793707132339,2.886687655702233,-4.880929043796658
1667776599631296300,4.371296142578125,1.1198597694873809,2.6440853525191543,-5.910345156770944
1667776599641347000,4.38134716796875,1.3267992231369017,2.9758617306709287,-6.062056059673428
1667776599651399200,4.391399169921875,1.3584709572076796,2.5651585307985543,-5.334359624761342
1667776599661450200,4.4014501953125,1.4035562996029853,2.022913940349221,-4.36900068115592
1667776599671502000,4.411502197265625,1.6103225886426864,1.060325045979023,-3.1124773557722567
1667776599681553200,4.42155322265625,1.7866146828331053,-0.29991467446684833,-2.1832178995519875
1667776599691605000,4.43160498046875,1.476478912472725,-1.4283163545891642,-1.4730904390782118
1667776599701656000,4.441656005859375,0.8949405686415731,-2.1782158534809946,-0.8463573011279105
1667776599711708200,4.451708251953125,0.12357727982997893,-2.4194001065596935,-0.5142582668930292
1667776599721759000,4.461759033203125,-0.36918037226423617,-2.103486191189289,-0.16387831055819987
1667776599731810000,4.47181005859375,-0.8743477894026785,-1.6673796699911354,-0.21603286068737507
1667776599741862100,4.481862060546875,-1.0622399396896363,-1.250596565683186,-0.5232967288732528
1667776599751913000,4.491912841796875,-1.1417384238183497,-0.7994874134033918,-0.7750748566806316
1667776599761965000,4.501965087890625,-1.092094979727268,-0.9831433143600821,-1.5373475149333475
1667776599772016000,4.51201611328125,-1.7106747679688035,-1.0520213280141353,-1.2273264569938183
1667776599782068200,4.522068115234375,-1.635490055385977,0.4042565079510212,0.20156243678629396
1667776599792119000,4.532119140625,-1.0262649554669856,1.6353420252174138,0.7264940733850002
1667776599802171100,4.542171142578125,-0.49151963473185895,2.161077379414439,1.1042933670431374
1667776599812222200,4.55222216796875,-0.19946707194223998,1.6285750153005123,1.3340011173397301
1667776599822273300,4.562273193359375,-0.6829905933536589,0.8446776774778961,0.8353051612377166
1667776599832325000,4.5723251953125,-0.9060324560202657,1.062801665225625,2.1178817962884904
1667776599842376200,4.582376220703125,-0.7330442987460642,1.1362769435420632,2.7026404173403975
1667776599852428300,4.59242822265625,-0.843532891356945,1.318385615056753,2.9164444960623976
1667776599862479000,4.60247900390625,-0.9644435823261738,1.2148282099485397,2.1575462826788425
1667776599872531200,4.61253125,-1.064426051557064,1.3994696148112415,1.5244734203130006
1667776599882582300,4.622582275390625,-1.1025168588899075,1.7613120454028248,1.1550129159331322
1667776599892634000,4.632634033203125,-1.3003158514894544,1.8662261258170008,0.4957926358759403
1667776599902685200,4.642685302734375,-1.4787024337410926,2.1280416635140775,-0.14892916322946548
1667776599912736300,4.652736328125,-1.3198270460367203,2.4726050425246355,-0.7195517069011926
1667776599922788000,4.6627880859375,-1.3770260200738906,2.355548396635055,-1.2112357384145258
1667776599932839200,4.672839111328125,-3.5869033784925937,0.3531801084473729,-1.8096131349742413
1667776599942891000,4.68289111328125,-3.4697324585735796,-0.8635416601628064,-3.3952392353862524
1667776599952942000,4.692942138671875,-2.3058194662176072,-0.18823592222332952,-3.826695300430059
1667776599962994400,4.702994384765625,-0.7235420917116105,-0.06339549058973788,-3.6215707872480154
1667776599973045200,4.713045166015625,0.8750526497364044,1.6443074219614267,-3.7752433456122874
1667776599983097300,4.723097412109375,0.9202103267155587,2.7721991067349907,-3.3497271920114753
1667776599993148400,4.7331484375,0.22988076877593994,3.633723581856489,-2.74952199550271
1667776600003200300,4.7432001953125,0.033240444692224265,4.04036786172688,-1.993678493514657
1667776600013251300,4.753251220703125,-0.43753100104331966,3.4097073211997744,-1.644817709571123
1667776600023302400,4.763302490234375,-0.49412324135899544,2.0474065765708684,-1.400910169008374
1667776600033354200,4.773354248046875,-0.8028489257257432,0.9258025937646627,-0.7727741785228252
1667776600043405300,4.7834052734375,-1.2533785976171492,0.4121230035424232,-0.16261925040781497
1667776600053457200,4.79345703125,-1.3394552910923958,-0.12276479440331459,-0.030935821011662482
1667776600063508200,4.80350830078125,-0.9273439779877662,-0.4552753320485353,0.6488508617341519
1667776600073560300,4.813560302734375,-0.6211282306153327,-0.7759919715255499,1.5404916581779717
1667776600083611100,4.823611083984375,-0.44338794691059735,-1.030393433573842,1.8056325409054754
1667776600093663500,4.83366357421875,-0.37455811977982517,-1.4395219314754009,1.171357901534438
1667776600103714300,4.84371435546875,-0.6773650085568428,-1.9872545979470013,1.6287071172475813
1667776600113766400,4.853766357421875,-0.5570329942584037,-1.776032352411747,1.5454221003174782
1667776600123817500,4.8638173828125,-0.3911725699722767,-0.9273515767723322,2.0863322272926568
1667776600133868500,4.87386865234375,-0.8192956912010908,-0.5189730204552412,1.4609461200371383
1667776600143920400,4.88392041015625,-1.5714590433716773,-0.6064730247318745,0.8629688287109136
1667776600153971500,4.893971435546875,-1.2789812409073114,-0.031574703437089915,1.344471657949686
1667776600164023300,4.904023193359375,-0.6274982771039008,0.7501935134023427,1.654053155428171
1667776600174074400,4.914074462890625,-0.3679390669662505,0.6963871044129133,1.5875255042925476
1667776600184126500,4.92412646484375,-0.6272048471152782,0.02787935605049133,1.127025131072104
1667776600194177300,4.93417724609375,-0.7998743668943643,0.16211831514835356,0.9120037855148315
1667776600204229400,4.9442294921875,-0.7476046659529209,0.38409342536628244,0.816999396957457
1667776600214280400,4.954280517578125,-0.6717647043317556,0.44285599545836446,0.9245090468227862
1667776600224332300,4.964332275390625,-0.4341056297045201,0.4223445378273725,1.1969808569602667
1667776600234383400,4.97438330078125,-0.24501626898963003,-0.08113514541983603,1.400640850547701
1667776600244434400,4.984434326171875,-0.16212182227969169,-0.8044710470348596,1.4314979072347283
1667776600254486300,4.994486328125,-0.16712825226485728,-1.3186743688702582,1.0551330302938817
1667776600264537300,5.004537353515625,-0.14357954582981763,-1.1829279278188942,0.2505390875317156
1667776600274589200,5.014589111328125,-0.20417232702374458,-0.6802022778093815,-0.773776049041748
1667776600284640300,5.02464013671875,-0.1299870738070458,-0.11137889251410961,-1.505860928171128
1667776600294692400,5.0346923828125,-0.006539557836577296,0.11117547889649868,-1.676702940262109
1667776600304743200,5.0447431640625,0.014124533072859049,0.3213958539128303,-1.5427224859699606
1667776600314795300,5.054795166015625,-0.033020737526938314,0.598241787481308,-1.1076711729131639
1667776600324846300,5.064846435546875,-0.06049933075681328,0.8738976344823837,-0.8481396545000374
1667776600334898200,5.074898193359375,-0.15528408521413803,0.9229448662459849,-0.5109194778591394
1667776600344949200,5.08494921875,-0.17512502317242323,0.9678472532898187,-0.06025529286786913
1667776600355000300,5.095000244140625,-0.22303952457904813,1.120590421849489,0.2976385462284088
1667776600365052400,5.105052490234375,-0.362062064691633,1.251266135507822,0.6667081515945493
1667776600375103200,5.115103271484375,-0.5505060767076909,1.3234277008771895,1.0375010736219585
1667776600385155300,5.1251552734375,-0.7029353570125997,1.1584154178529977,1.2882675401687622
1667776600395206400,5.135206298828125,-0.7001712991267443,0.7950356946915388,1.459126795655489
1667776600405258500,5.145258544921875,-0.3810306767947972,0.5626280377864837,1.3880978875778616
1667776600415309300,5.155309326171875,0.046606122221797705,0.2767950801640749,1.1331472672142087
1667776600425361400,5.165361328125,0.45048634420633316,0.03315992680191993,0.7869491266086697
1667776600435412500,5.17541259765625,0.8480467155195772,-0.06761456958949566,0.46986550987176595
1667776600445464300,5.18546435546875,1.1271452503204344,0.09856325008273124,0.26340660628080365
1667776600455515400,5.195515380859375,1.0976328862406313,0.3510726147741079,0.05454078767858445
1667776600465566500,5.20556640625,0.9221639450013637,0.5966431201130151,0.05429623833298683
1667776600475618300,5.215618408203125,0.8013761497594416,0.6510983483999967,0.3491202385973185
1667776600485669400,5.22566943359375,0.7358255269624292,0.4044733655720949,0.6698883160006255
1667776600495721200,5.23572119140625,0.8281088199928403,0.467308884191513,0.5778763872575015
1667776600505772300,5.245772216796875,1.0986319802805782,0.777425803720951,0.3010392215173691
1667776600515824400,5.255824462890625,1.4445546649456023,0.6679600513517856,0.3043237230807543
1667776600525875500,5.26587548828125,1.8170156663157044,0.4140852435261011,0.5336453236039728
1667776600535927300,5.27592724609375,2.0708920815765857,0.045102878051996226,0.8968053396001457
1667776600545978400,5.285978271484375,2.2624223691701886,0.10790274083614348,1.0533619289681315
1667776600556030200,5.2960302734375,2.516185533314943,0.20754852545857427,1.3980147398278115
1667776600566081300,5.306081298828125,2.7046678315147754,0.21520926934480666,1.7797122099682687
1667776600576133400,5.31613330078125,3.011621026316285,0.36573768446445465,2.0649334654331204
1667776600586184200,5.32618408203125,3.3212209362342953,0.47257542641758915,2.3066285906434056
1667776600596235300,5.3362353515625,3.447892090426385,0.6015326457202435,2.457333823634684
1667776600606287400,5.346287353515625,3.546940785938501,0.6505436371266842,2.193925463788211
1667776600616338200,5.356338134765625,3.452155885350704,0.5714928967654704,1.7818614969566464
1667776600626390500,5.366390625,2.9617569252118465,0.8314683595538139,1.596599914368987
1667776600636441300,5.37644140625,2.132123087608814,1.3186124095499514,1.5185358469575643
1667776600646493400,5.386493408203125,1.0983847275212406,1.4709738853156566,1.4427148822978137
1667776600656544500,5.39654443359375,0.14545008894205091,1.4586445650964974,1.5148109812155366
1667776600666596400,5.406596435546875,0.07683131074607372,1.6089567071169615,1.7266589574337006
1667776600676647400,5.4166474609375,1.0024655622065066,2.074028041514754,1.726693444225192
1667776600686699300,5.42669921875,2.0336589139863848,2.7265876946389676,1.2951231051519512
1667776600696750300,5.436750244140625,2.6795260837346313,3.005798603773117,0.6543103692490607
1667776600706801400,5.446801513671875,2.551344524979591,3.133163000926375,0.10458353328555822
1667776600716853500,5.456853515625,1.8480349278271198,3.089223905956745,-0.3203156574606895
1667776600726904300,5.466904296875,1.4940239215135573,2.8567718253880736,-0.6538345684308559
1667776600736956400,5.476956298828125,1.0962848326325416,2.4318963077783584,-0.5939435057654977
1667776600747007500,5.487007568359375,0.4020371514011174,1.9375351660102604,-0.13582542457170785
1667776600757059300,5.497059326171875,-0.4562351535240188,1.4799357749283313,0.04945011347606778
1667776600767110400,5.5071103515625,-1.3313146547347305,1.0174567951112985,-0.14743994758501647
1667776600777162200,5.517162353515625,-2.1553192542791364,0.6816939776718616,-0.5045207167327403
1667776600787213300,5.52721337890625,-2.585666481298208,0.2405173136025667,-0.8613304138541221
1667776600797265400,5.537265380859375,-2.392698269855976,-0.09864625219106674,-1.1611737766504286
1667776600807316200,5.547316162109375,-1.6753507950007915,-0.17235738508999346,-1.4466497375287115
1667776600817367300,5.5573671875,-0.6517221793867647,-0.14441606971919535,-1.5954489907681941
1667776600827419400,5.56741943359375,0.3544983514390886,-0.3150233962714672,-1.4567492528691888
1667776600837470200,5.57747021484375,0.937575376079604,-0.36510990795493126,-1.1242996516309678
1667776600847522300,5.587522216796875,0.5233716938056051,-0.06305822145938873,-0.7824750499345362
1667776600857573400,5.597573486328125,-0.15119126294255256,0.25540683969855305,-0.3932026144951582
1667776600867625200,5.607625244140625,-0.542514493431896,0.5523609107941388,-0.05440262131690979
1667776600877676300,5.61767626953125,-0.8421990124046802,0.9945978975713252,0.19535159944742916
1667776600887728400,5.627728271484375,-1.2134241883695125,1.963397921541333,0.3927957872599363
1667776600897779500,5.637779541015625,-1.6271721627652644,3.3263995079159736,0.6350336410447954
1667776600907831600,5.64783154296875,-1.9772505058050154,4.475342164024711,0.7757941108658909
1667776600917882400,5.65788232421875,-2.412229922669381,5.337949758207798,0.9752706812888383
1667776600927934500,5.6679345703125,-3.0118703249022363,5.798774541077018,1.1218281469509004
1667776600937985500,5.677985595703125,-3.6131241536810994,5.690625716525316,0.8728057475924491
1667776600948036400,5.688036376953125,-3.980872301185131,4.391384946921468,0.05293547137379646
1667776600958088400,5.69808837890625,-4.169612958060204,2.317778930211067,-0.5307698412328958
1667776600968139000,5.708138916015625,-3.8140237426444887,0.2586252172231674,-0.969689374025166
1667776600978190800,5.71819091796875,-3.2099723921015855,-1.1159575013518332,-1.254556847616285
1667776600988242000,5.728241943359375,-2.83452901391983,-1.532583661532402,-1.2652119510129094
1667776600998293800,5.738293701171875,-2.714424963158369,-1.7176374465882778,-1.3534440689563751
1667776601008344800,5.7483447265625,-2.703210326182842,-1.872048256099224,-1.6864985042199492
1667776601018397000,5.75839697265625,-2.727989378130436,-1.962092684161663,-2.0093772901669142
1667776601028447700,5.76844775390625,-2.8049966299653053,-1.9759224720716475,-2.298039918257296
1667776601038498800,5.778498779296875,-2.74485926438868,-1.9765619390189646,-2.6849939937517044
1667776601048551200,5.78855126953125,-2.6189059030771253,-2.100565919828415,-3.022434096753597
1667776601058602000,5.79860205078125,-2.513261754822731,-2.397594225203991,-3.209091517613828
1667776601068654000,5.808654052734375,-2.431704584598541,-2.826368503817916,-3.2963223495602607
1667776601078705200,5.818705078125,-2.2572443820104002,-3.235335673677921,-3.2425317226618526
1667776601088757000,5.828757080078125,-1.9654574844196437,-3.4970571033507585,-2.9929022973209616
1667776601098808000,5.83880810546875,-1.443605985918641,-3.6508062340825793,-2.5772233548626304
1667776601108860000,5.84885986328125,-0.8360738075226545,-3.5884511924564837,-2.0099831471055745
1667776601118911000,5.858910888671875,-0.22793051149100063,-3.430311133289337,-1.2673949941404163
1667776601128963000,5.868963134765625,0.49409050813317296,-3.22688933237195,-0.26616350377351045
1667776601139014000,5.879013916015625,1.16989951941967,-3.077348759245872,0.7024824986785649
1667776601149066000,5.88906591796875,1.7713722516462205,-2.929452446195483,1.5196682119883596
1667776601159117000,5.899116943359375,2.4217373173356056,-2.6672517085731027,1.9320763160824774
1667776601169168000,5.90916796875,3.173630620393157,-2.308304414901137,2.0743486517712473
1667776601179220000,5.919219970703125,4.131465013712645,-1.889355364730954,2.1815765620857475
1667776601189271000,5.92927099609375,4.783261573509872,-1.4413631754279135,1.7059266966588795
1667776601199323000,5.939322998046875,4.928067811590433,-1.1647452053964138,1.316861035837978
1667776601209374000,5.9493740234375,4.348502375267445,-1.0926315708220005,1.4260283897824584
1667776601219425800,5.95942578125,3.396436628477275,-1.7334177840441465,1.8385664038665592
1667776601229476900,5.969476806640625,2.436352410404384,-3.102003308030963,2.6840783402115105
1667776601239529000,5.979529052734375,1.1700313291057944,-4.721012038084864,3.3398476030319926
1667776601249580000,5.989580078125,-0.5998430851981044,-5.82870381539464,3.4818642103940247
1667776601259630800,5.999630859375,-2.825131947760284,-4.564566507875919,2.3554129336871203
1667776601269683000,6.009682861328125,-4.230058658933639,0.13294891928732394,0.18347484530135988
1667776601279734000,6.019734130859375,-5.726753845483064,5.615073924195766,-1.57869498597458
1667776601289785900,6.029785888671875,-5.228606755435466,9.8430189519763,-1.2451643115013837
1667776601299837000,6.0398369140625,-1.0443220056831837,13.844272362411022,-0.678942340876162
1667776601309889000,6.049888916015625,1.2174996211148799,17.13848692603707,-1.8815509745903312
1667776601319940000,6.059940185546875,0.40437107424139973,13.441170869714021,-2.3645149624228474
1667776601329992000,6.069991943359375,-3.541309502053261,1.9842390495181081,-3.3247803822815416
1667776601340043000,6.08004296875,-7.554118910247087,-4.256910425502062,-6.391396150588989
1667776601350095000,6.09009521484375,-9.836195243436098,-7.669754291161895,-8.9389366071105
1667776601360146000,6.10014599609375,-9.469059382611512,-9.971415030264854,-10.179037205481528
1667776601370197000,6.110197021484375,-7.315567343759536,-11.28123506155014,-9.992238038063048
1667776601380249000,6.1202490234375,-4.8753532894909375,-11.088824483990669,-8.189253965839743
1667776601390300200,6.130300048828125,-3.3087212278842926,-8.49053174535334,-5.050930221149325
1667776601400352000,6.14035205078125,-3.3749779531240462,-4.191072802457213,-2.118666663055867
1667776601410403000,6.150403076171875,-4.358876762026548,-0.7894646165609359,0.4336749101370573
1667776601420455000,6.160454833984375,-5.5023710896015166,3.6030864515304564,2.738043154633045
1667776601430506000,6.170506103515625,-6.11930822520256,8.656679754409193,5.077455824503303
1667776601440558000,6.18055810546875,-3.965597575163841,13.095600359487532,7.828913171982765
1667776601450609000,6.19060888671875,1.5471943706870077,10.718314762818812,10.631416231566668
1667776601460661000,6.200660888671875,9.1230878903687,2.5085417405635115,9.14263254879415
1667776601470712000,6.210712158203125,9.833003753918408,-1.7323937016934154,5.36989271043539
1667776601480763000,6.220762939453125,5.8230590875059365,-1.3085229772120714,2.3814137825146315
1667776601490815000,6.23081494140625,1.8457541234135626,0.865133313268423,0.3430200950913131
1667776601500866000,6.240865966796875,-1.0340087014615535,1.9141092822372912,-1.1004293850913642
1667776601510918000,6.25091796875,-2.3901088378846644,2.0080641617417334,-1.8581801820054649
1667776601520969000,6.260968994140625,-3.248831115067005,1.355962189257145,-2.2579770801991224
1667776601531020800,6.271020751953125,-3.4014065258443353,0.27040157973468304,-2.107187237664312
1667776601541072000,6.28107177734375,-2.734944019573927,-0.5789198318958282,-1.6441671367079018
1667776601551124000,6.2911240234375,-1.3209738779842852,-0.7892559422463178,-1.3105737722620368
1667776601561174800,6.3011748046875,0.7341110511947423,-0.4150087881118059,-1.2138872027713805
1667776601571227100,6.31122705078125,2.6451766548871993,0.0841869342058897,-1.1936019551116972
1667776601581278200,6.3212783203125,3.221360924339294,0.7577280005604028,-0.9193749718699604
1667776601591330000,6.331330078125,2.5303593123570085,1.293797701767087,-0.26861542697027324
1667776601601381000,6.341381103515625,1.1336053862452506,1.4307850827902555,0.21592443187683819
1667776601611432200,6.35143212890625,-0.31974282600879667,1.0168418780833481,0.8277478777259588
1667776601621484000,6.361484130859375,-1.2692774468861518,0.1792091506808996,1.5081468471512198
1667776601631535000,6.37153515625,-1.5708879654854535,-0.7645674911916256,2.067088597640395
1667776601641587000,6.3815869140625,-1.275681030318141,-1.338068805170059,2.394125380049646
1667776601651638000,6.391637939453125,-0.63167278630957,-1.2922037105739117,2.5553964307188988
1667776601661690000,6.401690185546875,0.33201793182268735,-0.845578717970848,2.451444181074202
1667776601671741000,6.411740966796875,1.287390318942815,-0.3567822245925665,2.1742530873298644
1667776601681793000,6.42179296875,2.352093287745118,-0.15623217971920966,1.5473942771732807
1667776601691844000,6.431843994140625,3.382093045826256,-0.36231706236600875,0.934430940574035
1667776601701895000,6.44189501953125,4.358685038846731,-0.8213444404244422,0.6404267322599887
1667776601711947000,6.451947021484375,4.888057872763276,-1.2579255933970213,0.8060206145644188
1667776601721998000,6.461998046875,4.718989592346548,-1.422210731190443,1.3215382338687778
1667776601732050000,6.4720498046875,4.072125520515442,-1.2624667439579962,1.8680001497521996
1667776601742101000,6.48210107421875,3.4490143724545836,-0.8803846584141254,2.276235790467262
1667776601752152800,6.49215283203125,3.3359275069788095,-0.518889433825016,2.444961248795688
1667776601762204000,6.502203857421875,3.51999315778017,-0.17497136698067187,2.6320225742816925
1667776601772256000,6.512256103515625,4.222625294062495,0.16464344971179962,2.651642928291857
1667776601782306800,6.522306884765625,4.941310739523172,0.59792088496387,2.592005621191859
1667776601792359000,6.53235888671875,5.629736071276664,1.2698147686332464,2.49881851118952
1667776601802410000,6.542409912109375,6.132669226557016,2.0981834086060522,2.544851071307063
1667776601812460800,6.552460693359375,6.064669457042217,2.9919366671591994,3.144814568014443
1667776601822513000,6.562512939453125,4.793139408923685,4.3878848298460245,4.236620501667261
1667776601832564000,6.57256396484375,2.8944401695251463,5.775742040535807,5.173211615949869
1667776601842616000,6.582615966796875,1.245517947244644,5.8075920537829395,5.703948139435052
1667776601852667000,6.5926669921875,1.1533093268856405,4.712057747256756,5.62150132689476
1667776601862719000,6.602718994140625,2.748619493705034,3.7856478352487084,4.475565159125626
1667776601872770000,6.61277001953125,5.017981306749582,3.2893864128172394,1.8220190275609491
1667776601882822100,6.622822265625,5.098400997376442,2.6570260826349257,-0.26974348115213215
1667776601892873000,6.632873046875,3.2608722659945486,2.1548364391982555,-0.8069856602042913
1667776601902925000,6.642925048828125,1.5282693054646252,2.098755071014166,-1.2136401692077516
1667776601912976100,6.65297607421875,0.5941326716620474,2.131155119359493,-0.788985673937574
1667776601923027000,6.66302685546875,-1.0311479052029549,2.162553881707787,-0.16922303258702157
1667776601933079000,6.6730791015625,-3.2145833930283785,3.027337650886178,0.2759237772222608
1667776601943130000,6.683130126953125,-4.962891287690401,4.134541352418065,0.21372399922311305
1667776601953182000,6.693181884765625,-5.870346323859692,5.276489619594812,-0.18762495071813462
1667776601963233000,6.70323291015625,-5.70529604691267,6.237355927956104,-0.4946064948312938
1667776601973284900,6.713284912109375,-4.343040894991159,6.402089394038915,-0.4405193692043423
1667776601983336000,6.7233359375,-2.0764251657843587,5.770957728868723,-0.2238803593173623
1667776601993388000,6.733387939453125,-0.41286183921098707,4.924503981629014,0.15911416489630936
1667776602003438800,6.74343896484375,-0.2407331483103335,4.2595629858374595,0.22655118596181273
1667776602013491000,6.753490966796875,-0.9156794052876531,3.7013726382374763,0.07008110583350062
1667776602023542000,6.7635419921875,-2.056006501003355,3.452551606670022,-0.22783830316290257
1667776602033592800,6.7735927734375,-3.2028172596499322,3.384148517051339,-0.9010255876436829
1667776602043645000,6.78364501953125,-4.125164744524658,3.2270506604135036,-1.323993810327351
1667776602053696000,6.793696044921875,-4.396806095187365,2.7593729429095983,-1.488963130992651
1667776602063747800,6.803747802734375,-4.358735307729244,2.351552604997158,-1.675655623166263
1667776602073799000,6.813798828125,-4.460374019734561,1.9876351216971873,-2.007403359745443
1667776602083850800,6.823850830078125,-4.793786474655568,1.5207342337846754,-2.2993705823391672
1667776602093901800,6.83390185546875,-5.308085365819931,1.0331354257583618,-2.574837044247985
1667776602103954200,6.8439541015625,-5.9794064180374145,0.3341489525020122,-2.985337707285583
1667776602114005000,6.8540048828125,-6.026185120347142,-0.7462246097713708,-3.0633406921595334
1667776602124057000,6.86405712890625,-5.901739240989088,-1.7223580453693865,-2.9688018752872942
1667776602134108200,6.874108154296875,-5.872038514730334,-2.5964912421733137,-2.6036387758404014
1667776602144159000,6.884158935546875,-5.656292069768905,-3.2933962329804896,-2.0627388779982923
1667776602154211000,6.894211181640625,-5.3401966603517526,-3.9182425342708824,-1.7133114000827072
1667776602164262100,6.90426220703125,-5.288352491346001,-4.517729937899112,-1.873508391779661
1667776602174314000,6.91431396484375,-5.509107119858265,-4.99025217282474,-2.1118930772677063
1667776602184365000,6.924364990234375,-5.5423512178123,-5.227288074052334,-2.373316546907276
1667776602194417000,6.9344169921875,-5.520116005128622,-5.373602086347341,-2.8470781143695114
1667776602204468000,6.944468017578125,-5.4302048480570315,-5.652382787370682,-3.3168799844205377
1667776602214520000,6.95452001953125,-4.854837155684828,-5.8867164439022535,-3.7321781108677383
1667776602224571000,6.96457080078125,-4.109257858079672,-6.055615212970972,-4.093329344324768
1667776602234623000,6.974623046875,-3.531392503672838,-6.207178231835365,-4.200774404521286
1667776602244674000,6.984674072265625,-2.9580116012036797,-6.198331493034958,-4.095684967540205
1667776602254724900,6.994724853515625,-2.1119594205021857,-5.947511396604776,-3.8544253111377356
1667776602264777000,7.00477685546875,-0.9130763831824064,-5.29378269970119,-3.1996509045734998
1667776602274828000,7.014828125,0.5885784716010093,-4.126704082921147,-2.2335262372925877
1667776602284880000,7.0248798828125,2.4539962036445737,-2.334862751480937,-0.7982698543071747
1667776602294931000,7.034930908203125,4.712312306539714,0.17466332394480705,1.296198771559447
1667776602304982800,7.044982666015625,7.64520144918561,3.492823995825648,3.91455478566885
1667776602315033900,7.055033935546875,10.723589488351344,7.514159824824333,5.483491617086529
1667776602325086000,7.0650859375,11.14123037853241,9.630621232920884,4.91997802863717
1667776602335136800,7.07513671875,9.164830936598777,7.017676284074783,2.972925677219033
1667776602345188900,7.08518896484375,7.193430325865745,0.6349333955407143,0.8699095877595245
1667776602355240000,7.095239990234375,5.0958162415802475,-4.1651182769894595,-0.07451338919252157
1667776602365291000,7.105291015625,2.8895351540878416,-6.237555834442377,0.5635249866262078
1667776602375343000,7.115343017578125,1.3742697071030736,-6.794904470521211,0.5204369555279612
1667776602385394000,7.125393798828125,0.6353259019896388,-6.306161753156781,-0.2824189113952219
1667776602395446000,7.135446044921875,-0.4910360889986157,-4.785109539464115,-1.0602557801350951
1667776602405497000,7.1454970703125,-1.8279171456888317,-3.521282028546929,-1.5098404993265866
1667776602415549000,7.155548828125,-2.234979943232238,-2.2099983544498683,-1.5723749891728163
1667776602425600000,7.16560009765625,-1.7254188942447304,0.8330231877803802,-1.516110519506782
1667776602435652000,7.175652099609375,-3.0809084975540637,5.939864096722006,-0.9920330155193805
1667776602445703000,7.185702880859375,-5.916813476002216,10.695880812692641,0.6538359566703439
1667776602455755000,7.195755126953125,-6.813827782177925,10.88639520124197,3.2909389029562472
1667776602465806000,7.20580615234375,-0.9672799747958779,7.595446945935487,3.915611308984458
1667776602475857000,7.21585693359375,5.1358513148486615,2.447229485988617,-1.780789776071906
1667776602485909000,7.225908935546875,2.2362894183956086,-1.2526800939589737,-7.25140496045053
1667776602495960000,7.2359599609375,-3.3449709373950958,-3.04410056963861,-8.63725492297113
1667776602506012000,7.246011962890625,-5.674045168602467,-4.0814007138609885,-9.429686572644114
1667776602516063000,7.25606298828125,-7.129070958679914,-4.63457761721313,-9.077955201700329
1667776602526114800,7.26611474609375,-8.782553620743752,-4.393269445493817,-5.848462408831716
1667776602536166000,7.276165771484375,-9.172476482915878,-3.293237243026495,-1.8371908777296542
1667776602546218000,7.286218017578125,-8.572046245479584,-0.5856126075327396,1.655736724600941
1667776602556269000,7.29626904296875,-8.568338038611412,2.268810024380684,5.039856453949213
1667776602566321000,7.30632080078125,-9.08453867174387,4.864510992959142,7.682458874434232
1667776602576372000,7.3163720703125,-8.474669574832916,6.859461990627646,7.430616449218988
1667776602586423000,7.326423095703125,-6.4430936046004295,7.181109773474931,4.472944747494161
1667776602596475000,7.336474853515625,-3.529463581436872,5.42858396885693,3.093929014907777
1667776602606526000,7.34652587890625,0.6203237823646516,2.197963633263111,4.062756803667545
1667776602616577800,7.356577880859375,4.019564727672934,-7.39364894682765,4.347920483726263
1667776602626628900,7.36662890625,3.1342870365202424,-1.7183832965195178,1.3646905623748897
1667776602636681000,7.376680908203125,0.9271078311443328,8.380633446785808,-1.1613310130387544
1667776602646731800,7.386731689453125,0.678173986852169,5.6572056774824855,-2.5252859546154736
1667776602656784100,7.3967841796875,2.2279636347293854,-1.6431775411486624,-3.1290362763851878
1667776602666835000,7.4068349609375,4.190210632669926,4.811441666072607,-4.738139698496461
1667776602676887000,7.416886962890625,4.020297133600711,10.107992076921462,-3.7400071970582007
1667776602686938000,7.426938232421875,3.968937240980565,5.957477494823932,-2.887386743882298
1667776602696989200,7.4369892578125,5.246115524119139,3.0487557019680738,-2.215399044449627
1667776602707041000,7.447041015625,6.279319338938594,-6.930860170409083,-0.5799950964445247
1667776602717092000,7.457092041015625,4.989919579869508,-13.184075930798054,1.7907734099477528
1667776602727144000,7.46714404296875,3.522142444768548,-2.506957686242461,-0.39446492604855443
1667776602737195000,7.477195068359375,1.8951948845393956,1.338302029404044,0.849070067217946
1667776602747247000,7.4872470703125,1.3004599361352622,0.6562462326824665,3.745135207596421
1667776602757298000,7.4972978515625,1.490851282826811,1.4302718725711105,4.395620392534137
1667776602767350000,7.50735009765625,1.7606018513068555,0.2214332584261894,4.2709424579858775
1667776602777401000,7.517401123046875,2.2228832627251744,-1.241885143700242,3.748227328392863
1667776602787453000,7.527452880859375,2.4325597401231525,-1.9380092132627962,3.018644641342759
1667776602797504000,7.53750390625,1.441269067403674,-2.4893437036186454,2.235131626662612
1667776602807555000,7.54755517578125,0.5496645113170147,-3.5143712262451645,1.7588596838146446
1667776602817607000,7.55760693359375,1.220530805504322,-3.9311218895882365,1.639455890277028
1667776602827658000,7.567657958984375,3.084417966979742,-3.6343402524501083,1.9556094596222042
1667776602837709800,7.577709716796875,5.6304065178841345,-3.002649784353375,2.9114173155501484
1667776602847761000,7.587760986328125,7.293622638455033,-1.7909271392047403,4.128269140280783
1667776602857813000,7.59781298828125,7.923816145992278,-0.17458090635836124,4.930736738538742
1667776602867863800,7.60786376953125,8.012366536104679,1.4410978024899959,5.02714251832664
1667776602877916000,7.617916015625,7.911066554534435,3.0269916139274833,4.272019147306681
1667776602887967000,7.627967041015625,7.756591447615623,3.854641291975975,3.243401783494651
1667776602898019000,7.63801904296875,8.301649926441907,3.414335565522313,1.5507204989865422
1667776602908070100,7.648070068359375,10.099237108057737,3.8927661477088926,-0.7763388852670788
1667776602918121000,7.658120849609375,11.172499961543082,3.210723794990778,-1.6849819621771573
1667776602928173000,7.668173095703125,11.80179622797966,4.521708778402209,-1.1104258784487844
1667776602938224000,7.67822412109375,8.880161762058734,8.590306124791502,0.8311438037745654
1667776602948276000,7.68827587890625,2.3296318650901315,12.741361389636992,2.6735595765456557
1667776602958327000,7.6983271484375,-3.119896107596159,14.59820506234169,4.055625636613369
1667776602968378600,7.708378662109375,-5.7519981768548485,13.780580519223212,3.9105584095090626
1667776602978429400,7.718429443359375,-6.884716258871555,10.724217264860869,1.9878207073971628
1667776602988481500,7.7284814453125,-7.298545481809973,7.048217552810907,0.3958338397815823
1667776602998532600,7.73853271484375,-6.507512593019008,2.4609786098778246,-0.511641946914792
1667776603008584400,7.74858447265625,-4.297204441967606,0.5813292311251164,-1.2609944794483483
1667776603018635500,7.758635498046875,-2.1745810041099785,4.680807453468442,-2.6415666476964947
1667776603028687400,7.768687255859375,-1.3715139786541461,7.273013565668463,-4.026922689220309
1667776603038738400,7.778738525390625,-0.9235469237923621,7.67341748984456,-3.762768479442596
1667776603048789500,7.78878955078125,-1.010596261692047,8.1003376650244,-3.066589757083356
1667776603058841300,7.79884130859375,-1.6412883664011955,8.10328190178275,-2.432889410468936
1667776603068892400,7.808892333984375,-2.242226991751045,7.284215343162417,-1.721983951359987
1667776603078944500,7.818944580078125,-2.965160303914547,6.015897535088658,-1.4419514967098832
1667776603088995600,7.82899560546875,-3.8881449176490306,4.622605439868569,-1.0331070764467118
1667776603099047400,7.83904736328125,-4.162181346754729,3.2957658847212787,-0.7173603343367576
1667776603109098500,7.849098388671875,-3.6741912013232705,2.2160639380991456,-0.7939300715371966
1667776603119150300,7.859150390625,-3.3660119718581436,1.2680857528835534,-1.7234677601769566
1667776603129201400,7.869201416015625,-3.739124569004774,0.26505788061916824,-2.798047833740711
1667776603139253500,7.87925341796875,-4.791115501880645,-0.3294751154720783,-2.739029535321891
1667776603149304300,7.88930419921875,-5.66284806728363,-0.9598311200946569,-2.766182622924447
1667776603159355400,7.89935546875,-6.6382981967926025,-1.499354761147499,-3.5242291879147287
1667776603169407500,7.909407470703125,-7.0905030353546135,-2.0360797113925218,-3.8425001878052947
1667776603179458300,7.919458251953125,-7.142137361001968,-2.767888842320442,-3.7474595588907595
1667776603189510700,7.9295107421875,-7.353115860909223,-3.4430671544879674,-3.258345962387323
1667776603199561500,7.9395615234375,-7.741803043806552,-3.8954888506710525,-2.3909049566984177
1667776603209613600,7.949613525390625,-8.185597781419753,-4.227411359295249,-1.7198764576867223
1667776603219664600,7.95966455078125,-8.703878727957607,-4.5111295167207714,-1.2352563732102513
1667776603229716500,7.969716552734375,-9.016392771756648,-4.9945560074985025,-0.9496972640931606
1667776603239767600,7.979767578125,-9.18575039050877,-5.303708465909957,-0.8620555132582783
1667776603249819400,7.9898193359375,-9.009504181286692,-5.657298031941056,-1.0918760762795805
1667776603259870500,7.999870361328125,-8.343620936208962,-6.086954354086518,-1.4659037424445152
1667776603269921500,8.009921630859376,-7.698570635801553,-6.148524967336654,-1.7416846771299839
1667776603279973600,8.0199736328125,-7.114779398477077,-6.078161391299963,-1.7636159384310244
1667776603290024400,8.0300244140625,-6.253840614289045,-6.041558046045899,-1.5297943230748177
1667776603300076500,8.04007666015625,-5.074264919507503,-6.031865504071116,-1.2767840231239795
1667776603310127600,8.050127685546874,-3.5594928089976308,-5.88118394421637,-0.8766098160505295
1667776603320179500,8.060179443359376,-1.7205898666530846,-5.544170834454894,-0.49188214790131896
1667776603330230500,8.07023046875,0.5547001673966646,-4.85544915010333,-0.1270347633400932
1667776603340282400,8.080282470703125,3.57775268830955,-3.444220416176319,0.7954612266272306
1667776603350333400,8.09033349609375,7.049774134603142,-1.3735422696113586,1.377618433009088
1667776603360385500,8.100385498046874,9.525048980858921,1.1989122634142637,2.128129049536586
1667776603370436400,8.110436279296875,9.627965749976038,3.4839246500551697,2.37162479442805
1667776603380488400,8.120488525390625,8.181835214015841,4.799395838969946,2.4688401370331645
1667776603390539500,8.13053955078125,6.954094331002235,4.956306064081192,3.0705244661837816
1667776603400590300,8.14059033203125,5.866740408322214,3.847303788694739,3.9095407568991183
1667776603410642400,8.150642333984376,4.2920302542001005,1.8642752840101717,4.267108286650479
1667776603420693500,8.160693603515625,2.967222497141361,0.2253641681343317,4.238550300686061
1667776603430745300,8.170745361328125,3.0614193687081337,-0.07325403678119183,3.920119434058666
1667776603440796400,8.18079638671875,4.562352338957786,2.24992412212491,3.741123633867502
1667776603450848500,8.1908486328125,3.360984499084949,5.496890612363815,3.8071602866157885
1667776603460899300,8.2008994140625,-5.439524465066194,5.089709741398692,2.0132129228070377
1667776603470951700,8.21095166015625,-14.083306743979453,1.4149346027076244,-0.521207647639513
1667776603481002500,8.22100244140625,-13.841875822663306,-2.1806945185542106,-1.7872449435606599
1667776603491054600,8.2310546875,-11.086697993355989,-4.204889730885625,-5.558102329173684
1667776603501105700,8.241105712890626,-8.88039557081461,-5.393218056443334,-8.778053971236943
1667776603511156500,8.251156494140625,-5.310720390498638,-5.736055926835537,-11.222920819747447
1667776603521208600,8.26120849609375,-1.044653429594636,-5.167132003775238,-12.148880649900436
1667776603531259600,8.271259765625,-2.015303465345502,-2.9988913086026905,-9.953562562710045
1667776603541311500,8.2813115234375,-6.4504959898114205,-0.4818792613357305,-7.755368043300509
1667776603551362600,8.291362548828126,-8.00615423746109,2.203611283761263,-5.66495643773973
1667776603561414400,8.301414306640625,-8.691556422001122,4.840695817607641,-3.357299673092365
1667776603571465500,8.311465576171875,-7.357768655151128,7.378277774694562,-2.2388564924046395
1667776603581517600,8.321517578125,-3.874537248057127,9.785677939119935,0.6354755395933985
1667776603591568400,8.331568359375,-2.2107810292601586,9.726505034661292,4.8326571803197265
1667776603601620500,8.341620361328125,-2.5191443831205365,6.292568696612119,6.613781595173478
1667776603611671600,8.351671630859375,-2.101024184989929,2.1630349432229994,6.1422507093727585
1667776603621723400,8.361723388671875,-1.507133578455448,-0.4528659328192472,5.264520949381589
1667776603631774500,8.3717744140625,-1.5016425798237323,-1.6197358752846718,4.645402378088235
1667776603641825500,8.381825439453126,-1.7236510077893732,-1.6823182959258556,4.483321472340822
1667776603651877400,8.39187744140625,-1.8926339480102061,-0.9861626621812581,4.581598598958552
1667776603661928400,8.401928466796875,-2.031176157259941,0.14098200361728666,4.691057337065041
1667776603671980300,8.411980224609374,-2.2183809828698635,1.2810843506664038,4.680977257077395
1667776603682031400,8.42203125,-2.5505881536543367,2.152054699525237,4.351902246838808
1667776603692083500,8.43208349609375,-2.497767248570919,2.771037077218294,2.986600274567306
1667776603702134300,8.44213427734375,-1.747159893670678,2.579343123495579,0.6122191671684384
1667776603712186600,8.4521865234375,0.20379823301434516,2.052597715473175,-2.100313698633015
1667776603722237700,8.46223779296875,3.0920541609466072,1.692643875107169,-5.310390720152855
1667776603732289500,8.47228955078125,4.476419437867403,1.187289045637846,-7.068239181098342
1667776603742340600,8.482340576171875,4.3106911155283445,0.33326807801425457,-6.507887856072187
1667776603752391700,8.4923916015625,4.1810920911908145,-0.48824353567063805,-5.298627217122912
1667776603762443500,8.502443603515625,4.049602723062038,-1.0882248602956532,-3.8103874319687483
1667776603772494600,8.51249462890625,3.8968250677108762,-1.43100018684566,-1.9686933976009486
1667776603782546400,8.52254638671875,3.7105773966953155,-1.3717618159353733,-0.06547116435263306
1667776603792597500,8.532597412109375,3.761900464436412,-0.8068956438332796,1.511715937809646
1667776603802649600,8.542649658203125,3.9708237853795287,-0.0080126260638237,2.7939386448562145
1667776603812700400,8.552700439453124,4.069176607581973,0.8708218802988529,3.718403852537274
1667776603822752500,8.56275244140625,3.8146892208158967,1.3090350183874369,4.4040930373251435
1667776603832803600,8.572803466796875,3.5363194386810064,0.9622411038458347,4.870173841026425
1667776603842855400,8.58285546875,3.6478888853311537,-0.03880407016873359,4.883560853604972
1667776603852906500,8.592906494140625,4.268796970389783,-1.285710841423273,4.554109119008481
1667776603862958300,8.602958251953124,5.001162273895741,-1.7862053713798522,4.581147055798769
1667776603873009400,8.613009521484376,5.533876819455624,-1.1109528249323368,5.022950327333808
1667776603883060500,8.623060546875,5.717359994193911,0.16602467493712902,5.56139260289073
1667776603893112300,8.6331123046875,5.841974800378084,1.266053954795003,5.892126778513193
1667776603903163400,8.643163330078124,5.768913655820489,1.8471043689787388,5.712911198091507
1667776603913215500,8.653215576171876,5.354430352887511,2.189800200551748,5.037030875134468
1667776603923266300,8.663266357421875,5.089003054434061,2.534994863203168,3.984409827661514
1667776603933318400,8.673318359375,5.365898087841272,2.9707775592744348,2.5518138960570096
1667776603943369500,8.683369384765625,6.2139598547995085,3.377949077889323,1.1710514659337699
1667776603953421300,8.69342138671875,7.487523162311315,4.043758673208952,0.6927421720393001
1667776603963472400,8.703472412109376,8.522130414187908,5.518204034027457,1.2770568487159908
1667776603973524700,8.713524658203125,8.38873784278631,7.5290043427348134,2.6937024931252003
1667776603983575800,8.723575927734375,7.516096345844864,8.46973679460585,3.7915859931260347
1667776603993627000,8.733626953125,6.338722545021772,8.698235753634572,4.7094069404870265
1667776604003678700,8.7436787109375,5.190000253665447,9.458779396137595,5.681496069130302
1667776604013729800,8.753729736328125,3.5196874528318642,8.830327763831615,6.433902582406997
1667776604023782000,8.763781982421875,0.8711468744695187,6.484361434534192,5.78539775763154
1667776604033832700,8.773832763671875,-0.9151274704933166,4.529892669379711,3.224114314700663
1667776604043884800,8.783884765625,-1.4101065980292855,3.455807393595576,0.7829929363287985
1667776604053935900,8.793935791015626,-2.446492988407612,3.0395483131617307,0.13208353462964295
1667776604063987700,8.80398779296875,-4.5234459774583575,3.682797701627016,-0.31191958503723144
1667776604074038800,8.814038818359375,-6.229688169807195,5.032317290616035,-1.7334128156080841
1667776604084090600,8.824090576171875,-6.337300987786055,6.049116498601436,-3.2534947229638695
1667776604094141700,8.8341416015625,-5.215192562589049,6.609023002469539,-4.272380381834506
1667776604104193800,8.84419384765625,-3.002310177135467,6.437033866170048,-3.938683264753222
1667776604114244600,8.85424462890625,-1.0835166826047002,5.075843713131547,-2.1839140651226043
1667776604124296700,8.864296630859375,0.3217125917118043,3.7439258318066595,-0.17478548901975155
1667776604134347800,8.87434765625,1.3904337831795215,2.807624640381336,1.7051807005971669
1667776604144398600,8.884398681640626,1.0688166877314447,2.3882313535749913,1.8631266984969377
1667776604154450700,8.89445068359375,-0.4907084644794464,2.7262884194314476,0.5908458320111036
1667776604164501800,8.904501708984375,-2.26218768363148,3.4342508108258247,-1.0342862032286821
1667776604174553900,8.914553955078125,-3.997684904298186,3.7436107745081184,-2.2351273888789116
1667776604184604700,8.924604736328124,-5.0512207285285,3.254060247892141,-2.6438112117528916
1667776604194656800,8.93465673828125,-4.88267062676698,2.5241227560549975,-3.260367823603749
1667776604204707800,8.944707763671875,-5.040467279323935,1.6512597253173589,-3.6506589345663785
1667776604214760000,8.954760009765625,-6.477147849893569,0.9812602770924568,-3.09670257127434
1667776604224810800,8.964810791015625,-7.5184081299185745,0.5001829797893762,-2.4084357910834253
1667776604234862800,8.97486279296875,-7.4385542564809315,0.23237083202600478,-1.7790867715463041
1667776604244914000,8.984913818359376,-7.543255570927262,-0.31702479922175403,-1.5712502229265868
1667776604254965800,8.9949658203125,-7.917485189405083,-1.1241665267705916,-1.8236929521225391
1667776604265016800,9.005016845703125,-8.348056872829794,-1.3081892152130603,-2.114655089326948
1667776604275068000,9.01506787109375,-8.659308349347114,-1.1537737295269965,-2.2319302002727985
1667776604285119700,9.02511962890625,-8.510138947620987,-1.3758657441228628,-2.4311598101973533
1667776604295170800,9.0351708984375,-8.162312182900308,-1.853687254500389,-2.3336815788723526
1667776604305222700,9.04522265625,-7.7296660312891,-2.456378422605991,-1.7410396572247147
1667776604315273700,9.055273681640625,-7.17904231955111,-3.2752795615315438,-1.03612985833399
1667776604325325800,9.065325927734374,-6.896329539775848,-3.9415304708778858,-0.5822741107597946
1667776604335376600,9.075376708984376,-6.366009780398011,-4.522710064399242,-0.5973063332621008
1667776604345428700,9.0854287109375,-5.574207076278329,-5.078399827355146,-0.7016442212235182
1667776604355479800,9.095479736328125,-4.810151626262068,-5.621059428346157,-0.7175420475792139
1667776604365531600,9.10553173828125,-3.9186452698528766,-6.177324360841513,-0.6367086615849286
1667776604375582700,9.115582763671876,-3.013731734859943,-6.61905515166223,-0.41892574235983193
1667776604385633800,9.1256337890625,-1.981492381158471,-6.67526628370583,0.178465894565545
1667776604395685600,9.135685546875,-0.501143933776021,-5.9822664836436505,1.0191527853742242
1667776604405736700,9.14573681640625,1.9213363108813761,-4.391383777877688,1.7725668682582676
1667776604415788500,9.15578857421875,5.614174345007538,-2.274745844170451,2.023078191000223
1667776604425839600,9.165839599609376,9.459525246068834,0.5213894339472055,2.3280431345939636
1667776604435892000,9.17589208984375,10.774399638134241,3.400508700221777,2.240852926918864
1667776604445942800,9.18594287109375,6.417614295428991,4.077310814198851,0.24493732200190424
1667776604455995000,9.195994873046875,-1.8934914416223763,1.251150400173664,-1.9184440965712068
1667776604466046000,9.2060458984375,-7.642054967853427,-2.8631062891066072,-2.5218773152157663
1667776604476097800,9.216097900390626,-12.921873439610003,-5.017023859894276,-2.721392171822488
1667776604486148900,9.22614892578125,-17.41684794034362,-5.445625120028853,-4.361279439254105
1667776604496200700,9.23620068359375,-15.841031870806216,-4.0510511683046815,-7.8582444804072376
1667776604506251800,9.246251708984374,-10.827407590222357,-0.8090180428147316,-9.86893899065256
1667776604516302800,9.256302734375,-3.8062189141124483,3.1674779429823157,-10.250219112163782
1667776604526354700,9.266354736328125,1.2748095081806181,9.140894765216112,-12.305951034009455
1667776604536405800,9.27640576171875,-3.8576580094486475,14.184826505780219,-11.273888790440559
1667776604546457900,9.286457763671875,-8.567271870684623,13.12949093865156,-3.9390649575471874
1667776604556508700,9.2965087890625,-8.890063562870026,9.69437561995089,1.2801314338557421
1667776604566560800,9.306560791015626,-7.999079184508323,6.762568135061859,2.449878831453621
1667776604576611800,9.31661181640625,-7.498553090369701,4.471031315088272,2.7692478557139633
1667776604586663700,9.32666357421875,-6.8992088946044445,2.9174241547495123,3.1615920998141167
1667776604596714800,9.33671484375,-5.6122740643441675,2.3686913713246582,3.609083646118641
1667776604606766600,9.3467666015625,-3.857715877115726,2.562167532289028,3.9532489657223224
1667776604616817700,9.356817626953125,-2.2261703215718267,2.8505490053504703,3.733758658057451
1667776604626869800,9.366869873046875,-1.3049158926308155,2.0529618726104495,3.013525690893829
1667776604636920600,9.376920654296875,-0.8295710014998913,0.402755455738306,3.4439103273138403
1667776604646971600,9.3869716796875,-0.5172691391468047,-0.9540823473095893,4.148539774893224
1667776604657023700,9.397023681640626,-0.15333412019014359,-1.681101321351528,4.1202828177019954
1667776604667074600,9.407074462890625,-0.08178514289432205,-1.3075158459961413,4.013616340662539
1667776604677126700,9.417126708984375,0.00839493991229683,-0.0703401951611042,3.260354964122176
1667776604687177700,9.427177734375,0.5678559285026044,1.4724620780467985,2.6249703176826236
1667776604697229800,9.437229736328124,1.6296131261765956,2.887702385702729,1.9341054838225245
1667776604707281000,9.447281005859375,2.694664908416569,3.7350598037838934,1.0140937484189867
1667776604717332700,9.457332763671875,3.3421652323246,3.734385265523195,0.42956425994783637
1667776604727383800,9.4673837890625,4.138628913992643,3.163212102231383,-0.2517635147601366
1667776604737436000,9.477435791015624,5.060310043913126,2.2625234914571046,-0.44381987205445766
1667776604747486700,9.48748681640625,6.11436550810337,1.3470114055603741,-0.8673495280131697
1667776604757538800,9.497538818359375,7.47779671806693,0.5883481699764728,-1.1264783108443022
1667776604767590000,9.50758984375,9.301416166561841,0.29527824683785436,-0.5983196019578725
1667776604777641700,9.517641845703125,10.914474463778733,0.8224848426312208,0.7929864340115338
1667776604787692800,9.52769287109375,11.479544634020328,1.7334943564116954,2.449520811796188
1667776604797743900,9.537743896484375,10.232218176048994,2.26745568716228,3.875599616591632
1667776604807795700,9.547795654296875,8.292054999622701,1.8843676394462585,4.941108494949341
1667776604817846800,9.5578466796875,6.654225249242782,0.46112055094540116,5.695629808422923
1667776604827898600,9.567898681640624,5.881295003375411,-1.7531535811275243,6.061875442409515
1667776604837949700,9.57794970703125,6.645590691888332,-3.9160938318043943,6.018886780032515
1667776604848001800,9.588001708984375,8.201506129169463,-4.720102522024512,6.260515854269266
1667776604858052600,9.598052490234375,9.949597166210413,-4.243863896924257,6.441558650118112
1667776604868104700,9.608104736328125,11.880513790863752,-3.4755420216351745,7.185522329220175
1667776604878155800,9.61815576171875,13.253895901477335,-2.659510300666094,8.435325406438112
1667776604888207600,9.62820751953125,13.740546614998578,-1.39981769759655,8.362645954674482
1667776604898258700,9.6382587890625,12.603422406977414,-0.1042810432076454,5.492887221941351
1667776604908310500,9.648310546875,10.86580600219965,-0.08949088583290576,2.081471927779913
1667776604918361600,9.658361572265624,9.34528394986093,-0.28018530712425704,0.03251640473399311
1667776604928412700,9.66841259765625,4.051758439791202,0.750847593396902,-1.8712866240769623
1667776604938464800,9.67846484375,-5.2263282891094685,4.203535393667221,-1.8433561223611235
1667776604948515600,9.688515625,-9.800469850060344,9.624024318873882,0.12161503984630107
1667776604958568000,9.69856787109375,-9.834579624933005,14.265041613745689,1.6664511569693683
1667776604968619000,9.708618896484374,-8.786258320480584,15.399098250889777,1.702704081350565
1667776604978671400,9.71867138671875,-3.146102561998367,15.191747293829916,-0.45008273184150455
1667776604988722400,9.728722412109375,1.479330210250616,15.52041343100667,-4.188743774987757
1667776604998774300,9.738774169921875,2.277192068278789,13.558209687685967,-6.733908442288636
1667776605008825300,9.748825439453125,1.8263012349247931,11.518981156873702,-6.5913470605254165
1667776605018877200,9.758877197265624,0.48896439729109403,10.89359417283535,-4.874892101719976
1667776605028928300,9.76892822265625,-0.7788895926631987,12.15357085354328,-3.6116760006994006
1667776605038980400,9.77898046875,-0.827893862067908,14.5112749669075,-3.3415339486837383
1667776605049031200,9.78903125,-0.738090987676382,15.797076993745565,-3.3813574250280856
1667776605059082200,9.799082275390624,-2.23838887489289,14.01770000708103,-2.8324641903445125
1667776605069134300,9.80913427734375,-4.021335244476795,10.428153420603275,-1.168215511855483
1667776605079185200,9.81918505859375,-5.848728366291523,7.337133863401412,0.5216663511924445
1667776605089237200,9.8292373046875,-7.17510790271163,5.142919938060641,1.8290623702012
1667776605099288300,9.839288330078125,-7.717659951674937,3.543777937993407,2.007383632131666
1667776605109340200,9.849340087890624,-8.23155756856203,2.309224452355504,0.9290786928258836
1667776605119391200,9.85939111328125,-8.861868564999103,0.9679331780076026,0.0575850507453084
1667776605129443000,9.869443115234375,-9.494935582146049,-0.3117074035912752,-1.2653205259539186
1667776605139494100,9.879494140625,-9.913460853946209,-1.7709563643217086,-2.4074017718605694
1667776605149546200,9.889546142578125,-9.837040462088584,-3.718473410642147,-3.007468875072896
1667776605159597000,9.89959716796875,-9.356784418040514,-5.726113209491968,-3.383704280415177
1667776605169649200,9.909649169921876,-8.789130661046505,-7.932219817200303,-3.620574761947989
1667776605179700200,9.9197001953125,-8.21853851251304,-10.454162306606769,-3.829961024227738
1667776605189752300,9.92975244140625,-7.619800465947389,-13.112905714553595,-4.547167629307508
1667776605199803100,9.93980322265625,-6.876994724708795,-15.74005454531908,-5.552133776158094
1667776605209854200,9.949854248046876,-6.3058437732487915,-18.036311379551886,-6.1966884020030495
1667776605219906300,9.95990625,-6.246421277943253,-19.878481214737892,-5.71935730549097
1667776605229957000,9.96995703125,-7.094052252268791,-20.60389626071453,-4.491166925144196
1667776605240009200,9.98000927734375,-7.889986941626668,-19.534992771482468,-1.427953074234724
1667776605250060300,9.990060302734374,-7.361744573044777,-16.45856872586608,1.7737150153800845
1667776605260112400,10.0001123046875,-5.587673876094818,-13.331637312805652,3.098402068668604
1667776605270163200,10.0101630859375,-2.3535659906461834,-10.922616853702067,4.272671765996516
1667776605280215300,10.02021533203125,2.7376787052348255,-7.7014540822833775,5.645336375990509
1667776605290266400,10.030266357421874,9.95015830722451,-2.641225286912918,8.156870868629216
1667776605300318200,10.040318115234374,15.365619175136088,3.3829227746486663,9.588820903545617
1667776605310369300,10.050369384765625,13.140098841905592,8.891765106090903,7.937810184553265
1667776605320420400,10.06042041015625,7.575788305741548,9.895444720262288,3.9658278767883774
1667776605330472200,10.07047216796875,-4.576261621844768,5.998344927263259,-0.9714052380323409
1667776605340523300,10.080523193359374,-16.296301942157744,7.038851758572458,-11.241873357498646
1667776605350575000,10.0905751953125,-18.29563334686756,13.264365857565402,-19.014735556435586
1667776605360626200,10.100626220703125,-14.593408475714922,14.325789804697036,-14.93485459948778
1667776605370678300,10.11067822265625,-5.565852504909039,10.318988112485409,-4.854679627035558
1667776605380729000,10.12072900390625,-3.1924563168942925,2.835793334767222,-1.5657821667790413
1667776605390781200,10.13078125,-1.5097802935719489,-3.0768600989460944,-1.8047598497241735
1667776605400832300,10.140832275390625,-1.9560230088591575,-5.918530801314115,-2.0106787281543017
1667776605410884000,10.150884033203125,-4.04130017414093,-7.1267726186096665,-3.5525776227816936
1667776605420935200,10.16093505859375,-5.813258408981561,-6.543199407950043,-5.518829472449421
1667776605430987000,10.170987060546874,-7.3830340293109415,-3.3965853892982003,-6.894682941612601
1667776605441038000,10.1810380859375,-8.404180911111832,2.4777526345461607,-6.103980307689309
1667776605451090400,10.19109033203125,-8.112673414984345,9.306060192975401,-3.3442809093043206
1667776605461141000,10.20114111328125,-6.593967472156882,14.546867673814296,0.07939217421002685
1667776605471192000,10.211192138671874,-5.340549711573123,17.659938903826475,3.7400124577552076
1667776605481244400,10.221244384765624,-2.0430980657219884,18.170027776080367,8.0054452124089
1667776605491295200,10.231295166015625,8.892142122709751,15.116907449162005,11.621706202811001
1667776605501347300,10.241347412109375,14.793945076584816,10.482959362024069,9.8140348495543
1667776605511398400,10.2513984375,11.780692649674416,6.7914657282441855,7.769430470922589
1667776605521450200,10.2614501953125,11.271062042582034,4.698042081385851,7.5229580483078955
1667776605531501300,10.271501220703126,12.013554480087757,3.9564971538633107,5.626309603959322
1667776605541553200,10.28155322265625,13.073960190087556,3.9261429321318864,1.7923486964404582
1667776605551604200,10.291604248046875,12.914725905942916,2.729223888361454,0.134064552379027
1667776605561656300,10.30165625,14.541815066599845,0.9072375940263271,1.983756234437227
1667776605571707100,10.31170703125,17.15061692429185,-0.6770020204633473,4.252876639941334
1667776605581759200,10.32175927734375,17.874724979323148,-2.553597856864333,4.469137464165687
1667776605591810300,10.331810302734375,15.359811365640162,-4.483295168855786,4.108749324035644
1667776605601862100,10.341862060546875,10.731957503724098,-6.178792095306515,4.861089786338806
1667776605611913200,10.351913330078125,6.723989105820656,-7.414322317022084,5.625073924684524
1667776605621964300,10.36196435546875,5.058930572253465,-7.603551341935992,5.031435831606387
1667776605632016100,10.37201611328125,4.92835422731638,-7.1863956049233675,3.4257784582957624
1667776605642067200,10.382067138671875,4.029414506036043,-6.595491905245185,1.6932374570861457
1667776605652119000,10.392119140625,1.4922374764882027,-5.721841523522138,0.1272462506663054
1667776605662170000,10.402170166015624,-0.24108386144414543,-4.959137488114833,-1.023936804780364
1667776605672222200,10.41222216796875,0.28252631729245187,-4.467726428323984,-1.8541390899211168
1667776605682273000,10.42227294921875,2.717166370820999,-3.3952444960832593,-3.3146149620980023
1667776605692325000,10.4323251953125,4.048367628309131,-0.8844517617225647,-4.507698373228311
1667776605702376200,10.442376220703125,3.046075084581971,3.6874732922226188,-4.007978042514622
1667776605712428300,10.45242822265625,3.328192821073532,10.49968604041934,-5.286590742370486
1667776605722479000,10.46247900390625,0.9017675651174039,22.095376342964173,-6.79475834004879
1667776605732531200,10.47253125,-2.2059318356633186,31.73936325341463,-5.756262264040112
1667776605742582300,10.482582275390625,-0.421047483754158,35.25387125778198,-6.155595344114303
1667776605752634400,10.49263427734375,-0.0873524124994874,23.854532379376888,-1.5132766112551093
1667776605762685200,10.502685302734376,-2.7304128058850763,11.776682829511165,0.05492606066912412
1667776605772736300,10.512736328125,-4.731853457833826,10.049652116155624,-1.0842732731256632
1667776605782788400,10.522788330078125,-6.269287189745903,12.370889077866076,-3.8787063504353165
1667776605792839200,10.532839111328125,-7.079983979427814,13.795179537940024,-5.754056278428435
1667776605802891300,10.542891357421874,-6.054661273247003,12.940442531001567,-4.76298246333003
1667776605812942300,10.5529423828125,-5.085394216287136,10.319952573603391,-1.6020960275672376
1667776605822994200,10.562994140625,-5.679679959619045,7.6287822293043135,1.5455539100036024
1667776605833045200,10.573045166015625,-7.568281875634193,5.622291015967726,3.065241849605739
1667776605843097000,10.58309716796875,-8.871101672768592,3.829873930466175,3.581253389906883
1667776605853148200,10.593148193359376,-9.805405552896858,0.6462240203619003,2.134407253023237
1667776605863200300,10.6032001953125,-10.245555796527862,-2.6790836006641388,0.8133334217958151
1667776605873251000,10.6132509765625,-10.645504378151893,-5.243465301871299,-0.6465908809129148
1667776605883303200,10.62330322265625,-11.625707839667797,-7.584485406938195,-3.0817893720418215
1667776605893354200,10.633354248046874,-12.43071138614416,-10.739733982944488,-5.256736286854744
1667776605903406000,10.643406005859376,-12.296000133359431,-14.517772512233256,-5.066880069953203
1667776605913457200,10.65345703125,-12.509646391171216,-18.278730142861605,-4.918647656816244
1667776605923508200,10.66350830078125,-14.063814108002186,-23.07486201159954,-6.086003336971998
1667776605933560000,10.67356005859375,-15.388922893834113,-27.15094591435194,-6.0985875087350605
1667776605943611100,10.683611083984376,-14.40538064328432,-26.74925545749664,-3.765267895042896
1667776605953663200,10.693663330078126,-10.184264000219105,-22.182121729481217,0.24072273651417345
1667776605963714000,10.703714111328125,-6.328894393968582,-17.29327182955742,2.352158754196763
1667776605973766400,10.713766357421875,-3.5652956500574944,-13.58975516502857,1.8335089743465185
1667776605983817200,10.723817138671874,-0.6053428516581654,-10.535712462568283,0.6060530092215165
1667776605993869300,10.733869384765624,3.915043153707683,-7.242981415498257,0.12741404498126357
1667776606003920400,10.74392041015625,13.994711930203437,-2.3344272826731203,2.521578916791081
1667776606013972200,10.75397216796875,24.81998718457222,5.216425319254398,8.047848768374323
1667776606024023300,10.764023193359375,24.16682372033596,13.10703828382492,9.748734402126074
1667776606034074400,10.774074462890624,14.10282042274475,15.438703116047382,9.648990417826175
1667776606044126200,10.784126220703126,-2.0766928768098354,13.556506390899418,9.627207625085115
1667776606054177300,10.79417724609375,-14.725457815814018,12.391627914512156,2.588501412463188
1667776606064229400,10.8042294921875,-20.120594857621192,13.645537258005142,-11.37450605044365
1667776606074280200,10.8142802734375,-14.997062926119565,11.810544182580708,-17.08173920289874
1667776606084332300,10.824332275390624,-5.356679008597135,5.768796166920661,-15.444807862663268
1667776606094383400,10.83438330078125,3.6299627680182454,-4.523932884192466,-14.620692788481712
1667776606104435200,10.844435302734375,-4.464527924543619,-10.476307502919434,-9.533589430189132
1667776606114486300,10.854486328125,-7.774823854398727,-12.070555885726213,-5.560957134082913
1667776606124538000,10.8645380859375,-8.37477127675414,-12.535396918499469,-3.8958626524195075
1667776606134589200,10.874589111328126,-7.906331927227973,-11.439738693332671,-3.6907390160202977
1667776606144641300,10.884641357421875,-7.989052296012639,-6.757161892104149,-3.373355904880166
1667776606154692000,10.894692138671875,-8.977963964641093,1.9580635747760533,-2.109951880072057
1667776606164744200,10.904744140625,-11.70253973493576,22.131600333511827,-3.3768066298559307
1667776606174795300,10.914795166015624,-13.472208982056378,39.17808468315601,-2.3292887507408855
1667776606184847000,10.92484716796875,-8.373755377709864,38.4668711810112,6.041741001397371
1667776606194898200,10.934898193359375,-1.7297995935469865,25.56574359230995,13.064659277778864
1667776606204949200,10.94494921875,6.302212138748168,13.726769434058665,13.881859458005428
1667776606215001000,10.9550009765625,14.475263742327689,4.525450303018093,8.570771403238178
1667776606225052200,10.96505224609375,17.170301283448932,2.2332839529693125,0.42482904811948535
1667776606235104300,10.975104248046875,16.39114646397829,5.066686008685827,-8.433480655354261
1667776606245155300,10.9851552734375,15.5846991484344,6.68813453310728,-11.192006626045703
1667776606255207400,10.99520751953125,14.699328518301249,7.36863900873363,-5.791295583498478
1667776606265258200,11.00525830078125,14.713269365370273,6.972145535999536,1.786283989574015
1667776606275310300,11.015310302734376,18.006497256046533,4.189276566690206,4.699814059494435
1667776606285361400,11.025361328125,20.2993954275012,-0.08426116848587989,5.906019110265373
1667776606295413200,11.035413330078125,18.82494597502947,-3.1515175727844236,7.896986591255664
1667776606305464300,11.04546435546875,14.743009839117526,-5.5684466130554675,9.851847570598125
1667776606315516200,11.05551611328125,9.982478860592842,-7.370557994097471,11.434960811406373
1667776606325567200,11.065567138671875,6.601582038813829,-8.492991997987032,12.128830380040407
1667776606335618300,11.075618408203125,5.609950005310774,-9.65916694392562,10.529155296009778
1667776606345670100,11.085670166015625,7.424598211842775,-11.349900016975402,7.563781641605496
1667776606355721200,11.09572119140625,8.40198252428472,-11.89375671879649,3.288695215682685
1667776606365773300,11.105773193359376,4.2076480896830555,-9.423982223522662,-1.3966907977476715
1667776606375824100,11.11582421875,-2.2078936372555793,-8.389792904797195,-4.75431955666393
1667776606385876200,11.125876220703125,-3.425292428344488,-8.572060274004937,-6.365232950806617
1667776606395927300,11.13592724609375,-0.9025892567638307,-6.893824278956651,-6.471242425242066
1667776606405979100,11.145979248046874,1.4870207647532223,-3.0860715794056652,-5.6446916483461855
1667776606416030200,11.1560302734375,3.0331939756989477,1.1373732143461703,-4.45669240861237
1667776606426082000,11.16608203125,7.5715060983777045,7.239797524765134,-6.298930048337579
1667776606436133000,11.176133056640625,4.318903648078441,21.050092214250565,-9.138255064362287
1667776606446185200,11.186185302734375,-0.6807527512989938,36.00190963897705,-10.628486607855558
1667776606456236000,11.196236083984376,3.1906361157298084,38.61733179159164,-11.681458368462323
1667776606466288400,11.206288330078126,1.5589526130199431,22.672682894444463,-4.063946597974002
1667776606476339500,11.21633935546875,-2.9437559890970584,11.46329609453082,-1.2274378084138036
1667776606486390000,11.22639013671875,-5.726964273363351,12.23307752097845,-1.8574650194734335
1667776606496442400,11.2364423828125,-7.674639140594005,16.247205610555408,-3.4363194337934253
1667776606506493400,11.246493408203126,-7.647305727988481,17.490254537338018,-1.9388022633366286
1667776606516545300,11.256545166015625,-4.77551636621058,15.00956584933996,3.118651660493016
1667776606526596400,11.266596435546875,-2.571522220611572,11.981251462376116,8.08739342777729
1667776606536648200,11.276648193359375,-3.906791750451922,9.64486018615365,9.777418060296773
1667776606546699300,11.28669921875,-6.406495520043372,6.686374537697434,8.527634272301196
1667776606556751400,11.29675146484375,-8.65498990162611,3.8820536150366065,7.19431529200673
1667776606566802200,11.30680224609375,-10.195336013853549,1.6852420744180678,4.76305728213191
1667776606576854300,11.316854248046875,-11.97518178707361,0.20915771422088145,1.7857335160844028
1667776606586905300,11.3269052734375,-13.462857800865173,-1.001849476134777,-1.8604656625941394
1667776606596957200,11.336957275390626,-14.626696997332573,-2.9688311013817787,-5.579844205382466
1667776606607008300,11.34700830078125,-14.852350503802299,-5.98493365702629,-8.460388536024093
1667776606617060000,11.35706005859375,-14.632058232104777,-9.749684834718703,-10.686090071040391
1667776606627111200,11.367111083984375,-15.067668494218587,-15.162979464507101,-10.554266356390714
1667776606637162200,11.377162353515626,-16.778069559812543,-21.60545815207958,-9.258681186684965
1667776606647214000,11.387214111328126,-19.511089333325625,-25.67975341784954,-6.678037501984834
1667776606657265200,11.39726513671875,-17.989279579263926,-25.36283733969927,-4.221758155839145
1667776606667317200,11.407317138671875,-11.929376313710211,-22.110237227487563,-0.42038098266944285
1667776606677368000,11.4173681640625,-6.441206767940521,-18.514183743333817,2.6435347328990697
1667776606687420200,11.427420166015626,-2.5289856859162447,-15.19612536278367,2.8238553519532084
1667776606697471200,11.43747119140625,0.9166583333224058,-11.679289792251586,1.2825716666147111
1667776606707523000,11.447523193359375,5.123797304439544,-7.632844656437635,0.3192643583094701
1667776606717574100,11.45757421875,12.353823376774788,-3.262580238956213,3.1254873517319557
1667776606727626200,11.467626220703124,22.94817273722887,1.4788292749911547,9.463660738438367
1667776606737677300,11.47767724609375,22.38708316105604,7.290049456143379,9.408560782507061
1667776606747729400,11.4877294921875,13.069497949981688,10.22564113574624,6.021532910627126
1667776606757780200,11.4977802734375,6.748894414496421,7.754256867188214,4.072525333487987
1667776606767832300,11.507832275390625,-10.304555097985267,3.1118454876095054,-2.8608135019943117
1667776606777883400,11.51788330078125,-19.599479564440248,1.6792039632976055,-8.806023928180336
1667776606787934200,11.527934326171875,-17.57109742181301,6.8387582252949475,-16.818731240546704
1667776606797986300,11.537986328125,-14.693774391305446,10.439140094041823,-17.935490705931187
1667776606808037400,11.548037353515625,-10.660742863816022,7.095730999135971,-10.398050543284416
1667776606818089200,11.558089111328124,-5.734097778505086,0.5537666859388352,-4.723254848575592
1667776606828140300,11.568140380859376,-4.26554848998785,-2.4541806203007694,-3.6509085254132745
1667776606838192000,11.578192138671875,-2.6266379586338995,-1.8629776454150675,-4.668232926316559
1667776606848243200,11.5882431640625,-1.399373460960388,3.017417729896307,-4.759221064969897
1667776606858295300,11.59829541015625,-3.650336863005161,9.601885552302003,-3.0833351401790976
1667776606868346000,11.60834619140625,-8.2319106197834,13.110313944494724,0.7710808186084032
1667776606878398200,11.618398193359376,-11.68183596960306,14.651328749763964,5.944214108625054
1667776606888449300,11.62844921875,-11.545219175457953,15.532836859250068,10.572284828162193
1667776606898501000,11.638501220703125,-6.061129007956385,15.21404797296524,12.653913407808542
1667776606908552200,11.64855224609375,3.42280821031332,13.292186761426924,13.160440203666687
1667776606918604000,11.65860400390625,12.441478279352188,11.605844616812467,8.23646462982595
1667776606928655000,11.668655029296875,14.993689065772294,11.352077945536374,-0.943067470689863
1667776606938706200,11.6787060546875,15.752446409380434,11.098361543142795,-8.94208834913969
1667776606948758000,11.688758056640625,16.175508155566455,9.313483036452531,-9.698464935091136
1667776606958809000,11.69880908203125,17.255060464584826,7.299729138636589,-3.091577483345568
1667776606968861200,11.708861083984376,18.564616291975973,4.680561369752883,0.829618055512011
1667776606978912000,11.718912109375,19.536498499870298,1.4576076232641935,3.032641602513194
1667776606988964000,11.728964111328125,19.60919198015928,-1.2784230225026607,6.230792916178703
1667776606999015200,11.73901513671875,18.557358868193624,-3.26767668531239,9.315913478469849
1667776607009067000,11.74906689453125,14.453222590911388,-5.473405107358098,11.783241165113449
1667776607019118000,11.7591181640625,6.823825444579124,-7.8652254253357645,12.169939804542064
1667776607029170000,11.769169921875,0.9636199909836053,-9.605103345304727,11.077661284941435
1667776607039221000,11.779220947265625,0.6114978671565652,-10.25225675547123,8.972346709281206
1667776607049273300,11.7892734375,4.781394610594213,-12.182339851909875,5.790924996620416
1667776607059324000,11.799323974609376,7.150644492584466,-13.278685474818944,1.486378082935512
1667776607069375000,11.809375,0.9472340888500214,-10.699778404653072,-3.774876265865564
1667776607079427300,11.81942724609375,-3.5534120277792214,-9.136904818797111,-7.184837854087353
1667776607089478100,11.82947802734375,-0.26935345892123874,-9.049543346208333,-8.240157054603099
1667776607099530200,11.8395302734375,3.7984921192526815,-7.791676205000281,-8.30132668583691
1667776607109581300,11.849581298828125,5.783838837751746,-5.023693839177489,-7.225221886923909
1667776607119633200,11.859633056640625,5.221313091295957,-1.6851491354376076,-5.775076270103455
1667776607129684200,11.869684326171875,4.009216936659812,2.4398762006163595,-5.202915264818072
1667776607139736000,11.879736083984374,3.0867782663702963,9.435318441051244,-7.8996818216890095
1667776607149787100,11.889787109375,-0.052933133286237714,23.135390422320363,-8.958310000622271
1667776607159839200,11.899839111328125,0.15054945790767668,37.664121550941466,-11.133457406443357
1667776607169890000,11.90989013671875,1.0104235354736446,41.95568594119548,-8.878165619805454
1667776607179942100,11.919942138671875,-2.352534747902304,26.625014160799978,-0.5205068424263969
1667776607189993200,11.9299931640625,-5.017394446772337,15.371308911210297,2.6518340669497844
1667776607200045000,11.940045166015626,-7.070376777648925,15.42831733111143,2.4837170959085224
1667776607210096000,11.95009619140625,-6.634388914394378,18.436961387443542,1.214910481404513
1667776607220148000,11.96014794921875,-4.832646951186657,18.983772262895105,1.8008757017672061
1667776607230199000,11.970198974609374,-2.0147835331246258,14.349090016263723,4.217946196335554
1667776607240250000,11.98025,-1.8539909136220811,9.180952050316334,6.3167316624879835
1667776607250302000,11.990302001953125,-4.9337575476646425,5.876238889029621,6.451930991050601
1667776607260353000,12.00035302734375,-7.675784803497791,3.3373376660376786,6.565540419095754
1667776607270405000,12.010405029296875,-9.064211923030019,0.7605693614661693,5.5788072635501615
1667776607280456200,12.020456298828124,-9.967869320482015,-2.1724773098289965,3.208036163341999
1667776607290508000,12.030508056640626,-11.19725329452753,-4.731119590601325,0.08650061797574161
1667776607300559000,12.04055908203125,-12.515594485920667,-6.9548372583240265,-3.337312823857367
1667776607310611200,12.050611083984375,-13.107005550599098,-9.402963985413312,-6.171870771610736
1667776607320662000,12.060662109375,-12.946422189933061,-12.49393561182022,-7.532225642868876
1667776607330714000,12.070714111328124,-13.43076521103382,-16.929044549655913,-7.940353439295292
1667776607340765200,12.08076513671875,-15.542806464600561,-22.80779162211418,-9.29024712229371
1667776607350817300,12.0908173828125,-18.39481502110958,-26.811336358356474,-10.04074634064436
1667776607360868000,12.1008681640625,-17.282252422893045,-27.054981448590755,-8.863097814533115
1667776607370920200,12.110920166015624,-11.840109299761057,-23.73973461833,-4.196064034873247
1667776607380971300,12.12097119140625,-7.156824642524123,-18.029444416391847,0.3593534267874434
1667776607391022000,12.13102197265625,-3.442847958779335,-12.89112641916871,0.38556846635490655
1667776607401074200,12.14107421875,0.5626724614500999,-8.73186622055769,-0.35490737063139677
1667776607411125200,12.151125244140625,4.596346963018179,-4.86593138115108,0.14297343316283076
1667776607421177000,12.161177001953124,10.138250437062979,-0.9476888468801975,2.4345868620365856
1667776607431228200,12.171228271484376,18.947623091149328,4.187556903290749,8.866843430802225
1667776607441280000,12.181280029296875,21.73323229907751,9.50194458412528,12.502357403206824
1667776607451331000,12.1913310546875,12.367063966619968,10.692167929649353,9.323476607200503
1667776607461383200,12.201383056640625,2.6474562902569767,6.017880233338475,6.7608385347902775
1667776607471434200,12.211434326171876,-1.4716729734957217,1.1065239025741815,3.517169332531094
1667776607481486000,12.221486083984376,-9.072276571542025,-1.4439555300086735,-2.3124768782801923
1667776607491537200,12.231537109375,-13.547712843590974,1.4993839872419834,-11.534723500406741
1667776607501589000,12.241589111328125,-11.91335924488902,9.822050982749461,-20.452166068589687
1667776607511640000,12.25164013671875,1.490413914322853,12.594223201477527,-23.18392444386482
1667776607521692200,12.261692138671876,1.825178952896595,4.779801496183872,-12.80826576513052
1667776607531743000,12.271742919921875,-5.7339563242077825,-1.3898235423266887,-4.099238860629499
1667776607541794000,12.2817939453125,-4.830540334296226,-3.6797009046554563,-1.913162356775999
1667776607551846100,12.29184619140625,-4.585794004821777,-2.82733062684834,0.2519070331503637
1667776607561897000,12.30189697265625,-6.033910746163129,2.261286058616638,1.9965686619982121
1667776607571949300,12.31194921875,-8.96040141994357,9.079320644834636,3.5664112100839613
1667776607582000000,12.322000244140625,-11.876049212670326,14.673945070719718,6.843259043845534
1667776607592052200,12.33205224609375,-13.013159392166138,18.247379895830154,11.677637933391331
1667776607602103300,12.342103271484374,-10.673678333234786,19.705942043340205,15.995165616941451
1667776607612155100,12.352155029296876,-2.4125718679748474,16.941244690537452,15.630718556809425
1667776607622206200,12.362206298828125,7.89966253246665,13.180940555381774,11.694645182293653
1667776607632258300,12.37225830078125,13.359695532554387,9.77046751050651,3.3640573306590316
1667776607642309000,12.38230908203125,14.227528167909384,7.893360217452049,-6.543979160150885
1667776607652361200,12.392361328125,14.895882187014818,7.228217561608552,-14.84104585045576
1667776607662412300,12.402412353515626,14.206465506136416,5.853852869698405,-15.054800829339026
1667776607672464100,12.412464111328125,14.044295753061771,4.473844618943334,-7.5483017484009265
1667776607682515200,12.42251513671875,15.432640455007553,4.221651480594277,-0.4191356587834656
1667776607692566300,12.432566162109374,17.084541400837896,2.0906892534583807,1.4598787830665707
1667776607702618000,12.4426181640625,17.474756523954866,-0.9411983158171177,2.6553277542844413
1667776607712669200,12.452669189453125,16.156351035153865,-3.1488772874087094,5.668837078565359
1667776607722721000,12.462720947265625,12.647204265558718,-5.370287262710929,8.536615451136232
1667776607732772000,12.472772216796875,7.531048415783047,-7.337552965596318,10.48111227285266
1667776607742824200,12.48282421875,4.992762694340944,-9.007202918606996,12.104572721618414
1667776607752875000,12.492875,6.076996439173818,-9.860184021788834,12.33091713296175
1667776607762927000,12.502927001953125,8.101785525745154,-11.135836410534381,10.590445923274755
1667776607772978200,12.512978271484375,7.926784932669997,-11.876736610412596,7.775425911945105
1667776607783030000,12.523030029296875,7.049563706722855,-10.869878950726985,4.618485437329113
1667776607793081000,12.5330810546875,5.555763657093048,-8.912143292731047,0.9670357177112251
1667776607803133200,12.54313330078125,0.2513809451833367,-7.425066998398304,-2.0022993146046995
1667776607813184000,12.55318408203125,-3.5465357122689483,-6.430846701967716,-4.31885834763199
1667776607823236400,12.563236328125,-2.766868851622939,-3.777078744345903,-4.71666524105221
1667776607833287200,12.573287109375,-0.06932773018293083,-0.012163316002488135,-3.2668779361501334
1667776607843338200,12.583338134765626,4.719824289605021,4.382861448726057,-3.267234202241897
1667776607853390300,12.593390380859375,6.041618251800537,14.845592261713742,-6.64162295730114
1667776607863441200,12.603441162109375,-0.3610335253614932,31.060880639004704,-6.906354090183973
1667776607873493200,12.6134931640625,0.38455578218102454,39.57732248616218,-11.059469794690608
1667776607883544300,12.62354443359375,3.0092192258715627,32.86817088398933,-9.653695819038152
1667776607893596200,12.63359619140625,0.04058218575716018,16.94572446630001,-3.4869247086539863
1667776607903647200,12.643647216796875,-3.1397847571536897,12.575078940546511,-1.7418439593449233
1667776607913699000,12.653698974609375,-6.0628691296219825,14.811370843160152,-2.6812439935684202
1667776607923750100,12.663750244140624,-8.034124778926373,17.558571117717026,-2.2162818186335262
1667776607933802200,12.67380224609375,-7.341757431548833,17.56889260524511,1.4498906191460788
1667776607943853000,12.68385302734375,-3.965026789538562,14.875074376785754,6.540807544377445
1667776607953905200,12.6939052734375,-2.256492686860263,11.587711578750609,9.687350835880636
1667776607963956200,12.703956298828125,-4.326947546063363,8.40865834878683,8.496732353559135
1667776607974008300,12.71400830078125,-6.964431600621342,4.544102981039882,6.893219883322716
1667776607984059400,12.724059326171876,-8.563968737486004,1.0146949291825293,5.339861144787073
1667776607994111200,12.734111328125,-9.227199422228336,-1.6631705278635025,1.8211190099813044
