time,seconds_elapsed,z,y,x
1667776595279021800,0.019021728515625,-9.105964321610331,-3.326456498800218,-1.4786770070388913
1667776595289072600,0.02907275390625,-9.112854081124066,-3.30877237354964,-1.4759063732817768
1667776595299124700,0.039124755859375,-9.123685856261849,-3.2743194843277332,-1.485790346175432
1667776595309175800,0.04917578125,-9.137266053324938,-3.226327314575016,-1.5071718646392225
1667776595319227600,0.0592275390625,-9.152168438902496,-3.168546448996663,-1.5389964511841534
1667776595329278700,0.06927880859375,-9.165565096092223,-3.1056819965437055,-1.5866763401173054
1667776595339329800,0.079329833984375,-9.17254837910831,-3.046271191675961,-1.659812449607253
1667776595349381600,0.089381591796875,-9.168729113081097,-3.0009727910518644,-1.7603851398162542
1667776595359432700,0.0994326171875,-9.15203399886787,-2.9780902203753588,-1.8819231689035891
1667776595369484500,0.109484619140625,-9.119461516565083,-2.9815315930008888,-2.0288592586196956
1667776595379535600,0.11953564453125,-9.067575261983276,-3.0102777950137853,-2.2108121550507844
1667776595389588000,0.129587890625,-8.99499810155034,-3.0574542644694445,-2.4315359500333664
1667776595399638500,0.139638427734375,-8.905996460539102,-3.11006503393352,-2.6797590157076714
1667776595409689600,0.149689697265625,-8.814712261548637,-3.1523353189080954,-2.921303918792307
1667776595419742000,0.159741943359375,-8.744386094912887,-3.1763857643201945,-3.101075964052975
1667776595429792800,0.169792724609375,-8.696234350684284,-3.1913486479133364,-3.21887933665663
1667776595439844900,0.179844970703125,-8.653483004194497,-3.209921246436238,-3.314215149125457
1667776595449896000,0.18989599609375,-8.608403507018089,-3.2335300855606794,-3.407352867028117
1667776595459947800,0.19994775390625,-8.568734344452619,-3.2420448159277435,-3.498045822127163
1667776595469998800,0.209998779296875,-8.541985453736782,-3.2235850301295517,-3.5795758120834824
1667776595480050000,0.2200498046875,-8.540117906299233,-3.1850507168129085,-3.6183176306709646
1667776595490101800,0.230101806640625,-8.573639652150868,-3.119013771803677,-3.5965044427916406
1667776595500152800,0.24015283203125,-8.635936826109885,-3.02556187338531,-3.526606730701029
1667776595510204700,0.25020458984375,-8.716421398666501,-2.927718462009728,-3.409229182294011
1667776595520255700,0.260255859375,-8.79917333163321,-2.856681516756117,-3.253352391883731
1667776595530307800,0.270307861328125,-8.864498913502693,-2.8241087421923874,-3.1008789801761507
1667776595540358700,0.280358642578125,-8.910908197978138,-2.8257115012139082,-2.963352669970691
1667776595550409700,0.29040966796875,-8.945137799838184,-2.847497216564417,-2.836663395600021
1667776595560461800,0.3004619140625,-8.96428322981298,-2.879936135615408,-2.7418931080594655
1667776595570513000,0.310512939453125,-8.971077712258696,-2.9298382306426762,-2.6657451034024358
1667776595580564700,0.320564697265625,-8.972774579304456,-2.99429550524503,-2.58725725762099
1667776595590615800,0.33061572265625,-8.976725947278737,-3.063596712747216,-2.49061240838021
1667776595600667600,0.340667724609375,-8.969715191733837,-3.131433400654793,-2.430784401013702
1667776595610718700,0.35071875,-8.964882949271798,-3.193756001316011,-2.366680762154609
1667776595620770800,0.360770751953125,-8.972555383595823,-3.247072288700938,-2.262775566522032
1667776595630821600,0.370821533203125,-8.99011032950878,-3.293918795549869,-2.1209438142076134
1667776595640872700,0.380872802734375,-9.0110736225605,-3.341414998479187,-1.9508656260959802
1667776595650924800,0.3909248046875,-9.025366936329007,-3.396237306512892,-1.7828946393966674
1667776595660975600,0.4009755859375,-9.028042877539992,-3.4650942773789164,-1.6303224434897303
1667776595671027700,0.41102783203125,-9.012949937826395,-3.5619136064037678,-1.4999622255213558
1667776595681078800,0.421078857421875,-8.977294687077402,-3.6946360234588385,-1.388608613578975
1667776595691131000,0.431130859375,-8.927320988118648,-3.85215122872591,-1.278379767882824
1667776595701181700,0.441181640625,-8.87050896757245,-4.020437711115181,-1.1491442430954426
1667776595711232800,0.451232666015625,-8.814590096473694,-4.181089168581367,-0.9959294384360313
1667776595721284900,0.461284912109375,-8.760787194615602,-4.325563105967641,-0.8417178047589957
1667776595731336000,0.4713359375,-8.703322263118624,-4.464764363647997,-0.6988849125780164
1667776595741387800,0.4813876953125,-8.648065655320883,-4.587833401694893,-0.5771704309452325
1667776595751438800,0.49143896484375,-8.598101893234253,-4.6904532336920495,-0.4926164535252377
1667776595761491000,0.501490966796875,-8.5491142827034,-4.78421668227762,-0.44079084308948363
1667776595771541800,0.511541748046875,-8.503535603833198,-4.871760233435034,-0.35528139157555993
1667776595781592800,0.5215927734375,-8.449441610074043,-4.975571905565261,-0.1449223204745911
1667776595791645000,0.53164501953125,-8.372325052645802,-5.10345711172223,0.17112188847828655
1667776595801695700,0.54169580078125,-8.27894943433404,-5.2306286166518925,0.5195232016839086
1667776595811747800,0.551747802734375,-8.188137529030442,-5.331765516614913,0.8349042522866278
1667776595821799000,0.561798828125,-8.121860930046438,-5.390216536539793,1.0729972613517194
1667776595831850800,0.571850830078125,-8.092033947059512,-5.401040712893009,1.2321242126643657
1667776595841901800,0.58190185546875,-8.09459356841445,-5.365765985894203,1.362532945949584
1667776595851953700,0.59195361328125,-8.110894714874028,-5.296216064327955,1.5276989582307636
1667776595862004700,0.602004638671875,-8.127747649997472,-5.21172167160809,1.7169924266830086
1667776595872055800,0.612055908203125,-8.153531495073437,-5.1227223686844106,1.8568861966721713
1667776595882107600,0.622107666015625,-8.207924764040111,-5.023746446147561,1.8874135830134153
1667776595892158700,0.63215869140625,-8.29120159766376,-4.898204588246346,1.853091918955743
1667776595902210800,0.6422109375,-8.394848434621094,-4.7401542531892655,1.7966189211055634
1667776595912261600,0.65226171875,-8.509951900616288,-4.548851636871695,1.7490141432352364
1667776595922313700,0.662313720703125,-8.626767431226373,-4.331654993101954,1.7280130023911595
1667776595932364800,0.67236474609375,-8.743770008841157,-4.095843080711364,1.714916935583204
1667776595942415600,0.68241552734375,-8.859775976634024,-3.8524490426287055,1.683266682691872
1667776595952467700,0.6924677734375,-8.974723375284672,-3.605652794887125,1.619872507276386
1667776595962519300,0.702519287109375,-9.086864484342932,-3.3574580785244703,1.5253694923698902
1667776595972571400,0.7125712890625,-9.19455153660178,-3.105662415060401,1.409065272282809
1667776595982622500,0.72262255859375,-9.296642376288771,-2.844051752285659,1.2861542012766003
1667776595992674300,0.73267431640625,-9.390601347446442,-2.5739143764451144,1.1670278364408762
1667776596002725400,0.742725341796875,-9.474236492988467,-2.3047126740194854,1.0476313494268805
1667776596012777200,0.752777099609375,-9.546184707868099,-2.0463222884655,0.923748583844304
1667776596022828300,0.762828369140625,-9.60633142579496,-1.8050474344938991,0.7940912534482777
1667776596032879400,0.77287939453125,-9.654923315006494,-1.5870565716065466,0.6588546616151929
1667776596042931200,0.78293115234375,-9.692260819754004,-1.3970694218017161,0.527881937771663
1667776596052982300,0.792982177734375,-9.71934814864397,-1.2373507151409984,0.4166803745858371
1667776596063034400,0.803034423828125,-9.737814364182949,-1.1087619638245552,0.34059619241263717
1667776596073085200,0.813085205078125,-9.749622875398396,-1.0124829522214829,0.30018437652001156
1667776596083137300,0.82313720703125,-9.75668623791337,-0.9470452152144163,0.2838385872011073
1667776596093188400,0.833188232421875,-9.76069488903284,-0.9070730511143803,0.27647976713720707
1667776596103239400,0.843239501953125,-9.764134800353645,-0.8769115024108439,0.2511659689920954
1667776596113291500,0.85329150390625,-9.768505855044722,-0.8376669219329953,0.2121157237762585
1667776596123342300,0.86334228515625,-9.77298387724161,-0.7923167911216616,0.1772020851748064
1667776596133394400,0.87339453125,-9.777040459156035,-0.7498958456300199,0.13236676288465968
1667776596143445500,0.883445556640625,-9.7800747122854,-0.717701475924626,0.07367910292600281
1667776596153497300,0.893497314453125,-9.781552968144416,-0.7011368562232703,0.004079152507959224
1667776596163548400,0.90354833984375,-9.78109937915802,-0.7039559322319925,-0.07016434997043107
1667776596173599500,0.913599609375,-9.778483059179782,-0.7292758861232549,-0.14073270503133534
1667776596183651300,0.9236513671875,-9.773587688353658,-0.7786594371691345,-0.20262171831456943
1667776596193702400,0.933702392578125,-9.766484578350186,-0.8489473906863481,-0.2558449936538003
1667776596203754500,0.94375439453125,-9.757752405840158,-0.9320814548384397,-0.2964344676682725
1667776596213805300,0.953805419921875,-9.748158063542842,-1.021509796829149,-0.3167348763644695
1667776596223857400,0.963857421875,-9.73796224822104,-1.1144592986833304,-0.3169562274975702
1667776596233908500,0.973908447265625,-9.727339731919765,-1.2073482294566928,-0.3025759478316642
1667776596243960300,0.983960205078125,-9.716572254189849,-1.2969259167902172,-0.27675622772471975
1667776596254011400,0.994011474609375,-9.705871411955355,-1.3809354486025869,-0.24384572737291454
1667776596264062500,1.0040625,-9.6951232234478,-1.4600406956300138,-0.20797308927988634
1667776596274114300,1.0141142578125,-9.68411842983067,-1.5359972693681716,-0.17015432208776474
1667776596284165400,1.024165283203125,-9.672669984099269,-1.6100005170814693,-0.13320009016995318
1667776596294217500,1.034217529296875,-9.660550507238506,-1.6834304949514567,-0.10104818963310681
1667776596304268300,1.044268310546875,-9.6477874717772,-1.7564217891432343,-0.07455389473284595
1667776596314320400,1.0543203125,-9.63424702220261,-1.8300315074943005,-0.051507931921863925
1667776596324371500,1.064371337890625,-9.619723406809568,-1.90538777725175,-0.028430484843940937
1667776596334422300,1.07442236328125,-9.60399801441133,-1.983332748328149,-0.001100237375929646
1667776596344474400,1.084474365234375,-9.587032266563176,-2.0635253522008656,0.0324852789433673
1667776596354525400,1.094525390625,-9.568835515615344,-2.1453679152376948,0.07189208707849029
1667776596364577300,1.104577392578125,-9.549490179154276,-2.2282008044861255,0.11288236501277424
1667776596374628400,1.11462841796875,-9.529683070400356,-2.3092381886199114,0.15147443639864214
1667776596384680200,1.12468017578125,-9.510741054043173,-2.3836430028714237,0.18556589929647743
1667776596394731300,1.134731201171875,-9.493699902871251,-2.4479706597447395,0.21791876576552166
1667776596404783400,1.144783447265625,-9.478582413238286,-2.5027912142127753,0.25078529911143704
1667776596414834400,1.15483447265625,-9.464742103934288,-2.5512095004230737,0.28350171992955725
1667776596424885200,1.16488525390625,-9.451749935892224,-2.5955691588923333,0.3127752154858783
1667776596434937600,1.1749375,-9.439366255137324,-2.6374861003845926,0.33527806612979616
1667776596444988400,1.184988525390625,-9.427031089699268,-2.6800293570816516,0.34483087084032593
1667776596455040500,1.19504052734375,-9.413743738102912,-2.727862536880374,0.332532457216084
1667776596465091600,1.205091552734375,-9.400205042093992,-2.777312796486914,0.30505945347677915
1667776596475143400,1.215143310546875,-9.387283601200581,-2.824825366029143,0.263927963273786
1667776596485194500,1.225194580078125,-9.374870109829306,-2.869738858988881,0.21632428138200194
1667776596495246300,1.235246337890625,-9.363776468884945,-2.9084885686218738,0.17542126617264
1667776596505297400,1.24529736328125,-9.35492797651887,-2.938098693987727,0.15257487192121333
1667776596515348500,1.255348388671875,-9.348551427224278,-2.9582725902274247,0.15360077176969497
1667776596525400300,1.265400390625,-9.343944810211658,-2.9715523430392143,0.17594006588235497
1667776596535451400,1.275451416015625,-9.34043534078598,-2.9801775480434296,0.21257976109143345
1667776596545503500,1.28550341796875,-9.336291080588103,-2.9903844692811368,0.24829567425278945
1667776596555554300,1.29555419921875,-9.32887115972042,-3.0107232006937266,0.2794563352625817
1667776596565606400,1.3056064453125,-9.318462578430772,-3.039563802991807,0.312549845764786
1667776596575657500,1.315657470703125,-9.306119814208149,-3.07306304475069,0.35043154039159413
1667776596585708300,1.325708251953125,-9.29248525660932,-3.1086279868677256,0.3956433221781626
1667776596595760400,1.335760498046875,-9.278308847218751,-3.143269676660001,0.4508028262769803
1667776596605811500,1.3458115234375,-9.263791661566495,-3.1763150371715425,0.5133891924409195
1667776596615863300,1.35586328125,-9.248400615689158,-3.2096076504424214,0.5795557551791891
1667776596625914400,1.365914306640625,-9.230821119856834,-3.247158505679667,0.6467494324754923
1667776596635966200,1.37596630859375,-9.20981106505394,-3.292479702657461,0.7136844223029911
1667776596646017300,1.386017333984375,-9.184320649966597,-3.347909036673605,0.7811172786500304
1667776596656069400,1.3960693359375,-9.153010734945536,-3.4158605831325053,0.8512785370476543
1667776596666120200,1.4061201171875,-9.115224901908636,-3.4962788124546407,0.9268723418880254
1667776596676171300,1.416171142578125,-9.071324385383724,-3.585632627904415,1.0122709899712354
1667776596686223600,1.4262236328125,-9.022614422750472,-3.6773975961491465,1.1133540408551692
1667776596696274200,1.436274169921875,-8.969887041169404,-3.7670053863599895,1.2333617916353046
1667776596706326500,1.446326416015625,-8.913204199960827,-3.852982418853044,1.3710216650925575
1667776596716377600,1.456377685546875,-8.853122948485613,-3.9342534656122323,1.5212661487042902
1667776596726429400,1.466429443359375,-8.791557011410594,-4.008171811521053,1.6773381694257259
1667776596736480500,1.47648046875,-8.732408656871318,-4.068596469606459,1.8335626042298971
1667776596746531600,1.486531494140625,-8.67964503493309,-4.109214018937945,1.9870831869028507
1667776596756583400,1.49658349609375,-8.635601895067095,-4.127024985438585,2.1364523489847778
1667776596766634500,1.506634521484375,-8.600960789796709,-4.123056666329503,2.2790911798983813
1667776596776686300,1.516686279296875,-8.575302032405137,-4.1007261765778065,2.4121819918744265
1667776596786737400,1.5267373046875,-8.557948746544122,-4.065198059339821,2.531019529831409
1667776596796789500,1.53678955078125,-8.549979375100135,-4.019783923381567,2.628606628358364
1667776596806840300,1.54684033203125,-8.553842480269074,-3.9643487441465255,2.6992779551699755
1667776596816892400,1.556892333984375,-8.570738085490465,-3.8969960403636095,2.743403220361471
1667776596826943500,1.566943603515625,-8.599165723073481,-3.818252758516371,2.7650816759452224
1667776596836994300,1.576994384765625,-8.635360487526654,-3.7342502409666776,2.7670035839185116
1667776596847046400,1.58704638671875,-8.675955532765387,-3.6506922523140903,2.7514775134846565
1667776596857097500,1.597097412109375,-8.718104821708797,-3.5697006070181727,2.724383462592959
1667776596867149300,1.6071494140625,-8.759866572639346,-3.492333874221146,2.6904882072538134
1667776596877200400,1.617200439453125,-8.801085887256264,-3.417423302404582,2.6518846280932427
1667776596887252200,1.627252197265625,-8.842143289309739,-3.3406130344465375,2.6128885424837467
1667776596897303300,1.63730322265625,-8.881778549605608,-3.2598619199082255,2.580250885990262
1667776596907355400,1.64735546875,-8.917298775798082,-3.180771432058513,2.556337218700349
1667776596917406200,1.65740625,-8.94636003510952,-3.1125168109998107,2.538753631214797
1667776596927457300,1.667457275390625,-8.968326952245832,-3.0599037034481764,2.5251702192813155
1667776596937509400,1.67750927734375,-8.984319471147655,-3.0218346695557234,2.514139998961985
1667776596947560200,1.687560302734375,-8.996336072155833,-2.9941674949511885,2.5042531034588813
1667776596957611800,1.69761181640625,-9.00652545773685,-2.972126051273942,2.4938623500868675
1667776596967662800,1.707662841796875,-9.016611382943392,-2.9550927911475298,2.4776067963346837
1667776596977714700,1.717714599609375,-9.028110097557306,-2.944274167752266,2.4484403230831027
1667776596987765800,1.727765869140625,-9.042348466268182,-2.9387063044920563,2.402149404290318
1667776596997816800,1.73781689453125,-9.059921532359718,-2.9356355187445877,2.3388567895531653
1667776597007868700,1.74786865234375,-9.080962566822766,-2.9305671294391153,2.262360702110827
1667776597017919700,1.757919677734375,-9.104788848090172,-2.918990088891983,2.1800683494798836
1667776597027971800,1.767971923828125,-9.129506525239348,-2.901616637025773,2.098360372608155
1667776597038022700,1.778022705078125,-9.153612207970022,-2.882704431284964,2.0178661554403603
1667776597048075000,1.788074951171875,-9.176340757128596,-2.8639035769641397,1.939899703184515
1667776597058125800,1.798125732421875,-9.197750040382147,-2.842728102466464,1.8683342040121553
1667776597068178000,1.808177978515625,-9.21885420320928,-2.814867743377387,1.805444909378886
1667776597078229000,1.81822900390625,-9.241434868329764,-2.7762451672554014,1.7489203274719416
1667776597088280000,1.828280029296875,-9.266515533572434,-2.7250319896295667,1.6959582603521643
1667776597098332000,1.838331787109375,-9.294546280792355,-2.6605069104880092,1.6442309957243502
1667776597108383000,1.848383056640625,-9.325313759499787,-2.584332602345943,1.59063998305127
1667776597118434800,1.858434814453125,-9.357454864647984,-2.4995135077163577,1.5365074108473955
1667776597128486000,1.86848583984375,-9.388839013949037,-2.411484511129558,1.484866655459255
1667776597138538000,1.8785380859375,-9.417188910120725,-2.3275509671628476,1.4385570319660008
1667776597148588800,1.8885888671875,-9.440414887407421,-2.2550334279626605,1.4013462223380804
1667776597158641000,1.898640869140625,-9.45688671425879,-2.199544034322351,1.3782910715736447
1667776597168692000,1.90869189453125,-9.466600299021602,-2.1613186408244074,1.3720662057094275
1667776597178742800,1.91874267578125,-9.4711513864547,-2.1374327383242546,1.3780642770804463
1667776597188795000,1.928794921875,-9.472855267763137,-2.1223473973952234,1.3896174983605742
1667776597198846000,1.938845947265625,-9.474125433829427,-2.109256006762385,1.4008471867747605
1667776597208897800,1.948897705078125,-9.477301141256094,-2.0920948824726042,1.4050940305642783
1667776597218948900,1.958948974609375,-9.483701071426271,-2.068131092430651,1.3973638747036456
1667776597229000700,1.969000732421875,-9.493214165180921,-2.0382380584701894,1.3765379442960024
1667776597239051800,1.9790517578125,-9.50516997591257,-2.006469147635251,1.3402264215953648
1667776597249102800,1.989102783203125,-9.51874900393188,-1.9767633068099617,1.2869392141744493
1667776597259154700,1.99915478515625,-9.53273602823019,-1.9521023282840846,1.219274521832913
1667776597269205800,2.009205810546875,-9.546198151871561,-1.9330000067986546,1.1419278089106082
1667776597279257900,2.0192578125,-9.558095510414242,-1.9189432782649993,1.063414463361725
1667776597289308700,2.02930859375,-9.567434416645765,-1.909516109228134,0.9941508844561874
1667776597299360800,2.03936083984375,-9.573492401510476,-1.907453623740375,0.9382156467445194
1667776597309411800,2.049411865234375,-9.576164835590124,-1.9155632804378866,0.8933496461883187
1667776597319463700,2.059463623046875,-9.575794833233951,-1.934398913811147,0.855944994488731
1667776597329514800,2.0695146484375,-9.57309375758171,-1.9622228864125906,0.8221577295687049
1667776597339565800,2.07956591796875,-9.569033668535948,-1.9961660725466905,0.7869535835880785
1667776597349618000,2.089617919921875,-9.564653846016526,-2.032768394887447,0.7454103707790374
1667776597359668700,2.099668701171875,-9.56071007682681,-2.069521523875743,0.6930288800261915
1667776597369720800,2.109720947265625,-9.55744844468236,-2.105208046545833,0.6274233121715486
1667776597379772000,2.11977197265625,-9.554432896253466,-2.1399030739605425,0.5513760644752532
1667776597389824000,2.129823974609375,-9.550738717910647,-2.1749600665554403,0.47256574527379125
1667776597399874800,2.139874755859375,-9.545440026980637,-2.2126959229707714,0.39866383904311803
1667776597409927000,2.149927001953125,-9.537536121988296,-2.257038922566175,0.3340050139866769
1667776597419978000,2.15997802734375,-9.525691370415688,-2.3141975645929573,0.27582493822397663
1667776597430028800,2.17002880859375,-9.508595858708023,-2.3896697158150375,0.21557496085204184
1667776597440081000,2.180080810546875,-9.485807103794812,-2.4835455387338996,0.1478143247222062
1667776597450132000,2.190132080078125,-9.458735556995869,-2.5879198131829497,0.07335624591349624
1667776597460183800,2.200183837890625,-9.430323116981983,-2.69060628067553,-0.0053058518939797066
1667776597470235000,2.21023486328125,-9.403736138829588,-2.7808444777444,-0.08384569215332158
1667776597480286700,2.22028662109375,-9.381703170719742,-2.851287841019034,-0.1555110441041179
1667776597490337800,2.230337890625,-9.365584395089744,-2.90058817076087,-0.20688253583051264
1667776597500388900,2.240388916015625,-9.354058792468905,-2.9363930591136214,-0.2226306880498305
1667776597510440700,2.250440673828125,-9.346357716572284,-2.962351676234603,-0.20112883114200084
1667776597520491800,2.26049169921875,-9.341835855233668,-2.979699701398611,-0.1479233837204054
1667776597530543900,2.2705439453125,-9.337789210191369,-2.995059767615795,-0.07547210098973009
1667776597540595000,2.280594970703125,-9.332060311150551,-3.0138074304446576,-0.0015156940864762872
1667776597550646800,2.290646728515625,-9.324106721797586,-3.0377132066890598,0.060929867661185556
1667776597560697900,2.30069775390625,-9.314666108757256,-3.0654782887101173,0.1011210722062271
1667776597570749700,2.310749755859375,-9.304038916280865,-3.0970354564905165,0.11667305339947343
1667776597580800800,2.32080078125,-9.291822408786416,-3.1335180979743598,0.11612997776502743
1667776597590851800,2.330851806640625,-9.27665231218338,-3.178291013419628,0.11211973747666924
1667776597600903700,2.340903564453125,-9.257508635774254,-3.233358528386056,0.11960998363420366
1667776597610954800,2.350954833984375,-9.234768980699776,-3.296442761069536,0.15130761019806377
1667776597621006800,2.3610068359375,-9.21020094115436,-3.361622504727542,0.20512553609535097
1667776597631057700,2.3710576171875,-9.184308375006914,-3.427065575496852,0.27219381518000735
1667776597641110000,2.381110107421875,-9.157399325293301,-3.4918194949582215,0.34585703555028885
1667776597651160800,2.391160888671875,-9.130227825251222,-3.5575726545900106,0.39115711667481806
1667776597661213000,2.401212890625,-9.108346832832693,-3.611256021721661,0.4089371400479227
1667776597671264000,2.411263916015625,-9.09619286918044,-3.6428684268206357,0.3989611049566418
1667776597681315000,2.421315185546875,-9.093108347168565,-3.654270403061807,0.3634172056276351
1667776597691367000,2.431366943359375,-9.096201637008786,-3.651142918691039,0.31409309315141287
1667776597701418000,2.44141796875,-9.103440940612554,-3.637028176359832,0.2641378248984925
1667776597711469800,2.4514697265625,-9.113616882190108,-3.6142321149230003,0.22293387224748729
1667776597721521000,2.46152099609375,-9.124467946550249,-3.5881776362121105,0.19860970619423313
1667776597731573000,2.471572998046875,-9.132813750091195,-3.5671216964408754,0.1942646261946298
1667776597741623800,2.481623779296875,-9.136437201285363,-3.5572593508571386,0.20445366471577434
1667776597751676000,2.491676025390625,-9.135310827603936,-3.5590324980095027,0.22308425876991822
1667776597761727000,2.50172705078125,-9.131261844474077,-3.568001986406743,0.2445561223982833
1667776597771777800,2.51177783203125,-9.127343794247507,-3.576928220184147,0.25992599762342866
1667776597781830000,2.521829833984375,-9.127160254374147,-3.5772222346946596,0.26232354201814156
1667776597791881000,2.531880859375,-9.133365538755058,-3.5621526758566495,0.251172069939319
1667776597801932800,2.541932861328125,-9.146104024297,-3.530627949041128,0.2320251603934914
1667776597811984000,2.55198388671875,-9.163578306189178,-3.4861557701081036,0.21432322549158705
1667776597822035700,2.56203564453125,-9.182833626279235,-3.4355873201265927,0.20662116321427745
1667776597832086800,2.572086669921875,-9.201132668557763,-3.385743092766404,0.21514296264294533
1667776597842139000,2.582138916015625,-9.216367062568665,-3.342366307854652,0.23990310896066946
1667776597852189700,2.592189697265625,-9.226980226519704,-3.309967720814049,0.2780865264804102
1667776597862240800,2.60224072265625,-9.232245599702,-3.2910102146267888,0.3244751152276993
1667776597872292900,2.61229296875,-9.23295696284175,-3.2839480211555956,0.3722621177971363
1667776597882343700,2.62234375,-9.231299843284487,-3.2835119678258895,0.41476741710398346
1667776597892395800,2.632395751953125,-9.229174521693587,-3.285034647348523,0.4486262128902599
1667776597902446800,2.64244677734375,-9.229482564729452,-3.2810315491870043,0.4710223517566919
1667776597912499000,2.6524990234375,-9.235943869698048,-3.2617455416977403,0.47827035012356933
1667776597922550000,2.662550048828125,-9.248670080280304,-3.226909790638089,0.4685550117950886
1667776597932600800,2.672600830078125,-9.265123202431202,-3.18282836458832,0.44439372641965746
1667776597942653000,2.68265283203125,-9.283469006460905,-3.133557260940969,0.4103710818411782
1667776597952704000,2.6927041015625,-9.30190482686162,-3.082949940253794,0.3746568674465641
1667776597962755800,2.702755859375,-9.318809784433245,-3.035015930429101,0.34474779566675423
1667776597972807000,2.712806884765625,-9.333823229169845,-2.9908924188032744,0.3235666220806539
1667776597982859000,2.72285888671875,-9.347714976400136,-2.949246403206885,0.3042213586848229
1667776597992909800,2.732909912109375,-9.361583342754841,-2.9078604998514055,0.27476059692809357
1667776598002962000,2.7429619140625,-9.376631274282932,-2.8628111055523155,0.23126148254461584
1667776598013013000,2.753012939453125,-9.393906234210728,-2.809810752248764,0.17285598226189614
1667776598023063800,2.763063720703125,-9.413940137457846,-2.7456109595388174,0.09868545169029384
1667776598033116000,2.773115966796875,-9.436692067492007,-2.668144858020544,0.015069642178044886
1667776598043167000,2.7831669921875,-9.46158568572998,-2.5776836658507585,-0.06577233925629407
1667776598053219000,2.793218994140625,-9.48681891118586,-2.480200319959223,-0.13876529568219556
1667776598063270000,2.803269775390625,-9.510780217009783,-2.3825093226663765,-0.19773228403888643
1667776598073322000,2.813322021484375,-9.53107598606348,-2.2979905261576175,-0.219587977619376
1667776598083373000,2.823373046875,-9.544734509059786,-2.2427049845263363,-0.19672308873003347
1667776598093425200,2.833425048828125,-9.550572129172085,-2.2215184041127563,-0.14767562863756903
1667776598103476000,2.84347607421875,-9.550353517985343,-2.225857456230372,-0.08178539862264879
1667776598113528000,2.853528076171875,-9.546104628369212,-2.2454690424121915,-0.011646869221708038
1667776598123579100,2.8635791015625,-9.539776009869575,-2.2716933247320354,0.04966442751360591
1667776598133630000,2.8736298828125,-9.533325810816883,-2.297231962875277,0.09386987723526544
1667776598143682000,2.88368212890625,-9.528388354414702,-2.316546465806663,0.11753823712775482
1667776598153733000,2.893733154296875,-9.526141452270746,-2.3256271594934166,0.12028000098341143
1667776598163785000,2.903784912109375,-9.527131047829984,-2.322277410674095,0.10575319811943917
1667776598173836000,2.9138359375,-9.531252511674165,-2.3062455826751886,0.08269672304759733
1667776598183888000,2.923887939453125,-9.537729598733781,-2.280003618568182,0.06064608228374272
1667776598193939000,2.93393896484375,-9.545309094077348,-2.2484159095190464,0.045680773838073944
1667776598203990000,2.943989990234375,-9.552424479040504,-2.2180469286099074,0.04282850337922573
1667776598214041900,2.954041748046875,-9.557938274025917,-2.1939494291856882,0.05280873972158879
1667776598224093000,2.964093017578125,-9.56141734831333,-2.1781018717125056,0.07455279418772552
1667776598234145000,2.97414501953125,-9.563009001418948,-2.169715736161172,0.10761684570000506
1667776598244195800,2.98419580078125,-9.56317500563562,-2.166447820406407,0.15023361515784636
1667776598254248000,2.994248046875,-9.5625185875535,-2.1652526192724704,0.2007583355954848
1667776598264299000,3.004299072265625,-9.561915360963344,-2.16223181014657,0.25478620531586926
1667776598274350800,3.014350830078125,-9.562764086747169,-2.1523870002195236,0.3019293570238165
1667776598284402000,3.02440185546875,-9.56684755666852,-2.129355960983038,0.33415461505781857
1667776598294453000,3.034452880859375,-9.574891162392497,-2.0901221210949124,0.3510502202792093
1667776598304504800,3.0445048828125,-9.58633610099256,-2.036412158217281,0.3543641671327874
1667776598314556000,3.054555908203125,-9.599529929086565,-1.9749295155115425,0.34506000342108306
1667776598324608000,3.06460791015625,-9.612618543240428,-1.9133407820828259,0.3272245235336944
1667776598334658800,3.074658935546875,-9.623839025434851,-1.8595707595810294,0.30675745303370056
1667776598344711200,3.084711181640625,-9.632225160986184,-1.8183973299324512,0.2899295062210411
1667776598354762000,3.094761962890625,-9.637613868287206,-1.7910228546641767,0.2811066049539484
1667776598364814000,3.10481396484375,-9.64016121468246,-1.7770296928860245,0.282563452698756
1667776598374865200,3.114865234375,-9.639821022942662,-1.7766672893144189,0.2961278676708229
1667776598384916000,3.124916015625,-9.636593877589702,-1.7896815230578182,0.3216953848486766
1667776598394968000,3.134968017578125,-9.630823477494715,-1.8138892048582433,0.3569726325981319
1667776598405019100,3.14501904296875,-9.623082069587706,-1.8460830631069838,0.39831513520330186
1667776598415071000,3.155071044921875,-9.61394014723301,-1.883357877881825,0.44215796672422436
1667776598425122000,3.1651220703125,-9.604301965793967,-1.9218563892327247,0.4839732379402965
1667776598435174000,3.175173828125,-9.594889994326234,-1.9588338284961877,0.5209974024223163
1667776598445225000,3.185224853515625,-9.586289339241384,-1.9919791422508655,0.5526851377798244
1667776598455277000,3.195277099609375,-9.578940730044245,-2.019451086544245,0.5797365185735747
1667776598465327900,3.205327880859375,-9.572901449880003,-2.041058961109817,0.6033368455979973
1667776598475379000,3.21537890625,-9.568011339750885,-2.0579697639003394,0.6231434428952634
1667776598485431000,3.22543115234375,-9.563928454351425,-2.0720910821028053,0.638821489020437
1667776598495481900,3.23548193359375,-9.560063595616818,-2.0861187306724487,0.6509009261317551
1667776598505534000,3.245533935546875,-9.55569254092574,-2.1030119978062807,0.6606543314483017
1667776598515585000,3.2555849609375,-9.550593756482005,-2.123835443995893,0.6677342797718941
1667776598525636900,3.265636962890625,-9.545001635563374,-2.147721931017935,0.6712811585985123
1667776598535688000,3.27568798828125,-9.539594223561883,-2.1713616036720573,0.672097881808877
1667776598545739800,3.28573974609375,-9.535164132159947,-2.1909442560203374,0.6714116531103849
1667776598555790800,3.295790771484375,-9.53240285075307,-2.2030466356158254,0.6710213386185467
1667776598565842000,3.305842041015625,-9.531620175942779,-2.20615220041573,0.671932608244568
1667776598575893800,3.315893798828125,-9.532544305050372,-2.2017375988438723,0.673301193184033
1667776598585944800,3.32594482421875,-9.53458253287971,-2.1929173096589745,0.6732264474473894
1667776598595997000,3.335996826171875,-9.537121695968509,-2.1822350259944794,0.6719726479940116
1667776598606047700,3.3460478515625,-9.539948443827033,-2.1701501820556817,0.6709847329352051
1667776598616100000,3.35610009765625,-9.542611525556445,-2.1584408934310075,0.6708795920602977
1667776598626151200,3.366151123046875,-9.544372105488181,-2.150778249848634,0.6704490916885435
1667776598636203000,3.376203125,-9.54469008539617,-2.149970148336142,0.6685105979066341
1667776598646254000,3.386254150390625,-9.543501752394437,-2.1558865327730774,0.666413771757856
1667776598656305200,3.39630517578125,-9.541568738505244,-2.1643920569203794,0.6665287764396518
1667776598666357000,3.40635693359375,-9.539760227778553,-2.171215034808218,0.6702154290631414
1667776598676408000,3.416407958984375,-9.53860871965587,-2.17455513901636,0.675750047640875
1667776598686460000,3.4264599609375,-9.538318212276696,-2.174791285859793,0.6790780230198055
1667776598696511000,3.436510986328125,-9.5386467135787,-2.17368317848742,0.678019088551402
1667776598706563000,3.44656298828125,-9.539303131660818,-2.1722645438611505,0.6733140526656061
1667776598716614000,3.45661376953125,-9.539976500877737,-2.1714545426525174,0.6663449443053454
1667776598726666000,3.466666015625,-9.540291558176278,-2.172815163481235,0.6573354161586612
1667776598736717000,3.476717041015625,-9.539847321540117,-2.1767552794091403,0.6507177515845746
1667776598746769000,3.486768798828125,-9.53833107175827,-2.182869378375262,0.6524610881205648
1667776598756820000,3.496820068359375,-9.535734625524283,-2.19100899181962,0.6630424686938524
1667776598766871000,3.50687109375,-9.53204629240036,-2.2013358861751855,0.6816111216939985
1667776598776923000,3.5169228515625,-9.52691535925269,-2.214948670333624,0.7087111639350653
1667776598786974000,3.526973876953125,-9.520608952584862,-2.232950044839829,0.7364287535525857
1667776598797025800,3.53702587890625,-9.514261044862867,-2.253519808529317,0.7555604472629726
1667776598807076900,3.547076904296875,-9.508727376133203,-2.274298538794368,0.7629252038773149
1667776598817129000,3.55712890625,-9.504921554109453,-2.29164919430688,0.7584159828245639
1667776598827180000,3.567179931640625,-9.503178509834408,-2.3023903685517606,0.7476537657916545
1667776598837231900,3.57723193359375,-9.50444166163802,-2.3037444135092198,0.7271445001177489
1667776598847283000,3.587282958984375,-9.508691720297932,-2.295844746300578,0.6958929642204195
1667776598857334000,3.597333984375,-9.514200839108229,-2.282419301407784,0.6640282648608088
1667776598867385900,3.6073857421875,-9.519728078097105,-2.266011187442392,0.6405890832148492
1667776598877437000,3.61743701171875,-9.5233328245908,-2.25205061275959,0.6362292075049132
1667776598887489000,3.627489013671875,-9.524290855967998,-2.243542750524729,0.651756227786839
1667776598897539800,3.637539794921875,-9.52210649766624,-2.243907930575311,0.6817266378324478
1667776598907592000,3.647592041015625,-9.516561138498783,-2.2557830772861838,0.7189547639213502
1667776598917643000,3.65764306640625,-9.507901446703077,-2.2795079440057275,0.7576527433671056
1667776598927695000,3.667695068359375,-9.497408109739423,-2.31080821441561,0.7935936791896819
1667776598937746000,3.677745849609375,-9.486655829578638,-2.343029691323638,0.8270164216462522
1667776598947797000,3.687796875,-9.47659854594469,-2.37034308405444,0.8636748580884188
1667776598957849000,3.69784912109375,-9.467322183555364,-2.391423866005987,0.9062505557503551
1667776598967900200,3.707900146484375,-9.458165063631535,-2.408057313159853,0.9564312485232949
1667776598977952300,3.7179521484375,-9.44823052959442,-2.4221163797810674,1.0171875497158616
1667776598988003300,3.72800341796875,-9.437028167578578,-2.4348534040182828,1.0882871849421412
1667776598998055200,3.73805517578125,-9.424144720607995,-2.44821206728518,1.1671048471998422
1667776599008106200,3.748106201171875,-9.409286174172163,-2.4641975719243288,1.2503791235402226
1667776599018158000,3.758157958984375,-9.392956970661878,-2.483456983667612,1.332359633743018
1667776599028209200,3.768209228515625,-9.37663185880482,-2.503843353614211,1.4070983561240136
1667776599038260200,3.77826025390625,-9.360961411464213,-2.523994745761156,1.4738523633614182
1667776599048312000,3.78831201171875,-9.344505366703867,-2.5467393692716955,1.5377642790406942
1667776599058363100,3.798363037109375,-9.323693464821577,-2.5792905165255067,1.6082240089282394
1667776599068415200,3.808415283203125,-9.294030147963761,-2.631450911873579,1.693177251331508
1667776599078466300,3.81846630859375,-9.250805338743328,-2.70854759555757,1.804647767651826
1667776599088518100,3.82851806640625,-9.187027570837735,-2.813220268431306,1.9633394693523645
1667776599098569200,3.8385693359375,-9.093440940123797,-2.945800938928127,2.1913401234701273
1667776599108621000,3.84862109375,-8.95729059444666,-3.1060534602046013,2.507940852060914
1667776599118672100,3.858672119140625,-8.76308611920774,-3.2898230506688355,2.925024985142052
1667776599128723200,3.86872314453125,-8.493800391760468,-3.4877404089510438,3.4440397989124056
1667776599138775000,3.878775146484375,-8.133219943928719,-3.6843577905505893,4.055443558044732
1667776599148826000,3.888826171875,-7.669597054773568,-3.85848306209594,4.739174009980261
1667776599158878200,3.898878173828125,-7.098116432967782,-3.9866269191890953,5.467534754019975
1667776599168929000,3.908928955078125,-6.426244761130214,-4.045079692679644,6.205731540158391
1667776599178981000,3.918981201171875,-5.675915054127573,-4.011093251925707,6.9184899336576455
1667776599189032200,3.9290322265625,-4.884145960016548,-3.8659552976727483,7.57429134518206
1667776599199084000,3.939083984375,-4.083355062799155,-3.600485329121351,8.156783190345763
1667776599209135000,3.949135009765625,-3.2883401186347005,-3.2160134258314965,8.661089387544989
1667776599219187000,3.95918701171875,-2.509320323720574,-2.723522169588506,9.080535865843295
1667776599229238000,3.969238037109375,-1.7561425338104366,-2.1463184939607975,9.40636239567995
1667776599239289000,3.9792890625,-1.0339429427489637,-1.5082510381780563,9.634652095872163
1667776599249341200,3.989341064453125,-0.35891744652297347,-0.8271965274535119,9.765105691212415
1667776599259392000,3.99939208984375,0.24730916569977998,-0.115378118218109,9.802851192238926
1667776599269444400,4.0094443359375,0.7722855912882834,0.6137178082283586,9.75691010979712
1667776599279495200,4.0194951171875,1.213299612141773,1.3376714764155446,9.63892787349522
1667776599289547300,4.02954736328125,1.578865520235896,2.0406673314437267,9.461144371703266
1667776599299598300,4.039598388671875,1.8682282594196498,2.7219197028279303,9.234242326477169
1667776599309650200,4.049650146484375,2.0729513521939515,3.3826460035338997,8.968333381986618
1667776599319701200,4.059701171875,2.1759714355550703,4.0163299835354085,8.677823664724826
1667776599329752300,4.06975244140625,2.1709465931303797,4.604933297316729,8.381645838698745
1667776599339804200,4.07980419921875,2.091020385108888,5.129802097812295,8.09216604900658
1667776599349855200,4.089855224609375,1.9762246698886154,5.583432585263252,7.816022710749507
1667776599359907000,4.099906982421875,1.8464447360262273,5.968402793464064,7.559048183342814
1667776599369958100,4.109958251953125,1.697651474136114,6.290666662383079,7.329113054031133
1667776599380010200,4.12001025390625,1.519879078260064,6.555283228975534,7.133624384200573
1667776599390061000,4.13006103515625,1.3119263559147716,6.767199886515736,6.975261037671566
1667776599400113200,4.140113037109375,1.0730119474641977,6.930061713507771,6.85516575473845
1667776599410164200,4.150164306640625,0.8021584592435509,7.035663776186108,6.78427493995726
1667776599420215000,4.160215087890625,0.5308551814287901,7.077232634893059,6.767672180202603
1667776599430267100,4.17026708984375,0.28742389834197235,7.069954168322682,6.789958830812573
1667776599440318200,4.180318115234375,0.07400933039421215,7.022927628731727,6.844224089485406
1667776599450370000,4.1903701171875,-0.12523702060258946,6.937528396126628,6.930035994544625
1667776599460421000,4.200421142578125,-0.3093944504737854,6.817431944149732,7.042533661955595
1667776599470473000,4.210472900390625,-0.45016514942795033,6.674791067409515,7.170417699068785
1667776599480524000,4.22052392578125,-0.5096614406220614,6.52974020691812,7.2988430034518235
1667776599490576100,4.230576171875,-0.48511922963764514,6.395431689715385,7.418457809391617
1667776599500627000,4.240626953125,-0.39542288436051454,6.269451440396905,7.530471492677926
1667776599510679300,4.25067919921875,-0.2639051486537792,6.137896605816483,7.643751834899187
1667776599520730400,4.26073046875,-0.11664039323888718,5.993241466644406,7.761304447612166
1667776599530781000,4.270781005859375,0.04107722099879756,5.8354380920857185,7.881392716282606
1667776599540833300,4.280833251953125,0.22022010151045396,5.673246127179265,7.9960086910218
1667776599550884400,4.29088427734375,0.4079656646672636,5.511417734888195,8.101122677922248
1667776599560936200,4.300936279296875,0.5834559774881228,5.358626635533571,8.192378819862007
1667776599570987300,4.3109873046875,0.7398291365806013,5.221137150207162,8.268178449472785
1667776599581039000,4.3210390625,0.8684937296122313,5.102182854002714,8.329695871230959
1667776599591090200,4.331090087890625,0.9502439381904899,5.011355751129985,8.375783084145187
1667776599601142300,4.341142333984375,0.9731147453639656,4.956095051679015,8.405982992097735
1667776599611193000,4.351193115234375,0.9498365264333783,4.9288744517982,8.424629240378737
1667776599621244200,4.361244140625,0.9163577429406344,4.922898884519935,8.431829381015897
1667776599631296300,4.371296142578125,0.8878279601573944,4.934161452290415,8.42829711523652
1667776599641347000,4.38134716796875,0.8667390679646283,4.952984810703993,8.419446869304776
1667776599651399200,4.391399169921875,0.8623003548648208,4.968495099046826,8.410757951414585
1667776599661450200,4.4014501953125,0.8739274450987576,4.970848384174705,8.408168519443272
1667776599671502000,4.411502197265625,0.901045022996515,4.956901107364892,8.413537937521934
1667776599681553200,4.42155322265625,0.9388839744601398,4.928206343278289,8.426249535056948
1667776599691605000,4.43160498046875,0.9820664789088069,4.886740652684867,8.4454540017426
1667776599701656000,4.441656005859375,1.0241622840993105,4.835181730361283,8.47009452200234
1667776599711708200,4.451708251953125,1.0611028984837234,4.7781373623639345,8.497873924809694
1667776599721759000,4.461759033203125,1.0947732590258121,4.716159629617631,8.528172032439707
1667776599731810000,4.47181005859375,1.1269359914839268,4.649955803608894,8.560274559143185
1667776599741862100,4.481862060546875,1.162946266215667,4.581978538186848,8.592055598807335
1667776599751913000,4.491912841796875,1.1981511428486555,4.513193463513255,8.623567758402228
1667776599761965000,4.501965087890625,1.2327546195223926,4.451294348961115,8.650819922465086
1667776599772016000,4.51201611328125,1.2683457189939915,4.401658503654599,8.67104788697958
1667776599782068200,4.522068115234375,1.3059881980374455,4.362149500086903,8.685414265984296
1667776599792119000,4.532119140625,1.3400550105512141,4.335348294661939,8.693641996103525
1667776599802171100,4.542171142578125,1.3601660706877707,4.328406804960966,8.693978096190094
1667776599812222200,4.55222216796875,1.3576627095647156,4.348698482361436,8.684235869854689
1667776599822273300,4.562273193359375,1.3262820673950015,4.399072578814626,8.663689340910315
1667776599832325000,4.5723251953125,1.2720453041642903,4.465559021157026,8.637769302234053
1667776599842376200,4.582376220703125,1.2075447018768637,4.5360357021793725,8.610261117583512
1667776599852428300,4.59242822265625,1.1432577423401176,4.600679439264535,8.584701728913187
1667776599862479000,4.60247900390625,1.0805625089742243,4.656053828223049,8.562940563482046
1667776599872531200,4.61253125,1.0213297640871255,4.700357664851844,8.545987675115466
1667776599882582300,4.622582275390625,0.9688903326019644,4.730117427821457,8.535669110196828
1667776599892634000,4.632634033203125,0.9268201733093708,4.745959432336687,8.53154355469942
1667776599902685200,4.642685302734375,0.9051412793342024,4.750798689061403,8.531178228518366
1667776599912736300,4.652736328125,0.9123640701945871,4.746360998874902,8.532878018173575
1667776599922788000,4.6627880859375,0.9605848610714077,4.73742395144254,8.532555362090468
1667776599932839200,4.672839111328125,1.0875065559584647,4.749312542156875,8.510684306544064
1667776599942891000,4.68289111328125,1.22292420344688,4.799160861170292,8.464213647270203
1667776599952942000,4.692942138671875,1.3240477324716746,4.895835521027445,8.393336276492477
1667776599962994400,4.702994384765625,1.3916735541075467,5.042887199947238,8.294754321709275
1667776599973045200,4.713045166015625,1.4154504432752728,5.231390833196044,8.1730925201118
1667776599983097300,4.723097412109375,1.368047909978777,5.45008736013472,8.037123960742354
1667776599993148400,4.7331484375,1.2638013535626231,5.693636588779092,7.883888040229678
1667776600003200300,4.7432001953125,1.1316877891208976,5.952281679746508,7.711030888924002
1667776600013251300,4.753251220703125,1.0061530916128307,6.217078279080987,7.517046193915605
1667776600023302400,4.763302490234375,0.8993420184709131,6.477746984830499,7.307555302217602
1667776600033354200,4.773354248046875,0.8041957372248172,6.728460698276757,7.0888283801406615
1667776600043405300,4.7834052734375,0.7137859099160879,6.966207962644099,6.865337020140886
1667776600053457200,4.79345703125,0.6264329859599471,7.192243746429681,6.636987114194035
1667776600063508200,4.80350830078125,0.5444207289120182,7.40459470373392,6.406711793142557
1667776600073560300,4.813560302734375,0.4661031981961801,7.600363359549641,6.179611010473966
1667776600083611100,4.823611083984375,0.387573887893185,7.77994601971805,5.957565757629275
1667776600093663500,4.83366357421875,0.3088673213271424,7.946064218157529,5.738906640091538
1667776600103714300,4.84371435546875,0.22381399781657382,8.104138810873032,5.517535925507545
1667776600113766400,4.853766357421875,0.13430672710444777,8.268059207007289,5.271767851769924
1667776600123817500,4.8638173828125,0.05059747971317265,8.450831018605827,4.975065709608793
1667776600133868500,4.87386865234375,-0.04860281246434897,8.650130186635256,4.619877183948457
1667776600143920400,4.88392041015625,-0.1864840918536298,8.848662461945414,4.223362668426335
1667776600153971500,4.893971435546875,-0.3414442606093362,9.019705841827392,3.833886965499818
1667776600164023300,4.904023193359375,-0.4653050700884312,9.153871151167154,3.487195634549856
1667776600174074400,4.914074462890625,-0.5191122462628409,9.25496421198845,3.2010274536237118
1667776600184126500,4.92412646484375,-0.5103408011883497,9.329558557462692,2.978132598212361
1667776600194177300,4.93417724609375,-0.4798266031222418,9.388203054133058,2.79317262891978
1667776600204229400,4.9442294921875,-0.45862438674811273,9.438418160632253,2.622271287856996
1667776600214280400,4.954280517578125,-0.4557545669328421,9.483504087549447,2.4547572511449456
1667776600224332300,4.964332275390625,-0.47853426175676284,9.522568854480982,2.293914362759888
1667776600234383400,4.97438330078125,-0.5244202164778485,9.55379226026237,2.1495110063917933
1667776600244434400,4.984434326171875,-0.5799308721018954,9.57652665463984,2.030817114689201
1667776600254486300,4.994486328125,-0.6332835825070738,9.59183820554018,1.9406116508461533
1667776600264537300,5.004537353515625,-0.6797261116649955,9.601838206028937,1.8743147397264837
1667776600274589200,5.014589111328125,-0.721784799715504,9.609377369362115,1.819144495037943
1667776600284640300,5.02464013671875,-0.765444493221864,9.616059623605013,1.7651826032258568
1667776600294692400,5.0346923828125,-0.8163171868469565,9.622151510739325,1.7082763285249472
1667776600304743200,5.0447431640625,-0.8781316918555646,9.627258478489518,1.6477677915483713
1667776600314795300,5.054795166015625,-0.9500986845009028,9.63113385861814,1.583967373419553
1667776600324846300,5.064846435546875,-1.0284139501944183,9.633656070572137,1.5183663356095551
1667776600334898200,5.074898193359375,-1.1091536665558814,9.634886489149928,1.4522894969813525
1667776600344949200,5.08494921875,-1.18837245696038,9.634874214190244,1.3882891723662614
1667776600355000300,5.095000244140625,-1.2645083327881992,9.633864160364865,1.3266777887143193
1667776600365052400,5.105052490234375,-1.3384196644343436,9.631725979292392,1.268405486357212
1667776600375103200,5.115103271484375,-1.4113924000561235,9.627948798841237,1.2169391376879066
1667776600385155300,5.1251552734375,-1.4840185141973197,9.622374213579297,1.1738695920944213
1667776600395206400,5.135206298828125,-1.5563636194400488,9.614953123667835,1.140527221397683
1667776600405258500,5.145258544921875,-1.625310606677085,9.606444823041558,1.1157881361342965
1667776600415309300,5.155309326171875,-1.6890283149585126,9.597641923382877,1.0967521578833461
1667776600425361400,5.165361328125,-1.7484427730880676,9.588837270158528,1.0805280221827327
1667776600435412500,5.17541259765625,-1.8063263683885336,9.579926818472146,1.0642190577428787
1667776600445464300,5.18546435546875,-1.8636613898955285,9.571168926998972,1.0439769185725598
1667776600455515400,5.195515380859375,-1.9212381112039087,9.563016015681624,1.013871703166142
1667776600465566500,5.20556640625,-1.9766602848269044,9.555969019779562,0.9729657653473317
1667776600475618300,5.215618408203125,-2.0276558741793034,9.549546877777576,0.9301315628796816
1667776600485669400,5.22566943359375,-2.0767276558622716,9.542536122232676,0.8930764552701264
1667776600495721200,5.23572119140625,-2.127261765182763,9.534318328985572,0.861338012638688
1667776600505772300,5.245772216796875,-2.178267291407287,9.5255715434283,0.830071352237463
1667776600515824400,5.255824462890625,-2.227158894217759,9.517123448556662,0.7965601277798414
1667776600525875500,5.26587548828125,-2.271464776673168,9.509580778092145,0.7607199489179998
1667776600535927300,5.27592724609375,-2.3106119611911473,9.503122980254888,0.7225727352228015
1667776600545978400,5.285978271484375,-2.3474163819752634,9.497035769295692,0.6828832605216651
1667776600556030200,5.2960302734375,-2.3840559675864874,9.490463989689946,0.6463342027381063
1667776600566081300,5.306081298828125,-2.4218526142783463,9.483104274576903,0.6129930741503834
1667776600576133400,5.31613330078125,-2.457512979593873,9.475777292689681,0.5836521211147307
1667776600586184200,5.32618408203125,-2.485644264578819,9.469795295670629,0.5611762315429747
1667776600596235300,5.3362353515625,-2.50322960563004,9.465935113111138,0.5479879929395393
1667776600606287400,5.346287353515625,-2.5084555235847827,9.464808154907821,0.5435447132624686
1667776600616338200,5.356338134765625,-2.4992636246085165,9.467095389062166,0.5460505586035549
1667776600626390500,5.366390625,-2.4709455848798156,9.474074580425023,0.5538419796647504
1667776600636441300,5.37644140625,-2.4183798236012457,9.486718373420834,0.5692080006986856
1667776600646493400,5.386493408203125,-2.3411254651375115,9.504496606695652,0.5950498595722019
1667776600656544500,5.39654443359375,-2.2441173355422914,9.525504323410987,0.6317404447183013
1667776600666596400,5.406596435546875,-2.1313556103676556,9.548172666814922,0.6783165371280163
1667776600676647400,5.4166474609375,-2.005037653527409,9.571368833485245,0.7342465141426772
1667776600686699300,5.42669921875,-1.8639703097142277,9.594872458669542,0.796511466332525
1667776600696750300,5.436750244140625,-1.701644635425508,9.619426469689607,0.8610697901565582
1667776600706801400,5.446801513671875,-1.5161511437781154,9.64469125932753,0.9228283271942287
1667776600716853500,5.456853515625,-1.3147265080273152,9.668877606078981,0.9770750272970646
1667776600726904300,5.466904296875,-1.101674124455452,9.690789578157663,1.0223918403606862
1667776600736956400,5.476956298828125,-0.8773650183320045,9.709399586081505,1.062159494864568
1667776600747007500,5.487007568359375,-0.6414572443515062,9.723124744573235,1.1044297067739068
1667776600757059300,5.497059326171875,-0.397746797263436,9.7301658952564,1.1558808578740805
1667776600767110400,5.5071103515625,-0.15683135118875652,9.729367438355087,1.2186958451621233
1667776600777162200,5.517162353515625,0.06802412307134363,9.720962598103284,1.2917642962433398
1667776600787213300,5.52721337890625,0.2665826242347248,9.706492758724092,1.3723429768241941
1667776600797265400,5.537265380859375,0.43708446285221725,9.688023036053776,1.4565584064722061
1667776600807316200,5.547316162109375,0.5865873708490282,9.667313425502181,1.5392755603864787
1667776600817367300,5.5573671875,0.7263911975324153,9.645355276194215,1.6155001374110578
1667776600827419400,5.56741943359375,0.8660956554945558,9.62233095895946,1.6825519585512578
1667776600837470200,5.57747021484375,1.009060868818313,9.598198972743749,1.7397591158948837
1667776600847522300,5.587522216796875,1.1510724346790462,9.573426935058832,1.7874413429155944
1667776600857573400,5.597573486328125,1.2876885712370276,9.54914823384881,1.823737960308045
1667776600867625200,5.607625244140625,1.4193909975945949,9.525882509073615,1.8475104655615984
1667776600877676300,5.61767626953125,1.548189080812782,9.503377831798792,1.8599205959320066
1667776600887728400,5.627728271484375,1.6765528642669318,9.480736376401781,1.864188336379081
1667776600897779500,5.637779541015625,1.8052410573698578,9.456393377783893,1.8676555740982292
1667776600907831600,5.64783154296875,1.9347538647286593,9.428983977332711,1.8765322696454823
1667776600917882400,5.65788232421875,2.06791321189627,9.396713692846893,1.896274934861064
1667776600927934500,5.6679345703125,2.2075683508239687,9.357869875189662,1.9306291860140858
1667776600937985500,5.677985595703125,2.3528764009468257,9.312788039925694,1.9764437194667754
1667776600948036400,5.688036376953125,2.502003863227367,9.263795168697833,2.0229870055854318
1667776600958088400,5.69808837890625,2.6566274387061592,9.21269743414521,2.058869343088567
1667776600968139000,5.708138916015625,2.8178865066766736,9.160463973560928,2.0774565546587107
1667776600978190800,5.71819091796875,2.9843183011099694,9.107951111513376,2.0759175085231663
1667776600988242000,5.728241943359375,3.149515877573192,9.056212740969658,2.0581416133359074
1667776600998293800,5.738293701171875,3.302350816069543,9.00753258895278,2.0320504558764396
1667776601008344800,5.7483447265625,3.4325442991688844,8.964870674312115,2.0047776874169707
1667776601018397000,5.75839697265625,3.5351343205496666,8.930266978442669,1.980796507848799
1667776601028447700,5.76844775390625,3.6106451963469386,8.904144110670686,1.962103497816622
1667776601038498800,5.778498779296875,3.663933134420216,8.885477988645434,1.9478793037615716
1667776601048551200,5.78855126953125,3.7007863627821207,8.872714953184127,1.9363643686652183
1667776601058602000,5.79860205078125,3.725026193286478,8.864931459701062,1.9255000064320862
1667776601068654000,5.808654052734375,3.73789093555659,8.861851613864301,1.914718500176817
1667776601078705200,5.818705078125,3.7391046952605245,8.863802163410186,1.9032750228814779
1667776601088757000,5.828757080078125,3.7287870071247218,8.87129164238274,1.888576927704364
1667776601098808000,5.83880810546875,3.708221773479879,8.884083319416641,1.8688392309248447
1667776601108860000,5.84885986328125,3.6781416925147172,8.90178498032391,1.8438854069322346
1667776601118911000,5.858910888671875,3.6378733950123188,8.9242575088948,1.814919132427871
1667776601128963000,5.868963134765625,3.5862270866662262,8.951126226598024,1.7851349656693636
1667776601139014000,5.879013916015625,3.5227357344865795,8.981450053191184,1.7590560831695794
1667776601149066000,5.88906591796875,3.448136712837219,9.014016690275072,1.7401866936571895
1667776601159117000,5.899116943359375,3.3648987499192353,9.04719999795258,1.7309025863528251
1667776601169168000,5.90916796875,3.276647635014355,9.078954734131694,1.7339282177843152
1667776601179220000,5.919219970703125,3.1912010561361908,9.10652663166821,1.7486552467949688
1667776601189271000,5.92927099609375,3.11610840575099,9.128844261938333,1.7676109994165599
1667776601199323000,5.939322998046875,3.0534520430907603,9.147613259816168,1.7798890278398989
1667776601209374000,5.9493740234375,3.0000504155099392,9.165280433931946,1.7798077792972324
1667776601219425800,5.95942578125,2.94924552642405,9.183574215513467,1.770393323611468
1667776601229476900,5.969476806640625,2.8955346867635843,9.202727828794718,1.7595599410384892
1667776601239529000,5.979529052734375,2.8323253663957115,9.223756003776192,1.7523199067823587
1667776601249580000,5.989580078125,2.745795960716903,9.249121331179142,1.7563500390812754
1667776601259630800,5.999630859375,2.6139932888552546,9.282790961068867,1.7796723163492976
1667776601269683000,6.009682861328125,2.4161516261577605,9.331479880914092,1.8044604283861816
1667776601279734000,6.019734130859375,2.1601414137385784,9.395671490317582,1.7959687866337597
1667776601289785900,6.029785888671875,1.9332877376988529,9.452301140034198,1.756925208620727
1667776601299837000,6.0398369140625,1.8216897956065832,9.484379116818308,1.7024636967234312
1667776601309889000,6.049888916015625,1.8184978676974772,9.495960249018669,1.6401856658563017
1667776601319940000,6.059940185546875,1.8491716767720876,9.493335745733976,1.6209661477319894
1667776601329992000,6.069991943359375,1.8415755225546657,9.486979070183635,1.6661973283387719
1667776601340043000,6.08004296875,1.7423444562129675,9.492131630641222,1.7418563804350793
1667776601350095000,6.09009521484375,1.5269690365210176,9.515833408746122,1.8131936238095163
1667776601360146000,6.10014599609375,1.2104106127019971,9.554076337900756,1.850656508502364
1667776601370197000,6.110197021484375,0.8431428691260516,9.597065000277757,1.8319012468889355
1667776601380249000,6.1202490234375,0.49770566642303016,9.637040452313423,1.7464571522288024
1667776601390300200,6.130300048828125,0.243545063925907,9.673416418552398,1.592505923053622
1667776601400352000,6.14035205078125,0.12170666365250944,9.706415601834655,1.3932234138980506
1667776601410403000,6.150403076171875,0.12128967121629974,9.732705642867089,1.1958785217415542
1667776601420455000,6.160454833984375,0.1917329522925429,9.749525844764708,1.0394086608089506
1667776601430506000,6.170506103515625,0.23406083093956112,9.759069918179511,0.9360304847251624
1667776601440558000,6.18055810546875,0.12065972101599909,9.767079037111998,0.8717655178245156
1667776601450609000,6.19060888671875,-0.10364007842298596,9.768869427660107,0.8537189159370958
1667776601460661000,6.200660888671875,-0.31526889546513553,9.762191849592327,0.8778494408480823
1667776601470712000,6.210712158203125,-0.4577589290251955,9.752071437594294,0.9262587400343268
1667776601480763000,6.220762939453125,-0.5398039923641831,9.741948687508701,0.9866293298449367
1667776601490815000,6.23081494140625,-0.5967293736243621,9.73205156287253,1.0495072993665933
1667776601500866000,6.240865966796875,-0.655399406594783,9.722309336537123,1.1034218449056148
1667776601510918000,6.25091796875,-0.7225027387265116,9.713199562886357,1.141116711723432
1667776601520969000,6.260968994140625,-0.7961725167017429,9.70509925853908,1.1608341694325208
1667776601531020800,6.271020751953125,-0.8725422012854367,9.698007838973403,1.1652186681270598
1667776601541072000,6.28107177734375,-0.9504807426210492,9.691400403532386,1.159191516792029
1667776601551124000,6.2911240234375,-1.0293837450746446,9.685211485764384,1.1434285688623784
1667776601561174800,6.3011748046875,-1.1056615135911851,9.680119715583324,1.114976600555703
1667776601571227100,6.31122705078125,-1.1772322003953157,9.676523736917972,1.0720962208587677
1667776601581278200,6.3212783203125,-1.2474911470137535,9.673359135407209,1.0199315877269952
1667776601591330000,6.331330078125,-1.3188926877960563,9.669250531044602,0.9677223117358982
1667776601601381000,6.341381103515625,-1.3897852561429143,9.663795772770047,0.9219198340471834
1667776601611432200,6.35143212890625,-1.4563056007549167,9.657257310912012,0.887098988295719
1667776601621484000,6.361484130859375,-1.5177223386175929,9.649885905361176,0.8640580852523445
1667776601631535000,6.37153515625,-1.5767390296012163,9.641818334239721,0.8483008364111184
1667776601641587000,6.3815869140625,-1.638661232767999,9.632930094385147,0.8317620818033814
1667776601651638000,6.391637939453125,-1.7092575946472583,9.622677580440044,0.8080080620545893
1667776601661690000,6.401690185546875,-1.7900867428578435,9.61060135819912,0.7760893674854189
1667776601671741000,6.411740966796875,-1.8816012434728442,9.596005846613645,0.7393406954765319
1667776601681793000,6.42179296875,-1.9845833329111338,9.578313538056612,0.6983669531185179
1667776601691844000,6.431843994140625,-2.0983514586493373,9.557247369152307,0.6529249062400311
1667776601701895000,6.44189501953125,-2.218717959739268,9.533395368921756,0.6017150165498256
1667776601711947000,6.451947021484375,-2.336587091055512,9.508643789502978,0.5444587959000841
1667776601721998000,6.461998046875,-2.444947074139863,9.484684821766614,0.4830911213435232
1667776601732050000,6.4720498046875,-2.5413325417920944,9.462307570263743,0.42040779761113223
1667776601742101000,6.48210107421875,-2.6285513910397884,9.441001747384666,0.35858320959992707
1667776601752152800,6.49215283203125,-2.708346520027518,9.420530621764064,0.29804561092564835
1667776601762204000,6.502203857421875,-2.7791373815655707,9.40147579268217,0.24296457889052106
1667776601772256000,6.512256103515625,-2.834736519190669,9.385976610255241,0.19521253803661093
1667776601782306800,6.522306884765625,-2.8698770984157917,9.376023371517658,0.1560889170573093
1667776601792359000,6.53235888671875,-2.8816408937066793,9.372860523572564,0.12657322850925848
1667776601802410000,6.542409912109375,-2.8672777295723555,9.377525592774152,0.10552986509180627
1667776601812460800,6.552460693359375,-2.8191797613576055,9.392221057602763,0.09379209015816449
1667776601822513000,6.562512939453125,-2.729187940265238,9.418729125300048,0.09733350735837593
1667776601832564000,6.57256396484375,-2.5981577140808105,9.455420733359455,0.12246315370877273
1667776601842616000,6.582615966796875,-2.4429180525302887,9.49599473581016,0.1691785358581692
1667776601852667000,6.5926669921875,-2.283073819793761,9.53434112533927,0.23306990193976088
1667776601862719000,6.602718994140625,-2.116550255423784,9.570256488329171,0.3174768903708085
1667776601872770000,6.61277001953125,-1.9215305182792246,9.607430911469459,0.41880401567630465
1667776601882822100,6.622822265625,-1.6904048640087246,9.645728201159834,0.5223320120269432
1667776601892873000,6.632873046875,-1.4337968318268657,9.681498602721094,0.6190408298820257
1667776601902925000,6.642925048828125,-1.1634526813678443,9.711692080932854,0.7069671698119491
1667776601912976100,6.65297607421875,-0.8796410735052078,9.73495663666427,0.7919784990780055
1667776601923027000,6.66302685546875,-0.5874816528076305,9.749495449626446,0.8789538949586451
1667776601933079000,6.6730791015625,-0.2998052958082408,9.753807467606663,0.9714552877191454
1667776601943130000,6.683130126953125,-0.029018963672826064,9.74823755851984,1.0683709167253226
1667776601953182000,6.693181884765625,0.21763593023614958,9.734854929855466,1.1643095904581249
1667776601963233000,6.70323291015625,0.439548514878191,9.716106974765658,1.2547653758004307
1667776601973284900,6.713284912109375,0.6469917898640036,9.693080903965233,1.3401404968775807
1667776601983336000,6.7233359375,0.8562793410096317,9.66446037415862,1.4266674183383583
1667776601993388000,6.733387939453125,1.0753071457292884,9.627902621611952,1.5223634424217045
1667776602003438800,6.74343896484375,1.300018329847604,9.582961656123398,1.6270099579408763
1667776602013491000,6.753490966796875,1.5230585850790141,9.531080662238598,1.73469788698256
1667776602023542000,6.7635419921875,1.7386247050374746,9.474941426387428,1.8365920350536702
1667776602033592800,6.7735927734375,1.944814363233,9.417199431514739,1.9246967272251843
1667776602043645000,6.78364501953125,2.141269393877685,9.35926863607168,1.9973630272462963
1667776602053696000,6.793696044921875,2.3307602845981714,9.30037162594497,2.0593819687858224
1667776602063747800,6.803747802734375,2.515349082490802,9.238777631819248,2.1185826380342245
1667776602073799000,6.813798828125,2.696296601271629,9.17323577685058,2.1799355168804526
1667776602083850800,6.823850830078125,2.8758818917885423,9.102938251787423,2.244154598812759
1667776602093901800,6.83390185546875,3.0575360975340007,9.02745017234385,2.3080334890052674
1667776602103954200,6.8439541015625,3.2434324708938598,8.948320521527528,2.361797958549112
1667776602114005000,6.8540048828125,3.4331150847941636,8.86795343787074,2.3965552375450727
1667776602124057000,6.86405712890625,3.6223087461337444,8.788843076276779,2.4094562201723453
1667776602134108200,6.874108154296875,3.8021009573996065,8.715021468740701,2.400580255277455
1667776602144159000,6.884158935546875,3.9646404205694794,8.649227684837578,2.3754819082476195
1667776602154211000,6.894211181640625,4.101196716699004,8.594567289367317,2.341789043612778
1667776602164262100,6.90426220703125,4.20677276815325,8.5540564152807,2.302519401758909
1667776602174314000,6.91431396484375,4.279684275107085,8.529181501743198,2.2600344511203465
1667776602184365000,6.924364990234375,4.319961340437829,8.520062960264086,2.217393871528655
1667776602194417000,6.9344169921875,4.327803578370809,8.526765672773122,2.1759536076374353
1667776602204468000,6.944468017578125,4.305528910459578,8.548170279851556,2.13579052407518
1667776602214520000,6.95452001953125,4.2585310124412175,8.580791277471183,2.0988832274384794
1667776602224571000,6.96457080078125,4.190511369182169,8.621900117450952,2.067086405683309
1667776602234623000,6.974623046875,4.102409891881049,8.670512464928626,2.0403065353073178
1667776602244674000,6.984674072265625,3.9954494003310796,8.726309170952439,2.0145253205798563
1667776602254724900,6.994724853515625,3.8740912578552957,8.787782753568887,1.9841049017444252
1667776602264777000,7.00477685546875,3.7452670172825453,8.852315723755956,1.9441918474204838
1667776602274828000,7.014828125,3.616087971922755,8.916005228856205,1.897141050171107
1667776602284880000,7.0248798828125,3.4933515268310904,8.973835486534238,1.8539631488323212
1667776602294931000,7.034930908203125,3.38667335935384,9.019219519615174,1.831526129966229
1667776602304982800,7.044982666015625,3.3138074451074004,9.043814447167515,1.8435003531374037
1667776602315033900,7.055033935546875,3.2890748626500366,9.043390668797493,1.88930261163041
1667776602325086000,7.0650859375,3.2949075143262743,9.027390551111102,1.9545226872988044
1667776602335136800,7.07513671875,3.2969887045145034,9.007613252973556,2.0403829615443945
1667776602345188900,7.08518896484375,3.2735695427432656,8.993795155501365,2.1367586384549737
1667776602355240000,7.095239990234375,3.219695329214632,8.994223025524615,2.215378732313961
1667776602365291000,7.105291015625,3.1465476754173634,9.007499271205067,2.2659729012586176
1667776602375343000,7.115343017578125,3.0716137227252123,9.029144116780161,2.282574930360913
1667776602385394000,7.125393798828125,3.010893881085515,9.053357936060427,2.2675116551332173
1667776602395446000,7.135446044921875,2.9637974911287426,9.076714261728524,2.235958286745101
1667776602405497000,7.1454970703125,2.912490205478668,9.101865654119848,2.2008666612282393
1667776602415549000,7.155548828125,2.842358684632182,9.131786160609126,2.168381711078435
1667776602425600000,7.16560009765625,2.7486399519711733,9.16501272290647,2.1489277996763585
1667776602435652000,7.175652099609375,2.618977507008612,9.201516114917396,2.154867126597464
1667776602445703000,7.185702880859375,2.4396847696974873,9.241983149862289,2.191822354029119
1667776602455755000,7.195755126953125,2.2299796507269143,9.279664353480934,2.255080043583363
1667776602465806000,7.20580615234375,2.0569408592440186,9.300133725535868,2.333853282177448
1667776602475857000,7.21585693359375,1.9607120434582233,9.304857246926426,2.396997136093676
1667776602485909000,7.225908935546875,1.894904961682111,9.310066506007313,2.4294825246348974
1667776602495960000,7.2359599609375,1.7908346386156975,9.329926806253194,2.4322325539954006
1667776602506012000,7.246011962890625,1.6247022655203938,9.37333398630321,2.381455868090689
1667776602516063000,7.25606298828125,1.4106703693918883,9.445126133838295,2.229340914431959
1667776602526114800,7.26611474609375,1.1743790029212833,9.538258591043949,1.9526471026852725
1667776602536166000,7.276165771484375,0.9436047924369573,9.633532151931524,1.5732299985669553
1667776602546218000,7.286218017578125,0.7433064573023468,9.710514269325136,1.1505668963097035
1667776602556269000,7.29626904296875,0.5794852106936276,9.759210203433037,0.7696738013546913
1667776602566321000,7.30632080078125,0.42680644913967697,9.783962367373704,0.5121452202618122
1667776602576372000,7.3163720703125,0.2501376853902824,9.795950911331175,0.38360867405664173
1667776602586423000,7.326423095703125,0.03127213801065227,9.80126070817709,0.3235390764866024
1667776602596475000,7.336474853515625,-0.23063023543637245,9.799585468441247,0.29207090216390785
1667776602606526000,7.34652587890625,-0.4982197534250095,9.789655610579251,0.29124855293035506
1667776602616577800,7.356577880859375,-0.7185594079282135,9.775879598683119,0.29368816463481634
1667776602626628900,7.36662890625,-0.9184537653718143,9.759308987632393,0.2876078400741331
1667776602636681000,7.376680908203125,-1.1442322133954614,9.734943777182698,0.30330886521609496
1667776602646731800,7.386731689453125,-1.394639272045344,9.701597972419858,0.3230690112894401
1667776602656784100,7.3967841796875,-1.629563003424555,9.665249478709697,0.3128562448328361
1667776602666835000,7.4068349609375,-1.7966075229287146,9.636668111869692,0.2778915701638907
1667776602676887000,7.416886962890625,-1.931056909906864,9.610503743043541,0.28218141284491866
1667776602686938000,7.426938232421875,-2.0460935942761598,9.586576339489222,0.285338452103734
1667776602696989200,7.4369892578125,-2.128416195914894,9.567040448892117,0.33460400279313324
1667776602707041000,7.447041015625,-2.1635374859176575,9.55640098145604,0.4058167430050671
1667776602717092000,7.457092041015625,-2.177181103605777,9.55311889104545,0.41009646615087986
1667776602727144000,7.46714404296875,-2.190218133702874,9.553242225164174,0.3299712649585679
1667776602737195000,7.477195068359375,-2.213922834417224,9.55097544927597,0.21859429040690884
1667776602747247000,7.4872470703125,-2.2401837954856454,9.546642973029613,0.11641310555534437
1667776602757298000,7.4972978515625,-2.2586418277181686,9.542952301818131,0.031108958222018552
1667776602767350000,7.50735009765625,-2.2708657878667116,9.54002560071647,-0.03814345768539933
1667776602777401000,7.517401123046875,-2.280942068462074,9.53719417668283,-0.09796732088304125
1667776602787453000,7.527452880859375,-2.299980823192,9.53181891338527,-0.1578732431908138
1667776602797504000,7.53750390625,-2.3543580178067085,9.517223986321687,-0.22325417197672648
1667776602807555000,7.54755517578125,-2.4632301881968974,9.487605093127488,-0.29705011534858494
1667776602817607000,7.55760693359375,-2.6239821834281085,9.441377010437845,-0.38145248240344226
1667776602827658000,7.567657958984375,-2.818661874963343,9.380723512032628,-0.47704026033934205
1667776602837709800,7.577709716796875,-3.0175843186348676,9.312717897298931,-0.581260842064023
1667776602847761000,7.587760986328125,-3.1963951176479455,9.245123785975576,-0.6936373673133551
1667776602857813000,7.59781298828125,-3.3456539512231944,9.182016464677453,-0.817049300513789
1667776602867863800,7.60786376953125,-3.4672745440274473,9.123767104804516,-0.9514633969828485
1667776602877916000,7.617916015625,-3.5646930079892276,9.069562051886319,-1.0983550630353391
1667776602887967000,7.627967041015625,-3.6373671990558503,9.020477410721778,-1.2533711449630558
1667776602898019000,7.63801904296875,-3.6766505771741267,8.980745704314112,-1.413801945415884
1667776602908070100,7.648070068359375,-3.6619773241773244,8.961403290462494,-1.5663874391958117
1667776602918121000,7.658120849609375,-3.5762972288042305,8.969178600639104,-1.712989036260545
1667776602928173000,7.668173095703125,-3.4014401358529924,9.008225247392058,-1.8580850510679183
1667776602938224000,7.67822412109375,-3.149339936484396,9.06767872235775,-2.0072952231958507
1667776602948276000,7.68827587890625,-2.8687761514365673,9.1290728099972,-2.144890068592876
1667776602958327000,7.6983271484375,-2.5968591987028717,9.188336899870633,-2.236331650102138
1667776602968378600,7.708378662109375,-2.3302279312871397,9.250891263461112,-2.2718767184749242
1667776602978429400,7.718429443359375,-2.0514920923188327,9.318393604847788,-2.264800058086961
1667776602988481500,7.7284814453125,-1.7563250507704913,9.388276119369268,-2.2239564449146387
1667776602998532600,7.73853271484375,-1.4641310336835682,9.457357254379987,-2.14128298401162
1667776603008584400,7.74858447265625,-1.1783348278749735,9.52100408938229,-2.032828162250668
1667776603018635500,7.758635498046875,-0.8748835037145763,9.58683995886147,-1.8701570355251431
1667776603028687400,7.768687255859375,-0.5392081088302657,9.64875602454841,-1.6676862517222761
1667776603038738400,7.778738525390625,-0.17045306757232173,9.69860931199789,-1.4416272331915796
1667776603048789500,7.78878955078125,0.22155776158869264,9.730777305153012,-1.1971836129907518
1667776603058841300,7.79884130859375,0.6195624426033347,9.742049809795617,-0.9375481227464973
1667776603068892400,7.808892333984375,1.0026295936618,9.732424487838149,-0.6671300302684307
1667776603078944500,7.818944580078125,1.350421214003861,9.705178168994188,-0.39529925798084586
1667776603088995600,7.82899560546875,1.6488183235146103,9.6661391210258,-0.13242002744185738
1667776603099047400,7.83904736328125,1.900708971785754,9.62005541524291,0.11072918730056844
1667776603109098500,7.849098388671875,2.1237965732902286,9.568495323875545,0.3221225607521832
1667776603119150300,7.859150390625,2.335158519557118,9.511955106008052,0.4900050654504448
1667776603129201400,7.869201416015625,2.5442685952439903,9.451061369106172,0.6119918612185865
1667776603139253500,7.87925341796875,2.758887205219269,9.384645069390535,0.6981224037729203
1667776603149304300,7.88930419921875,2.9871786589771507,9.309757878449558,0.7586446770139038
1667776603159355400,7.89935546875,3.237034586550295,9.222899094685912,0.7937918321102857
1667776603169407500,7.909407470703125,3.5140152524143455,9.120072341939807,0.8039590789247304
1667776603179458300,7.919458251953125,3.814796188321709,8.99969648849964,0.7894233347024768
1667776603189510700,7.9295107421875,4.129172811122238,8.863537959516048,0.7469779854219406
1667776603199561500,7.9395615234375,4.440797504866123,8.71741040970385,0.6756093239959329
1667776603209613600,7.949613525390625,4.732110939726233,8.569894620403646,0.5782912882013246
1667776603219664600,7.95966455078125,4.990173846891522,8.429391924735903,0.462527568199113
1667776603229716500,7.969716552734375,5.209462494504452,8.301696688193083,0.33723036924134936
1667776603239767600,7.979767578125,5.388098229211568,8.191266474705934,0.20484726714324206
1667776603249819400,7.9898193359375,5.527288088715076,8.100282719966769,0.07015050410816911
1667776603259870500,7.999870361328125,5.630991039773821,8.028651900473237,-0.05561152218263596
1667776603269921500,8.009921630859376,5.70300296753943,7.976196906092762,-0.1624537393814884
1667776603279973600,8.0199736328125,5.745145242220163,7.943692228329181,-0.2478126399761997
1667776603290024400,8.0300244140625,5.756596026039123,7.933128748738765,-0.3122449080014601
1667776603300076500,8.04007666015625,5.735662543603778,7.946478644177317,-0.35501404587626456
1667776603310127600,8.050127685546874,5.681055339625478,7.984789377871155,-0.37301381294727326
1667776603320179500,8.060179443359376,5.595905113345384,8.044913883966206,-0.36823501770552247
1667776603330230500,8.07023046875,5.492006931975483,8.117100583776832,-0.34776542645487935
1667776603340282400,8.080282470703125,5.3907770930320025,8.186085272675752,-0.3128798083715141
1667776603350333400,8.09033349609375,5.319869327116012,8.234128295832871,-0.26177084003882484
1667776603360385500,8.100385498046874,5.293562919470667,8.253096031153202,-0.18703009009752422
1667776603370436400,8.110436279296875,5.296140661004185,8.253049269402027,-0.09189599247956648
1667776603380488400,8.120488525390625,5.298567011368275,8.251994791913033,0.01140318410085747
1667776603390539500,8.13053955078125,5.284165561050176,8.260583172038197,0.10343873803145251
1667776603400590300,8.14059033203125,5.25208115452528,8.280075808015464,0.16239802713887766
1667776603410642400,8.150642333984376,5.210407666400075,8.306144315251707,0.1732381317135878
1667776603420693500,8.160693603515625,5.172015099641681,8.330764377245307,0.13790072387526742
1667776603430745300,8.170745361328125,5.157575070878863,8.340582006904482,0.06697437655639368
1667776603440796400,8.18079638671875,5.183393987268209,8.324815697973966,-0.01544654577410547
1667776603450848500,8.1908486328125,5.22656735856235,8.297451890230178,-0.07534822801488916
1667776603460899300,8.2008994140625,5.220754288369417,8.300910506251453,-0.09485869647637009
1667776603470951700,8.21095166015625,5.135128261271118,8.354306580874324,-0.08018595493622124
1667776603481002500,8.22100244140625,4.984975109204649,8.445122577831148,-0.017534268451109527
1667776603491054600,8.2310546875,4.771840015785396,8.566973764520883,0.08271266040224581
1667776603501105700,8.241105712890626,4.490777049043774,8.716220323136449,0.17553786002332344
1667776603511156500,8.251156494140625,4.154469749464094,8.88069016984701,0.21004174878010526
1667776603521208600,8.26120849609375,3.8009777985885735,9.038405281600356,0.17368289807271212
1667776603531259600,8.271259765625,3.457211415174603,9.176229697969555,0.12192293675169348
1667776603541311500,8.2813115234375,3.120311702659726,9.296431948408484,0.10200321620246394
1667776603551362600,8.291362548828126,2.7855978097513314,9.402131041720509,0.10367472047810442
1667776603561414400,8.301414306640625,2.4385003822185096,9.49817850959003,0.0934041046207305
1667776603571465500,8.311465576171875,2.0867843549743292,9.581947510644794,0.044720500271441414
1667776603581517600,8.321517578125,1.77183022454679,9.645213237375021,-0.029443404196552
1667776603591568400,8.331568359375,1.5113747231565415,9.689124275293945,-0.08375821479926816
1667776603601620500,8.341620361328125,1.2903209655672312,9.720899469739198,-0.09781215772079303
1667776603611671600,8.351671630859375,1.0938125973001123,9.745125563979148,-0.08058088167109526
1667776603621723400,8.361723388671875,0.9099290981326251,9.764215464374422,-0.05024897680275608
1667776603631774500,8.3717744140625,0.725023489375785,9.77977368351221,-0.027436263341933952
1667776603641825500,8.381825439453126,0.5310390500957146,9.792226337850094,-0.02576680032633012
1667776603651877400,8.39187744140625,0.3287707300623879,9.801012870895862,-0.04907543494477868
1667776603661928400,8.401928466796875,0.12524265575893223,9.805428349250555,-0.09089804921709001
1667776603671980300,8.411980224609374,-0.0749654986078851,9.805415489768981,-0.13633372115371747
1667776603682031400,8.42203125,-0.2739711087845266,9.80144600161612,-0.16429405175223946
1667776603692083500,8.43208349609375,-0.4800205913243815,9.793584766721725,-0.1602454522148706
1667776603702134300,8.44213427734375,-0.7028567388184368,9.780573309457301,-0.12948819350735283
1667776603712186600,8.4521865234375,-0.9407632854007184,9.76099241067469,-0.0915778481747955
1667776603722237700,8.46223779296875,-1.1719039180446416,9.73607774964869,-0.07626379022353794
1667776603732289500,8.47228955078125,-1.3799689416579901,9.708574241173267,-0.0983547766975127
1667776603742340600,8.482340576171875,-1.5636436934456228,9.680031452777982,-0.1496388458687812
1667776603752391700,8.4923916015625,-1.7265866228498516,9.651004095736145,-0.2177634108070284
1667776603762443500,8.502443603515625,-1.8731234841153024,9.621607905381918,-0.29402243809048084
1667776603772494600,8.51249462890625,-2.004956697245687,9.592235095903277,-0.3735841236485168
1667776603782546400,8.52254638671875,-2.1208276404820383,9.563823240411281,-0.4536218657530844
1667776603792597500,8.532597412109375,-2.215395829579234,9.538099601089954,-0.5357794860884547
1667776603802649600,8.542649658203125,-2.285755021701753,9.516135022041201,-0.6235948399245739
1667776603812700400,8.552700439453124,-2.337420765400678,9.496820080718397,-0.7192177257064729
1667776603822752500,8.56275244140625,-2.385949380117655,9.47669323849082,-0.8184765568379312
1667776603832803600,8.572803466796875,-2.4492021012358367,9.451787929815053,-0.9140550920214503
1667776603842855400,8.58285546875,-2.5392238790750503,9.418986899453401,-1.0027096000954507
1667776603852906500,8.592906494140625,-2.6585464240700003,9.37661549219191,-1.0870056937642394
1667776603862958300,8.602958251953124,-2.80208775678128,9.324797626671195,-1.1691101956728844
1667776603873009400,8.613009521484376,-2.958164453677833,9.265753317028283,-1.251185033095628
1667776603883060500,8.623060546875,-3.1103736614912747,9.204132434895634,-1.3341305889382957
1667776603893112300,8.6331123046875,-3.242170780394971,9.146627755910158,-1.413473297983408
1667776603903163400,8.643163330078124,-3.345682300534844,9.098587070840596,-1.4807114354759454
1667776603913215500,8.653215576171876,-3.4272479463264345,9.06070303812623,-1.525783918389678
1667776603923266300,8.663266357421875,-3.4998519947662947,9.030046034055948,-1.5426234095096587
1667776603933318400,8.673318359375,-3.5665056103691457,9.004869507223367,-1.5371210127010941
1667776603943369500,8.683369384765625,-3.6119118552818894,8.988701047232746,-1.5256922945834694
1667776603953421300,8.69342138671875,-3.6122079156190154,8.989227116933465,-1.5218838422112166
1667776603963472400,8.703472412109376,-3.5546111744359132,9.011756344127654,-1.5242581701271236
1667776603973524700,8.713524658203125,-3.435134315662086,9.058772362324595,-1.5194959241613746
1667776603983575800,8.723575927734375,-3.258756881275773,9.127196494731306,-1.4983900077685712
1667776603993627000,8.733626953125,-3.0387647615686055,9.20934461658597,-1.457481951057911
1667776604003678700,8.7436787109375,-2.782031641702354,9.299939664268493,-1.3934803112685679
1667776604013729800,8.753729736328125,-2.4889839303955434,9.395532374107837,-1.3035768991120158
1667776604023782000,8.763781982421875,-2.1714976511418818,9.48795639078319,-1.1973593348838387
1667776604033832700,8.773832763671875,-1.847780953066051,9.569560907280444,-1.0860918668549506
1667776604043884800,8.783884765625,-1.5284766646049917,9.638381930050253,-0.9673464641608297
1667776604053935900,8.793935791015626,-1.2152888862628488,9.695210317209362,-0.8344823005475104
1667776604063987700,8.80398779296875,-0.91199012231566,9.73969535562396,-0.6906526524141431
1667776604074038800,8.814038818359375,-0.6202724905688315,9.771779762148856,-0.545867237925902
1667776604084090600,8.824090576171875,-0.33593722415827215,9.79226900794804,-0.41113041230849917
1667776604094141700,8.8341416015625,-0.05115319563348312,9.802181330153346,-0.2915662953763269
1667776604104193800,8.84419384765625,0.24553631080836055,9.801936415481567,-0.17919342338880523
1667776604114244600,8.85424462890625,0.5594864152925089,9.790501413753628,-0.05855483649238012
1667776604124296700,8.864296630859375,0.8833191774960607,9.766403914329409,0.08649926626887172
1667776604134347800,8.87434765625,1.199943433092907,9.729312493297456,0.2664444944056682
1667776604144398600,8.884398681640626,1.4904343725889921,9.681236736914515,0.47181858016829936
1667776604154450700,8.89445068359375,1.7467662181779742,9.625997080251574,0.6777814073380083
1667776604164501800,8.904501708984375,1.9745836246833204,9.567160275879502,0.8607065828673541
1667776604174553900,8.914553955078125,2.184225615289807,9.506947506979108,1.0086972962029277
1667776604184604700,8.924604736328124,2.397846592529863,9.442090711665154,1.12588772454001
1667776604194656800,8.93465673828125,2.6428940969079733,9.363686452513933,1.2275411226578057
1667776604204707800,8.944707763671875,2.937160828615725,9.262108823046088,1.325440063612908
1667776604214760000,8.954760009765625,3.2865745702669025,9.131398622596263,1.409388659018278
1667776604224810800,8.964810791015625,3.6803532310843465,8.972775163826347,1.4541967919073997
1667776604234862800,8.97486279296875,4.091161060374975,8.79242210380733,1.4581139653511344
1667776604244914000,8.984913818359376,4.488851926200091,8.601110427400469,1.4287950780168175
1667776604254965800,8.9949658203125,4.857246847175062,8.408076749506593,1.3717872426375746
1667776604265016800,9.005016845703125,5.188908366775513,8.219951886442303,1.2953893548727036
1667776604275068000,9.01506787109375,5.4808554233640425,8.041742852714657,1.2087084849592298
1667776604285119700,9.02511962890625,5.732715384235978,7.8777686805665486,1.1167432449020445
1667776604295170800,9.0351708984375,5.943335572224855,7.73265060005784,1.0262979078885168
1667776604305222700,9.04522265625,6.11462854295373,7.60929836115539,0.9382339861188084
1667776604315273700,9.055273681640625,6.249194834309816,7.509575419643521,0.8510281424831598
1667776604325325800,9.065325927734374,6.349403513512015,7.435269243460893,0.7564524276666342
1667776604335376600,9.075376708984376,6.418980323085188,7.385127202197909,0.6534202885415404
1667776604345428700,9.0854287109375,6.458266039291024,7.359177352905273,0.5511089379716664
1667776604355479800,9.095479736328125,6.465742658782005,7.358502814644575,0.4658517441857606
1667776604365531600,9.10553173828125,6.440936134305596,7.383402862623334,0.4124017839511856
1667776604375582700,9.115582763671876,6.383868093171715,7.433681097486614,0.39618111884929236
1667776604385633800,9.1256337890625,6.296292685571313,7.507250776088237,0.41020836556013673
1667776604395685600,9.135685546875,6.183631352031231,7.598651294934749,0.4399635254198685
1667776604405736700,9.14573681640625,6.06093436216712,7.694934909647703,0.47274544922225176
1667776604415788500,9.15578857421875,5.954608076867461,7.775724602630734,0.5011584737580269
1667776604425839600,9.165839599609376,5.887904776903986,7.824348056024313,0.5315315463203937
1667776604435892000,9.17589208984375,5.858867482990026,7.842662295871973,0.580264816763997
1667776604445942800,9.18594287109375,5.831869585949182,7.858084905931353,0.6404685255751014
1667776604455995000,9.195994873046875,5.756835680013895,7.908168495005369,0.7000945075634867
1667776604466046000,9.2060458984375,5.61596122842431,8.00091282967627,0.7853329966489225
1667776604476097800,9.216097900390626,5.404379501926899,8.12948543357551,0.9351682418726384
1667776604486148900,9.22614892578125,5.116936186498403,8.289785301125049,1.1255156032919884
1667776604496200700,9.23620068359375,4.768448035259545,8.47059662630558,1.2966354094110428
1667776604506251800,9.246251708984374,4.391644474640488,8.653170869505406,1.4165094508089124
1667776604516302800,9.256302734375,4.057160591095686,8.809963021194934,1.4471885205805302
1667776604526354700,9.266354736328125,3.8037420026049014,8.934578996422886,1.3693874880194663
1667776604536405800,9.27640576171875,3.567663548232615,9.050451693224906,1.237545068669319
1667776604546457900,9.286457763671875,3.3024230045229195,9.162620274811983,1.144881909475848
1667776604556508700,9.2965087890625,3.0037682669892907,9.268600523152946,1.1139206617619841
1667776604566560800,9.306560791015626,2.6742241779342293,9.368964100655912,1.1141893957007676
1667776604576611800,9.31661181640625,2.318398523414135,9.462773434209822,1.1186362190417944
1667776604586663700,9.32666357421875,1.9493465998351573,9.546189968565105,1.1138532225489615
1667776604596714800,9.33671484375,1.5867233941294252,9.615034956732393,1.0971686297297476
1667776604606766600,9.3467666015625,1.2511780188329518,9.667413963267206,1.0705341591738164
1667776604616817700,9.356817626953125,0.9541006136186421,9.705391519483923,1.032199021691084
1667776604626869800,9.366869873046875,0.6949926543798297,9.733243987527489,0.9753636933345347
1667776604636920600,9.376920654296875,0.46834608175214376,9.753896899455786,0.9014159752007573
1667776604646971600,9.3869716796875,0.26692610391015187,9.769383222401142,0.8113484585236758
1667776604657023700,9.397023681640626,0.08300493048024363,9.78128408807516,0.6999931660808623
1667776604667074600,9.407074462890625,-0.09972468594438395,9.789723999640344,0.5672394771046936
1667776604677126700,9.417126708984375,-0.30288232863340525,9.792743055200576,0.42521932607870544
1667776604687177700,9.427177734375,-0.5301475080834701,9.787918411523103,0.2932622308403253
1667776604697229800,9.437229736328124,-0.7632111081466079,9.775230194863676,0.18102208185438065
1667776604707281000,9.447281005859375,-0.9943324515681713,9.755666247215867,0.09292525332891381
1667776604717332700,9.457332763671875,-1.2294320509709418,9.729257548239827,0.020395989441603885
1667776604727383800,9.4673837890625,-1.4695435602515936,9.695745154738425,-0.057836481922841625
1667776604737436000,9.477435791015624,-1.7094750367902218,9.655363459989427,-0.14844591889032163
1667776604747486700,9.48748681640625,-1.9406730256445706,9.609453357207775,-0.25014398726690557
1667776604757538800,9.497538818359375,-2.1503988951422275,9.561121580237149,-0.36211664442308245
1667776604767590000,9.50758984375,-2.32276709388718,9.515562775111198,-0.47877223523110146
1667776604777641700,9.517641845703125,-2.445733986733854,9.478267355939746,-0.5926216095119714
1667776604787692800,9.52769287109375,-2.523285428448021,9.450568617153166,-0.7001078785017132
1667776604797743900,9.537743896484375,-2.574064306309819,9.42911666380167,-0.7977039640527218
1667776604807795700,9.547795654296875,-2.6192934410899875,9.409380866718292,-0.8793453054290264
1667776604817846800,9.5578466796875,-2.671171804626286,9.38877530106306,-0.9413438617676496
1667776604827898600,9.567898681640624,-2.727084245984256,9.368360874065756,-0.983474957467243
1667776604837949700,9.57794970703125,-2.7686300160765644,9.354073990038037,-1.0031836473479867
1667776604848001800,9.588001708984375,-2.774748791217804,9.353031787508726,-0.9959655326627195
1667776604858052600,9.598052490234375,-2.7352684292227027,9.367604502740502,-0.9678150315206497
1667776604868104700,9.608104736328125,-2.648172329571843,9.397001277616619,-0.9240861452355981
1667776604878155800,9.61815576171875,-2.516650228217244,9.439142383253573,-0.8599219352956861
1667776604888207600,9.62820751953125,-2.3445960638575256,9.491619004943967,-0.7631503178700805
1667776604898258700,9.6382587890625,-2.143904126295447,9.548208322650193,-0.6369973423331976
1667776604908310500,9.648310546875,-1.9276528005518019,9.601952772319317,-0.5069846956934779
1667776604918361600,9.658361572265624,-1.6859337099440395,9.652436174365878,-0.39808074192553755
1667776604928412700,9.66841259765625,-1.4094574864707887,9.69939374037385,-0.32494463243559
1667776604938464800,9.67846484375,-1.1193539388570934,9.738648476919531,-0.27596104049272835
1667776604948515600,9.688515625,-0.8188617567632347,9.769906954014301,-0.22082477113902568
1667776604958568000,9.69856787109375,-0.5031342673430219,9.79264485552311,-0.1461331027701497
1667776604968619000,9.708618896484374,-0.18481460600513963,9.804662041053176,-0.06955931958225556
1667776604978671400,9.71867138671875,0.12656517306696624,9.805813549175857,-0.01992920533020515
1667776604988722400,9.728722412109375,0.4298959395876154,9.797221077397465,-0.004700474160521116
1667776604998774300,9.738774169921875,0.7282789840403944,9.77956968537271,-0.0023273592416997416
1667776605008825300,9.748825439453125,1.0221992403980344,9.75320073388517,0.0237526497756131
1667776605018877200,9.758877197265624,1.3057888760730623,9.718688223430513,0.1114781790369656
1667776605028928300,9.76892822265625,1.570772376281768,9.676309801906347,0.2684724931019358
1667776605038980400,9.77898046875,1.822234862268716,9.624369771310686,0.4704376106712967
1667776605049031200,9.78903125,2.071212399572134,9.560511339384316,0.6907238179542123
1667776605059082200,9.799082275390624,2.3167986870020627,9.484832121282816,0.9169531515505165
1667776605069134300,9.80913427734375,2.5521926662415266,9.399726318666339,1.1409817602321506
1667776605079185200,9.81918505859375,2.777266326996684,9.308402956709266,1.3456610138647258
1667776605089237200,9.8292373046875,2.999769552741945,9.213011322399973,1.5139910431347787
1667776605099288300,9.839288330078125,3.2261382217437027,9.115711808642745,1.6328503545321522
1667776605109340200,9.849340087890624,3.4621588084489106,9.018941871717571,1.6859883627407253
1667776605119391200,9.85939111328125,3.706853699997067,8.923861203053594,1.671627390563488
1667776605129443000,9.869443115234375,3.947570920085907,8.832821918734908,1.6026038309589028
1667776605139494100,9.879494140625,4.1643847020179035,8.751851608487963,1.4944627513222395
1667776605149546200,9.889546142578125,4.340402363181114,8.687039821359514,1.3662439292967319
1667776605159597000,9.89959716796875,4.467975726909935,8.642252585127949,1.2325143810257315
1667776605169649200,9.909649169921876,4.544959890130162,8.620103297162055,1.0988819364536553
1667776605179700200,9.9197001953125,4.572769103553891,8.6208035543859,0.970536053982377
1667776605189752300,9.92975244140625,4.552377472910285,8.643378374287485,0.8591990278486162
1667776605199803100,9.93980322265625,4.482643426948785,8.686886092102528,0.7837817486189306
1667776605209854200,9.949854248046876,4.361004421705007,8.751298650780319,0.7528726694837212
1667776605219906300,9.95990625,4.190101911598444,8.834629260417818,0.7501916867714374
1667776605229957000,9.96995703125,3.974855232852697,8.933357930195331,0.7523217576026916
1667776605240009200,9.98000927734375,3.72572206659615,9.040456953433155,0.7480000950112938
1667776605250060300,9.990060302734374,3.455753617581725,9.14817147822082,0.7342113697640598
1667776605260112400,10.0001123046875,3.169082163308561,9.25251681883633,0.7199005934040993
1667776605270163200,10.0101630859375,2.8771473816797135,9.346932301589845,0.7261222443979233
1667776605280215300,10.02021533203125,2.6148586735129355,9.419743855300545,0.7754634176068007
1667776605290266400,10.030266357421874,2.428163258729875,9.460510165452957,0.8792954749379307
1667776605300318200,10.040318115234374,2.319001896134764,9.473341005453467,1.023927452430129
1667776605310369300,10.050369384765625,2.247135514319688,9.473556109508872,1.171528435795754
1667776605320420400,10.06042041015625,2.1879155558489263,9.471102871137857,1.2967770098388194
1667776605330472200,10.07047216796875,2.0779121894717214,9.482413369703293,1.3915879216507077
1667776605340523300,10.080523193359374,1.855075640118867,9.53036929909885,1.3788098347507416
1667776605350575000,10.0905751953125,1.5220061534166336,9.61537514847219,1.1825715155966579
1667776605360626200,10.100626220703125,1.1881236698310822,9.696433137002586,0.8590435450259596
1667776605370678300,10.11067822265625,0.9724266169693321,9.74112918781936,0.5789349198671058
1667776605380729000,10.12072900390625,0.8560141142021864,9.76010101479292,0.4219521775089204
1667776605390781200,10.13078125,0.8006469587020576,9.767156194001435,0.36330073964111503
1667776605400832300,10.140832275390625,0.7593705070704221,9.770650465857981,0.3579313580950722
1667776605410884000,10.150884033203125,0.6810377787854522,9.776704943591355,0.3501828993927687
1667776605420935200,10.16093505859375,0.5286567215364426,9.788388367122412,0.2798671628194861
1667776605430987000,10.170987060546874,0.2948500662873499,9.801673965153098,0.1032310683638323
1667776605441038000,10.1810380859375,0.014150722393463365,9.80510160151422,-0.17376646643662824
1667776605451090400,10.19109033203125,-0.2653860896602273,9.790840436449646,-0.4892851536780595
1667776605461141000,10.20114111328125,-0.5266879056815058,9.762059747645258,-0.771465799337998
1667776605471192000,10.211192138671874,-0.8031212398611008,9.725538235455751,-0.9691728758703917
1667776605481244400,10.221244384765624,-1.1474755792308597,9.681869774121045,-1.055975253271684
1667776605491295200,10.231295166015625,-1.514559198411554,9.63150561453998,-1.0538498586155474
1667776605501347300,10.241347412109375,-1.8417628618203103,9.574165770727395,-1.0552967694882303
1667776605511398400,10.2513984375,-2.126373438040912,9.509755550137161,-1.1015787743221968
1667776605521450200,10.2614501953125,-2.36448252145797,9.445705395030975,-1.165455107231438
1667776605531501300,10.271501220703126,-2.544037709097564,9.39252325541973,-1.2160405083477497
1667776605541553200,10.28155322265625,-2.6638208573415874,9.357035762453078,-1.2330030413255095
1667776605551604200,10.291604248046875,-2.743558118662238,9.336654068681597,-1.2125026165451853
1667776605561656300,10.30165625,-2.7928692620590327,9.327974503141641,-1.1658368730906397
1667776605571707100,10.31170703125,-2.7997718810543417,9.33263957234323,-1.1106366716552525
1667776605581759200,10.32175927734375,-2.748308528059721,9.353279040268063,-1.0645826303582637
1667776605591810300,10.331810302734375,-2.643608090396225,9.387666463038325,-1.0263641049925236
1667776605601862100,10.341862060546875,-2.507425596015155,9.430267587402463,-0.9763483204577118
1667776605611913200,10.351913330078125,-2.3578625187963245,9.476178859227895,-0.9016133244037627
1667776605621964300,10.36196435546875,-2.1890311158753932,9.525047227293252,-0.8074650412190705
1667776605632016100,10.37201611328125,-1.9843837186858058,9.57775415060818,-0.7065639958385378
1667776605642067200,10.382067138671875,-1.7442983667597174,9.63089069751203,-0.6113578741639852
1667776605652119000,10.392119140625,-1.488947933423519,9.67855845761597,-0.5281253180734813
1667776605662170000,10.402170166015624,-1.232846973980963,9.718212422612309,-0.45478210517149414
1667776605672222200,10.41222216796875,-0.9710085668649524,9.75068144454062,-0.3895269947223365
1667776605682273000,10.42227294921875,-0.6877812616962939,9.776539523896574,-0.34148024523817
1667776605692325000,10.4323251953125,-0.37536322561763225,9.794323602390289,-0.3173660869400948
1667776605702376200,10.442376220703125,-0.031026663933158852,9.801757551783323,-0.3081692560603842
1667776605712428300,10.45242822265625,0.3464567550091073,9.795213244706392,-0.32272450870070607
1667776605722479000,10.46247900390625,0.7197058014843613,9.773690564206243,-0.3568715468438342
1667776605732531200,10.47253125,1.0688356846928595,9.740630006125569,-0.38486492119543253
1667776605742582300,10.482582275390625,1.414492265767604,9.69786229302287,-0.34795393476430325
1667776605752634400,10.49263427734375,1.7580562584772705,9.64618237466812,-0.17538340011397377
1667776605762685200,10.502685302734376,2.063777135004848,9.586329086729883,0.11625944023043848
1667776605772736300,10.512736328125,2.31311093840003,9.518606380590796,0.4647737762233242
1667776605782788400,10.522788330078125,2.5277479608148337,9.442831885421276,0.7834521513383835
1667776605792839200,10.532839111328125,2.751268254648149,9.35809666968286,1.013387207584828
1667776605802891300,10.542891357421874,3.019262480980158,9.259045928344129,1.1508799808468668
1667776605812942300,10.5529423828125,3.334334392568469,9.141913586869835,1.215731807724759
1667776605822994200,10.562994140625,3.6676518626824017,9.011068946385382,1.2326175491392612
1667776605833045200,10.573045166015625,3.9799715529531237,8.87923880199492,1.2203787567477673
1667776605843097000,10.58309716796875,4.255529200276732,8.755396149227023,1.1848541466411202
1667776605853148200,10.593148193359376,4.493569894632697,8.644925019207596,1.1151227310281246
1667776605863200300,10.6032001953125,4.693701714093983,8.550265206304193,1.0161359948363156
1667776605873251000,10.6132509765625,4.855874974299967,8.472793259567021,0.8958871287766843
1667776605883303200,10.62330322265625,4.9817988172560925,8.412582244232297,0.7619575278889388
1667776605893354200,10.633354248046874,5.055523394158482,8.378153904929757,0.6470007038228214
1667776605903406000,10.643406005859376,5.0568327231913806,8.382631342604755,0.5747592416176572
1667776605913457200,10.65345703125,4.964020583981275,8.439758420449495,0.5471344448501244
1667776605923508200,10.66350830078125,4.75859971820116,8.557470607638358,0.5438750777279958
1667776605933560000,10.67356005859375,4.440986597697437,8.727113473072647,0.5343132859934121
1667776605943611100,10.683611083984376,4.045669183005392,8.919336419105528,0.4983796201618388
1667776605953663200,10.693663330078126,3.6374691981256007,9.096461164727806,0.43997875952161847
1667776605963714000,10.703714111328125,3.253991274309158,9.243366128653287,0.3769318266412243
1667776605973766400,10.713766357421875,2.901652585121989,9.362045699569583,0.32082335125450046
1667776605983817200,10.723817138671874,2.5871429835915563,9.455327794378995,0.27172095523755996
1667776605993869300,10.733869384765624,2.3451956371858715,9.519267474848032,0.23231460832674056
1667776606003920400,10.74392041015625,2.2601206680990753,9.539777763435245,0.23429664898943153
1667776606013972200,10.75397216796875,2.3757484502293167,9.509709372907876,0.30267739891214296
1667776606024023300,10.764023193359375,2.580000710621476,9.452178974959253,0.4127062833230942
1667776606034074400,10.774074462890624,2.657788299179077,9.422088372600077,0.5751480948047712
1667776606044126200,10.784126220703126,2.492984690469503,9.443691132599115,0.8786989703495055
1667776606054177300,10.79417724609375,2.1162452811278403,9.492721413227915,1.257035512689501
1667776606064229400,10.8042294921875,1.6297263772927224,9.550983632582426,1.5142853499062359
1667776606074280200,10.8142802734375,1.1883552135646342,9.602895021605491,1.5945467812314629
1667776606084332300,10.824332275390624,0.9687060620762408,9.63474912650585,1.5503576570235191
1667776606094383400,10.83438330078125,1.007755704503879,9.651116908460855,1.4180173711538313
1667776606104435200,10.844435302734375,1.1193792924940587,9.663177933132648,1.241122342634201
1667776606114486300,10.854486328125,1.1948095042705535,9.678150461336969,1.0374125916209072
1667776606124538000,10.8645380859375,1.1870787638880311,9.70036229314506,0.8149742478054016
1667776606134589200,10.874589111328126,1.0892917588748037,9.729678988522291,0.5631633502395823
1667776606144641300,10.884641357421875,0.9309463863939046,9.758442726191877,0.2766058046696707
1667776606154692000,10.894692138671875,0.7505895269826054,9.777865219542383,-0.019241618074977304
1667776606164744200,10.904744140625,0.5075514261981472,9.787745977565645,-0.3358521031580865
1667776606174795300,10.914795166015624,0.13530916387895123,9.784534614303707,-0.6441599274389446
1667776606184847000,10.92484716796875,-0.3246784192474559,9.766118083125352,-0.8294144957639277
1667776606194898200,10.934898193359375,-0.8357372690446674,9.734214293864369,-0.8467479809459298
1667776606204949200,10.94494921875,-1.3484591201506555,9.683285486137866,-0.7655242804598063
1667776606215001000,10.9550009765625,-1.8008092124022543,9.614853754946589,-0.6942966349396854
1667776606225052200,10.96505224609375,-2.1947192445144057,9.535264669924974,-0.6575153758354485
1667776606235104300,10.975104248046875,-2.5237811030104753,9.451901911583542,-0.680048256291449
1667776606245155300,10.9851552734375,-2.7613550566375253,9.378903310868143,-0.7625415383219718
1667776606255207400,10.99520751953125,-2.9282354716211554,9.321191126611827,-0.8433361266758292
1667776606265258200,11.00525830078125,-3.061588295534253,9.273110694053768,-0.8980348813951015
1667776606275310300,11.015310302734376,-3.1495781291544436,9.237406927987932,-0.9596222996495664
1667776606285361400,11.025361328125,-3.1630469747975467,9.223678262364864,-1.04369481369555
1667776606295413200,11.035413330078125,-3.0926471584036945,9.23772724598348,-1.1270826334130017
1667776606305464300,11.04546435546875,-2.9529134012818337,9.277515066492557,-1.1740635072313248
1667776606315516200,11.05551611328125,-2.7720415780857204,9.336047334960103,-1.1508163410261272
1667776606325567200,11.065567138671875,-2.5730381781324745,9.404882386255263,-1.0478656696394086
1667776606335618300,11.075618408203125,-2.354434590174258,9.478104858854412,-0.8902485383678227
1667776606345670100,11.085670166015625,-2.0955540830157697,9.553349777191876,-0.715915615421161
1667776606355721200,11.09572119140625,-1.7989238370470702,9.624203182572126,-0.5558635851528495
1667776606365773300,11.105773193359376,-1.5155176681801676,9.680011579033732,-0.4134749661406502
1667776606375824100,11.11582421875,-1.2761188372135162,9.718875270435213,-0.29220872146571053
1667776606385876200,11.125876220703125,-1.0455796045288444,9.748661336889862,-0.2019130768548697
1667776606395927300,11.13592724609375,-0.7703592994008213,9.775244223389029,-0.1466296723817475
1667776606405979100,11.145979248046874,-0.42130186037402595,9.796869195219873,-0.11934914987408556
1667776606416030200,11.1560302734375,0.004299110834994644,9.806074830460547,-0.1062071067662444
1667776606426082000,11.16608203125,0.49410939549673344,9.793450911208987,-0.12067300062268041
1667776606436133000,11.176133056640625,0.9384639224171638,9.760139008715749,-0.17129887074669822
1667776606446185200,11.186185302734375,1.2926220821164547,9.718215929743646,-0.2362514363190159
1667776606456236000,11.196236083984376,1.6392168208241462,9.66563643220067,-0.24256332287956028
1667776606466288400,11.206288330078126,2.0127477895133197,9.59756301292777,-0.07757351654865778
1667776606476339500,11.21633935546875,2.35373535586372,9.516346034443378,0.2636220025971532
1667776606486390000,11.22639013671875,2.6192905184805393,9.425767353373766,0.6816128021944314
1667776606496442400,11.2364423828125,2.850024104693532,9.326459422403573,1.0319425627119838
1667776606506493400,11.246493408203126,3.1174758947119114,9.215268161416054,1.2371512470461428
1667776606516545300,11.256545166015625,3.436857193931937,9.087622609233856,1.3317204590566456
1667776606526596400,11.266596435546875,3.767425365337729,8.946464664527774,1.3919992789305746
1667776606536648200,11.276648193359375,4.0646588378965856,8.80665228921175,1.4463000473082064
1667776606546699300,11.28669921875,4.32354095249027,8.680661518499255,1.4572346982985733
1667776606556751400,11.29675146484375,4.557463105611503,8.571685010951757,1.3878501964271068
1667776606566802200,11.30680224609375,4.769476501524448,8.477845866781472,1.2444435960114002
1667776606576854300,11.316854248046875,4.95328700852096,8.397250235065817,1.0590271151229738
1667776606586905300,11.3269052734375,5.098265388298034,8.332745321929455,0.862233207912743
1667776606596957200,11.336957275390626,5.193693262964487,8.290843870267272,0.6766688429862261
1667776606607008300,11.34700830078125,5.235889898180961,8.275136598047613,0.5272011524332687
1667776606617060000,11.35706005859375,5.214914914691448,8.292363042658566,0.4601553591750562
1667776606627111200,11.367111083984375,5.110930224081874,8.354467324393987,0.5016115878203884
1667776606637162200,11.377162353515626,4.90268056461662,8.471315003708005,0.6090289928250014
1667776606647214000,11.387214111328126,4.582643724097311,8.642765210825205,0.6872961815930902
1667776606657265200,11.39726513671875,4.188802227176725,8.840601320564746,0.6841754192240536
1667776606667317200,11.407317138671875,3.785501120254397,9.025030836242436,0.6238880507174879
1667776606677368000,11.4173681640625,3.4086513824060556,9.17814459168017,0.5596079593129456
1667776606687420200,11.427420166015626,3.0603476478233933,9.30264716966152,0.5151583575379103
1667776606697471200,11.43747119140625,2.7406340479090807,9.40389863591492,0.47537104848548767
1667776606707523000,11.447523193359375,2.465821665994823,9.482064994657039,0.4248834817204624
1667776606717574100,11.45757421875,2.281781588026136,9.529552137497067,0.3892008680405095
1667776606727626200,11.467626220703124,2.2240159200169143,9.540933947733045,0.44130109416656194
1667776606737677300,11.47767724609375,2.1962809408731756,9.538793428573012,0.5984534209379926
1667776606747729400,11.4877294921875,2.118570070813596,9.5407381329,0.8101720351554453
1667776606757780200,11.4977802734375,1.9881467244811355,9.546243160057067,1.0425368027668445
1667776606767832300,11.507832275390625,1.7690762496635317,9.56425520208776,1.2513111436933277
1667776606777883400,11.51788330078125,1.47701930295974,9.594642157045007,1.3898342098511756
1667776606787934200,11.527934326171875,1.1753045202683656,9.64083224581182,1.3577248150154948
1667776606797986300,11.537986328125,0.9540501986056565,9.692653033941983,1.1457026512742041
1667776606808037400,11.548037353515625,0.8376329465981572,9.730568046316504,0.8858870552226901
1667776606818089200,11.558089111328124,0.7752575197711586,9.753421098637581,0.6634367287084459
1667776606828140300,11.568140380859376,0.7212326457254589,9.768616914203763,0.47365317518431693
1667776606838192000,11.578192138671875,0.6671328798126429,9.780152453696727,0.2718802191861905
1667776606848243200,11.5882431640625,0.6073414050642401,9.787820796367525,0.009723335546912858
1667776606858295300,11.59829541015625,0.4869983579151332,9.789203775158525,-0.3236138952884823
1667776606868346000,11.60834619140625,0.2566748503403738,9.780199799969791,-0.6724698569264262
1667776606878398200,11.618398193359376,-0.09584110424299724,9.759802908629178,-0.9526029224067926
1667776606888449300,11.62844921875,-0.5588166628047824,9.728684132266045,-1.1003733440551906
1667776606898501000,11.638501220703125,-1.0879569300744683,9.682357265377044,-1.1129633610371499
1667776606908552200,11.64855224609375,-1.5951342257305978,9.6180779776901,-1.0576008086469024
1667776606918604000,11.65860400390625,-1.999916072729975,9.545879587441682,-1.0231836483255028
1667776606928655000,11.668655029296875,-2.3066645387396214,9.475232518288493,-1.0342438984569162
1667776606938706200,11.6787060546875,-2.5449825887322426,9.409321830007434,-1.0761487841852009
1667776606948758000,11.688758056640625,-2.7292227193176744,9.350515420773625,-1.1355967792581767
1667776606958809000,11.69880908203125,-2.872342904007435,9.301664588364957,-1.182820668052137
1667776606968861200,11.708861083984376,-2.973874940767884,9.265214387845992,-1.2174785783268511
1667776606978912000,11.718912109375,-3.0093241475507617,9.249262200954556,-1.2512062220141291
1667776606988964000,11.728964111328125,-2.9658997241050002,9.258446208885312,-1.2864679434008897
1667776606999015200,11.73901513671875,-2.846456767600775,9.292384718844295,-1.3113491405487059
1667776607009067000,11.74906689453125,-2.66941122469455,9.34677389615774,-1.2970872448317705
1667776607019118000,11.7591181640625,-2.4771523305654526,9.410831065526605,-1.212576339368522
1667776607029170000,11.769169921875,-2.3060187881819902,9.474020804411172,-1.046704882231727
1667776607039221000,11.779220947265625,-2.1389977956838906,9.535342411336302,-0.8199401265844702
1667776607049273300,11.7892734375,-1.9213706515423952,9.599144729161262,-0.5788974739335477
1667776607059324000,11.799323974609376,-1.635450892419368,9.662243282631039,-0.3697823932779953
1667776607069375000,11.809375,-1.357689889832586,9.709926240304112,-0.21072156600411981
1667776607079427300,11.81942724609375,-1.1239604828044771,9.741589791068433,-0.09233821068857796
1667776607089478100,11.82947802734375,-0.8786664563193917,9.76720412479639,-0.005772203322182758
1667776607099530200,11.8395302734375,-0.5702103096090256,9.789936765608191,0.04881295721684582
1667776607109581300,11.849581298828125,-0.19322815928636117,9.80446564169824,0.07419017598698846
1667776607119633200,11.859633056640625,0.21936010541394352,9.80388696502745,0.07792358122849836
1667776607129684200,11.869684326171875,0.6419686279397457,9.785365804430842,0.0697469556754222
1667776607139736000,11.879736083984374,1.0415746066711842,9.751066059944034,0.04729890852523967
1667776607149787100,11.889787109375,1.381266434122622,9.70886708664,0.019558668684493748
1667776607159839200,11.899839111328125,1.6846061146020888,9.660864395493268,0.014186023177352035
1667776607169890000,11.90989013671875,1.9923554282173512,9.601351883816719,0.12242022788249887
1667776607179942100,11.919942138671875,2.2877407886914907,9.526831772622465,0.419651134024933
1667776607189993200,11.9299931640625,2.5251804484143854,9.436210421454906,0.8670437499996274
1667776607200045000,11.940045166015626,2.704100553020835,9.332215793973207,1.3296475983053444
1667776607210096000,11.95009619140625,2.8891093298912045,9.220857359725237,1.6730949788980185
1667776607220148000,11.96014794921875,3.1128616789147254,9.108294225862622,1.876019643948227
1667776607230199000,11.970198974609374,3.3636174779370425,8.993927841970324,1.9914159554101525
1667776607240250000,11.98025,3.623605507946014,8.879709342116117,2.0471127081908285
1667776607250302000,11.990302001953125,3.8765672925800083,8.77388048494458,2.0400030223160983
1667776607260353000,12.00035302734375,4.120844835498929,8.680207344990968,1.9603611841939388
1667776607270405000,12.010405029296875,4.356164288197458,8.59926158466339,1.8019177581660448
1667776607280456200,12.020456298828124,4.568047627989947,8.532825411203502,1.5793198398746549
1667776607290508000,12.030508056640626,4.738296058101952,8.483581195563078,1.3220378539539872
1667776607300559000,12.04055908203125,4.85235410669744,8.455105042663217,1.0659637094531207
1667776607310611200,12.050611083984375,4.898784141699969,8.45246651085317,0.8533014942426234
1667776607320662000,12.060662109375,4.86434674230814,8.485146545183659,0.7147363425087183
1667776607330714000,12.070714111328124,4.727243041428923,8.566995976352691,0.6558455429270863
1667776607340765200,12.08076513671875,4.459747412268817,8.709535146284104,0.6519676785804331
1667776607350817300,12.0908173828125,4.052650420194864,8.90615135883987,0.6533814909011125
1667776607360868000,12.1008681640625,3.557940903380513,9.11747297309637,0.6189638921882957
1667776607370920200,12.110920166015624,3.0661084033071995,9.298809783455729,0.5490965021707117
1667776607380971300,12.12097119140625,2.623852419568598,9.436801373085379,0.4822085298227146
1667776607391022000,12.13102197265625,2.2446989348225292,9.536700255686045,0.42786147461794316
1667776607401074200,12.14107421875,1.9418122588075697,9.605150691577792,0.37525812127534297
1667776607411125200,12.151125244140625,1.7271886803962289,9.64819839066565,0.31536669328380373
1667776607421177000,12.161177001953124,1.6310465199805795,9.666473467546702,0.26337933468138797
1667776607431228200,12.171228271484376,1.6890486270941794,9.656015786418319,0.2808022517125122
1667776607441280000,12.181280029296875,1.80311588190943,9.631018707805872,0.40328769945148374
1667776607451331000,12.1913310546875,1.8073571727409958,9.620237786072492,0.5957007246963679
1667776607461383200,12.201383056640625,1.6526792367264627,9.630920508128405,0.8272842057369649
1667776607471434200,12.211434326171876,1.4019419962741433,9.646733578810096,1.0702708320625125
1667776607481486000,12.221486083984376,1.0840226593654603,9.66294996959567,1.2738424167141318
1667776607491537200,12.231537109375,0.7287083884336054,9.685877840718627,1.350238989304751
1667776607501589000,12.241589111328125,0.43435938526988027,9.721665777936577,1.212810951841995
1667776607511640000,12.25164013671875,0.40250257695578034,9.757593415886163,0.8931575576823204
1667776607521692200,12.261692138671876,0.5115623058073222,9.777692201063036,0.5526462670741602
1667776607531743000,12.271742919921875,0.6051278572006151,9.78464216633141,0.25489903630688787
1667776607541794000,12.2817939453125,0.6592419804323464,9.784466225242614,-0.00294715365957818
1667776607551846100,12.29184619140625,0.6772602330081164,9.78039093862772,-0.23589579128175972
1667776607561897000,12.30189697265625,0.6209202869530767,9.775862647548317,-0.46622481528185306
1667776607571949300,12.31194921875,0.4282150372959673,9.772024092298745,-0.7032452997446059
1667776607582000000,12.322000244140625,0.08400823490442708,9.764269240388273,-0.9068361736185848
1667776607592052200,12.33205224609375,-0.3870371506679803,9.74607424300611,-1.0171554740771651
1667776607602103300,12.342103271484374,-0.9361053035270422,9.70936919094324,-1.0110541615273803
1667776607612155100,12.352155029296876,-1.4745640187621116,9.64935632852912,-0.9412444199811667
1667776607622206200,12.362206298828125,-1.914607587148249,9.578191372981667,-0.8734520096067339
1667776607632258300,12.37225830078125,-2.2526947558820245,9.5095889613986,-0.8145314724739641
1667776607642309000,12.38230908203125,-2.5510069635882973,9.438265015897155,-0.762824739177525
1667776607652361200,12.392361328125,-2.820276908944547,9.36210356723666,-0.7532868032425641
1667776607662412300,12.402412353515626,-3.056668667049706,9.284085677054524,-0.7955624950446188
1667776607672464100,12.412464111328125,-3.2630563320353625,9.207671130415797,-0.8611821644898503
1667776607682515200,12.42251513671875,-3.4216789140224453,9.143080292561649,-0.9308943639457226
1667776607692566300,12.432566162109374,-3.5088191450759765,9.10070713173449,-1.0176995178259909
1667776607702618000,12.4426181640625,-3.5138679528981447,9.084327659341692,-1.1393489713985472
1667776607712669200,12.452669189453125,-3.4335628285616635,9.097120505419372,-1.2741297092229127
1667776607722721000,12.462720947265625,-3.28363150255233,9.13666516482234,-1.3818426265753805
1667776607732772000,12.472772216796875,-3.106713385418057,9.192011788991094,-1.4232489881969987
1667776607742824200,12.48282421875,-2.9306065846666693,9.256497997426987,-1.3780999329157173
1667776607752875000,12.492875,-2.7436691778212783,9.330616542083025,-1.2578846768647431
1667776607762927000,12.502927001953125,-2.521051093524694,9.414104972630739,-1.0905532301779837
1667776607772978200,12.512978271484375,-2.264647205612808,9.498395951732993,-0.9067605510991066
1667776607783030000,12.523030029296875,-1.9918128457732498,9.574166939771175,-0.7337437522523105
1667776607793081000,12.5330810546875,-1.7242925205633044,9.636837623217701,-0.573189215821959
1667776607803133200,12.54313330078125,-1.4827489326529204,9.684892336812615,-0.4179388136817142
1667776607813184000,12.55318408203125,-1.2511451394766568,9.722426240915059,-0.281899417565763
1667776607823236400,12.563236328125,-0.9839474703498184,9.755699564963578,-0.169002412106283
1667776607833287200,12.573287109375,-0.6456408867117017,9.78514485515654,-0.06689846634254791
1667776607843338200,12.583338134765626,-0.21453560786694287,9.804279179215431,0.021445032703655303
1667776607853390300,12.593390380859375,0.23897079654661937,9.803462017613649,0.07357981183656957
1667776607863441200,12.603441162109375,0.6142199855968355,9.786893160128592,0.09918975708377548
1667776607873493200,12.6134931640625,0.9315070890165865,9.761785022357106,0.10120970033775083
1667776607883544300,12.62354443359375,1.2617372606396675,9.723930215737223,0.15365361620178444
1667776607893596200,12.63359619140625,1.602138843795657,9.668819153890013,0.34273952458426354
1667776607903647200,12.643647216796875,1.9070707619026301,9.59672597758174,0.6605624153811485
1667776607913699000,12.653698974609375,2.1532876023210585,9.514916293901205,1.0000655883926897
1667776607923750100,12.663750244140624,2.3734835740372535,9.431265366268157,1.260247168212384
1667776607933802200,12.67380224609375,2.608570387023687,9.344029565885663,1.4334763677008449
1667776607943853000,12.68385302734375,2.8632459898382425,9.244413591879606,1.5852626739270985
1667776607953905200,12.6939052734375,3.1106238368600607,9.132459529826045,1.7585789671771228
1667776607963956200,12.703956298828125,3.329910730907321,9.023671238327026,1.9119095802359283
1667776607974008300,12.71400830078125,3.532942071202397,8.929115470319985,1.9898666801415383
1667776607984059400,12.724059326171876,3.7369586231425402,8.848965244284273,1.9751731150090692
1667776607994111200,12.734111328125,3.932871071343124,8.782178942212463,1.8910905179604887
1667776608004162300,12.744162353515625,4.105409073697031,8.728986281207204,1.7665762495413422
1667776608014214400,12.75421435546875,4.244934448765218,8.69217659972608,1.611510483253002
1667776608024265200,12.76426513671875,4.340552000784874,8.676775616976618,1.429528945249319
1667776608034316300,12.77431640625,4.381351628684997,8.684814546525478,1.2442403285242616
1667776608044368400,12.784368408203125,4.361958361428976,8.713824952432512,1.1013370014555752
1667776608054419200,12.794419189453125,4.272667966604232,8.766531291225553,1.0308396429713815
1667776608064471300,12.80447119140625,4.101069875448942,8.849719277521967,1.0168985767066478
1667776608074522400,12.8145224609375,3.84542776568979,8.96362914981842,1.0180380290653557
1667776608084574200,12.82457421875,3.5163054091781376,9.100663292592763,0.9919243675131351
1667776608094625300,12.834625244140625,3.151023067265749,9.241068957626819,0.9187476337518542
1667776608104677000,12.844677001953125,2.7873551748126744,9.366674528414011,0.8163386680264025
1667776608114728200,12.854728271484374,2.4380681282810865,9.471595038568973,0.71767517243959
1667776608124780300,12.8647802734375,2.11762109952569,9.55418564349413,0.6353104121595621
