time,seconds_elapsed,z,y,x
1667776595279021800,0.019021728515625,-0.15256524085998535,0.027756178751587868,-0.13397569954395294
1667776595289072600,0.02907275390625,-0.08950186520814896,-0.0684577077627182,-0.2998397946357727
1667776595299124700,0.039124755859375,0.030386578291654587,-0.16610363125801086,-0.45296216011047363
1667776595309175800,0.04917578125,0.1565394401550293,-0.23305203020572662,-0.5577421188354492
1667776595319227600,0.0592275390625,0.2891359031200409,-0.3095002770423889,-0.6199166774749756
1667776595329278700,0.06927880859375,0.42993271350860596,-0.49144771695137024,-0.6099092960357666
1667776595339329800,0.079329833984375,0.5740390419960022,-0.7667168378829956,-0.48605743050575256
1667776595349381600,0.089381591796875,0.6806573271751404,-0.9887925386428833,-0.2506001591682434
1667776595359432700,0.0994326171875,0.7871003150939941,-1.1813334226608276,0.05388433113694191
1667776595369484500,0.109484619140625,0.8834924101829529,-1.489271879196167,0.37933993339538574
1667776595379535600,0.11953564453125,0.8970452547073364,-1.913362741470337,0.6570091843605042
1667776595389588000,0.129587890625,0.7142586708068848,-2.390838384628296,0.7777880430221558
1667776595399638500,0.139638427734375,0.1797013282775879,-2.782402753829956,0.616261899471283
1667776595409689600,0.149689697265625,-0.45035332441329956,-2.6387345790863037,0.221024289727211
1667776595419742000,0.159741943359375,-0.9177268147468567,-1.9299509525299072,-0.1271570473909378
1667776595429792800,0.169792724609375,-1.0363203287124634,-1.5380926132202148,-0.21858097612857819
1667776595439844900,0.179844970703125,-0.7550310492515564,-1.3383598327636719,-0.021178441122174263
1667776595449896000,0.18989599609375,-0.0792480930685997,-1.1060259342193604,0.2075681835412979
1667776595459947800,0.19994775390625,0.805311918258667,-0.7424068450927734,0.25465071201324463
1667776595469998800,0.209998779296875,1.4470187425613403,-0.23865926265716553,0.2721293270587921
1667776595480050000,0.2200498046875,1.7025477886199951,0.5481421947479248,0.1446581482887268
1667776595490101800,0.230101806640625,1.702401041984558,1.179629921913147,-0.24717673659324646
1667776595500152800,0.24015283203125,1.5281771421432495,1.6022595167160034,-0.5435376167297363
1667776595510204700,0.25020458984375,1.2539546489715576,2.023693323135376,-0.530409574508667
1667776595520255700,0.260255859375,0.8411056995391846,2.1484458446502686,-0.2668245732784271
1667776595530307800,0.270307861328125,0.6530260443687439,1.7450470924377441,0.06520584225654602
1667776595540358700,0.280358642578125,0.831579327583313,1.8110843896865845,0.4550779461860657
1667776595550409700,0.29040966796875,1.264789342880249,1.6194648742675781,0.6922404170036316
1667776595560461800,0.3004619140625,1.5746980905532837,1.422750473022461,0.9335546493530273
1667776595570513000,0.310512939453125,1.4935686588287354,1.2896627187728882,1.094840168952942
1667776595580564700,0.320564697265625,1.2166844606399536,1.3794517517089844,1.1221129894256592
1667776595590615800,0.33061572265625,1.0602836608886719,1.4235422611236572,1.057563066482544
1667776595600667600,0.340667724609375,1.089733362197876,0.8057337999343872,1.027103304862976
1667776595610718700,0.35071875,1.1801189184188843,1.3973497152328491,0.9597622752189636
1667776595620770800,0.360770751953125,1.2302809953689575,1.7927937507629395,0.849748969078064
1667776595630821600,0.370821533203125,1.1442725658416748,2.202946424484253,0.7807009220123291
1667776595640872700,0.380872802734375,1.0289846658706665,2.2973825931549072,0.7723968625068665
1667776595650924800,0.3909248046875,0.9323270320892334,2.1297519207000732,0.8511934280395508
1667776595660975600,0.4009755859375,0.8340509533882141,1.8945192098617554,1.0229966640472412
1667776595671027700,0.41102783203125,0.6397112607955933,1.559597134590149,1.3936383724212646
1667776595681078800,0.421078857421875,0.39762580394744873,1.34711492061615,1.6962679624557495
1667776595691131000,0.431130859375,0.12758475542068481,1.3558951616287231,1.8602843284606934
1667776595701181700,0.441181640625,-0.10140055418014526,1.560989260673523,1.8829354047775269
1667776595711232800,0.451232666015625,0.10782457143068314,1.8438308238983154,1.7053755521774292
1667776595721284900,0.461284912109375,0.35669466853141785,1.8595207929611206,1.6658029556274414
1667776595731336000,0.4713359375,0.5143942832946777,1.8137186765670776,1.5602370500564575
1667776595741387800,0.4813876953125,0.8282647728919983,1.6546140909194946,1.3304698467254639
1667776595751438800,0.49143896484375,1.0078097581863403,1.2835427522659302,1.1917657852172852
1667776595761491000,0.501490966796875,0.7615227103233337,0.9807992577552795,1.0777947902679443
1667776595771541800,0.511541748046875,0.15076135098934174,1.709712028503418,1.0555427074432373
1667776595781592800,0.5215927734375,-1.0463310480117798,2.637439012527466,1.3837964534759521
1667776595791645000,0.53164501953125,-1.7902075052261353,3.018833875656128,1.6123063564300537
1667776595801695700,0.54169580078125,-1.8788360357284546,2.931288957595825,1.541792392730713
1667776595811747800,0.551747802734375,-1.3025826215744019,2.5803005695343018,1.1284937858581543
1667776595821799000,0.561798828125,-0.4164561331272125,2.0936670303344727,0.4823482036590576
1667776595831850800,0.571850830078125,0.28706714510917664,1.8060506582260132,-0.20331591367721558
1667776595841901800,0.58190185546875,0.6417112946510315,2.1434595584869385,-0.7944762706756592
1667776595851953700,0.59195361328125,0.7245898842811584,2.7771921157836914,-1.1206644773483276
1667776595862004700,0.602004638671875,0.7725591659545898,2.7229340076446533,-1.238616704940796
1667776595872055800,0.612055908203125,0.7034701108932495,1.483350396156311,-1.2627785205841064
1667776595882107600,0.622107666015625,0.653344988822937,0.24288323521614075,-1.4933161735534668
1667776595892158700,0.63215869140625,0.6963797807693481,-0.21030421555042267,-1.8450958728790283
1667776595902210800,0.6422109375,0.4740968942642212,-0.40864071249961853,-2.183661937713623
1667776595912261600,0.65226171875,0.06466195732355118,-0.3774833381175995,-2.414318323135376
1667776595922313700,0.662313720703125,-0.026935573667287827,-0.13466127216815948,-2.631148099899292
1667776595932364800,0.67236474609375,0.11382047832012177,-0.15903691947460175,-2.7668094635009766
1667776595942415600,0.68241552734375,0.2921793460845947,-0.39593085646629333,-2.811523914337158
1667776595952467700,0.6924677734375,0.48297858238220215,-0.6864628195762634,-2.835132122039795
1667776595962519300,0.702519287109375,0.689673900604248,-0.9327077269554138,-2.839716672897339
1667776595972571400,0.7125712890625,0.8439686894416809,-1.0392400026321411,-2.8971211910247803
1667776595982622500,0.72262255859375,0.9628966450691223,-1.0031864643096924,-2.9905402660369873
1667776595992674300,0.73267431640625,1.0325920581817627,-0.9646545052528381,-3.0088987350463867
1667776596002725400,0.742725341796875,0.9894484877586365,-1.0397109985351562,-2.892953872680664
1667776596012777200,0.752777099609375,0.867935061454773,-1.1338540315628052,-2.6971347332000732
1667776596022828300,0.762828369140625,0.7506858706474304,-1.2407931089401245,-2.449800491333008
1667776596032879400,0.77287939453125,0.7151561379432678,-1.2839325666427612,-2.159264087677002
1667776596042931200,0.78293115234375,0.7262365818023682,-1.1697688102722168,-1.8378602266311646
1667776596052982300,0.792982177734375,0.6797348260879517,-0.8930382132530212,-1.507144808769226
1667776596063034400,0.803034423828125,0.555530309677124,-0.5128284692764282,-1.1712274551391602
1667776596073085200,0.813085205078125,0.40074628591537476,-0.22001256048679352,-0.8307063579559326
1667776596083137300,0.82313720703125,0.22971202433109283,-0.06739960610866547,-0.5276922583580017
1667776596093188400,0.833188232421875,0.05915306508541107,-0.08362065255641937,-0.3108273446559906
1667776596103239400,0.843239501953125,-0.13155074417591095,-0.43079131841659546,-0.33950015902519226
1667776596113291500,0.85329150390625,-0.27830398082733154,-0.3812541365623474,-0.44289714097976685
1667776596123342300,0.86334228515625,-0.44322946667671204,-0.4185669422149658,-0.45388996601104736
1667776596133394400,0.87339453125,-0.6481900811195374,-0.5797140002250671,-0.3809872567653656
1667776596143445500,0.883445556640625,-0.7915672659873962,-0.7141036987304688,-0.24660272896289825
1667776596153497300,0.893497314453125,-0.813025712966919,-0.8027856349945068,-0.07407090812921524
1667776596163548400,0.90354833984375,-0.768062949180603,-0.8072448968887329,0.1346600204706192
1667776596173599500,0.913599609375,-0.705456554889679,-0.7263662815093994,0.37099024653434753
1667776596183651300,0.9236513671875,-0.6694026589393616,-0.6389251947402954,0.6089687347412109
1667776596193702400,0.933702392578125,-0.7193982005119324,-0.5543639659881592,0.7826367020606995
1667776596203754500,0.94375439453125,-0.8671894073486328,-0.40069249272346497,0.8600636720657349
1667776596213805300,0.953805419921875,-1.0358229875564575,-0.20240068435668945,0.9032758474349976
1667776596223857400,0.963857421875,-1.1454060077667236,-0.04878690093755722,0.9202401041984558
1667776596233908500,0.973908447265625,-1.2051873207092285,0.06367918848991394,0.9032419323921204
1667776596243960300,0.983960205078125,-1.2375880479812622,0.14663635194301605,0.855568528175354
1667776596254011400,0.994011474609375,-1.2642947435379028,0.18136237561702728,0.8014057278633118
1667776596264062500,1.0040625,-1.29810631275177,0.1854562610387802,0.7656360864639282
1667776596274114300,1.0141142578125,-1.3258745670318604,0.18867149949073792,0.7429941892623901
1667776596284165400,1.024165283203125,-1.3679457902908325,0.1407252550125122,0.7393287420272827
1667776596294217500,1.034217529296875,-1.401375412940979,0.06760070472955704,0.7387343049049377
1667776596304268300,1.044268310546875,-1.4170595407485962,0.005740753374993801,0.7431913018226624
1667776596314320400,1.0543203125,-1.4395103454589844,-0.033405851572752,0.7609133124351501
1667776596324371500,1.064371337890625,-1.4891927242279053,-0.02820327877998352,0.7870984673500061
1667776596334422300,1.07442236328125,-1.526273250579834,0.010898318141698837,0.8202636241912842
1667776596344474400,1.084474365234375,-1.5358225107192993,0.06536857038736343,0.8464198112487793
1667776596354525400,1.094525390625,-1.5194520950317383,0.09257755428552628,0.8703398108482361
1667776596364577300,1.104577392578125,-1.4882385730743408,0.0811556875705719,0.8786797523498535
1667776596374628400,1.11462841796875,-1.4193979501724243,0.040129154920578,0.8432067036628723
1667776596384680200,1.12468017578125,-1.2956727743148804,0.018741942942142487,0.7533631324768066
1667776596394731300,1.134731201171875,-1.1517049074172974,0.04638741910457611,0.6457908749580383
1667776596404783400,1.144783447265625,-1.0390350818634033,0.07580790668725967,0.5629808306694031
1667776596414834400,1.15483447265625,-0.9707649946212769,0.0747453048825264,0.513742983341217
1667776596424885200,1.16488525390625,-0.9537516832351685,0.019045667722821236,0.48169460892677307
1667776596434937600,1.1749375,-0.9725461602210999,-0.07955174148082733,0.46956655383110046
1667776596444988400,1.184988525390625,-1.0370912551879883,-0.31297919154167175,0.5125182867050171
1667776596455040500,1.19504052734375,-1.1150736808776855,-0.5496764183044434,0.5659216046333313
1667776596465091600,1.205091552734375,-1.1238495111465454,-0.6858860850334167,0.5504336357116699
1667776596475143400,1.215143310546875,-1.0779736042022705,-0.8263604044914246,0.5228978395462036
1667776596485194500,1.225194580078125,-1.011315107345581,-0.7997588515281677,0.4761004149913788
1667776596495246300,1.235246337890625,-0.8853776454925537,-0.6307794451713562,0.3847976624965668
1667776596505297400,1.24529736328125,-0.7534486651420593,-0.35522305965423584,0.27333900332450867
1667776596515348500,1.255348388671875,-0.6418195962905884,-0.06633853912353516,0.183228000998497
1667776596525400300,1.265400390625,-0.5559185743331909,0.15592026710510254,0.12099853157997131
1667776596535451400,1.275451416015625,-0.46748003363609314,0.27340349555015564,0.09031891822814941
1667776596545503500,1.28550341796875,-0.39811527729034424,0.21091145277023315,0.16459061205387115
1667776596555554300,1.29555419921875,-0.3348497748374939,0.2308894246816635,0.2829662561416626
1667776596565606400,1.3056064453125,-0.2560676038265228,0.29048386216163635,0.3472940921783447
1667776596575657500,1.315657470703125,-0.15256012976169586,0.3953511714935303,0.3812613785266876
1667776596585708300,1.325708251953125,-0.1055307388305664,0.5071970820426941,0.38089555501937866
1667776596595760400,1.335760498046875,-0.11823321878910065,0.6038498282432556,0.36685431003570557
1667776596605811500,1.3458115234375,-0.17076162993907928,0.6380254626274109,0.3587164282798767
1667776596615863300,1.35586328125,-0.2584243714809418,0.6319595575332642,0.38471874594688416
1667776596625914400,1.365914306640625,-0.35889509320259094,0.600247323513031,0.46898654103279114
1667776596635966200,1.37596630859375,-0.45319974422454834,0.5601622462272644,0.5765590667724609
1667776596646017300,1.386017333984375,-0.5360921025276184,0.5453171133995056,0.7107430100440979
1667776596656069400,1.3960693359375,-0.6121059060096741,0.5564757585525513,0.8663930296897888
1667776596666120200,1.4061201171875,-0.6588411927223206,0.6157146692276001,1.0041913986206055
1667776596676171300,1.416171142578125,-0.6796873807907104,0.74251788854599,1.0820419788360596
1667776596686223600,1.4262236328125,-0.6647413969039917,0.9451797604560852,1.0872206687927246
1667776596696274200,1.436274169921875,-0.6363843679428101,1.1689467430114746,1.062150478363037
1667776596706326500,1.446326416015625,-0.6175504326820374,1.3548935651779175,1.0317786931991577
1667776596716377600,1.456377685546875,-0.6033970713615417,1.4662158489227295,0.9852250218391418
1667776596726429400,1.466429443359375,-0.6033449769020081,1.5038137435913086,0.8899009227752686
1667776596736480500,1.47648046875,-0.6106982231140137,1.4829847812652588,0.7158172726631165
1667776596746531600,1.486531494140625,-0.6315857172012329,1.4408214092254639,0.47871682047843933
1667776596756583400,1.49658349609375,-0.6470746397972107,1.3790392875671387,0.23539577424526215
1667776596766634500,1.506634521484375,-0.628449559211731,1.3018760681152344,0.002645157277584076
1667776596776686300,1.516686279296875,-0.5579761862754822,1.2086528539657593,-0.18967050313949585
1667776596786737400,1.5267373046875,-0.4710148572921753,1.051692247390747,-0.33563268184661865
1667776596796789500,1.53678955078125,-0.3891324996948242,0.8022090196609497,-0.46281617879867554
1667776596806840300,1.54684033203125,-0.31358951330184937,0.5166437029838562,-0.6123719215393066
1667776596816892400,1.556892333984375,-0.23156894743442535,0.2693313658237457,-0.7801017761230469
1667776596826943500,1.566943603515625,-0.1631823182106018,0.05899883806705475,-0.9067220687866211
1667776596836994300,1.576994384765625,-0.10616324841976166,-0.13331468403339386,-0.939818799495697
1667776596847046400,1.58704638671875,-0.04761814326047897,-0.27800729870796204,-0.9300402402877808
1667776596857097500,1.597097412109375,0.03647436574101448,-0.33787596225738525,-0.9167659878730774
1667776596867149300,1.6071494140625,0.14185772836208344,-0.360518217086792,-0.9005082845687866
1667776596877200400,1.617200439453125,0.2304334044456482,-0.360852986574173,-0.9180142879486084
1667776596887252200,1.627252197265625,0.29538825154304504,-0.30432000756263733,-0.9761574268341064
1667776596897303300,1.63730322265625,0.35074469447135925,-0.1855323761701584,-1.0164300203323364
1667776596907355400,1.64735546875,0.3762834966182709,-0.09101653844118118,-0.9473766684532166
1667776596917406200,1.65740625,0.3750816285610199,-0.03846438229084015,-0.7800489068031311
1667776596927457300,1.667457275390625,0.3653032183647156,-0.00836913287639618,-0.5992429852485657
1667776596937509400,1.67750927734375,0.36383312940597534,0.008861253038048744,-0.4530370533466339
1667776596947560200,1.687560302734375,0.369124174118042,0.019028566777706146,-0.3708186149597168
1667776596957611800,1.69761181640625,0.37780341506004333,-0.006471199449151754,-0.3246460556983948
1667776596967662800,1.707662841796875,0.3942139148712158,-0.1097419261932373,-0.261660635471344
1667776596977714700,1.717714599609375,0.42002928256988525,-0.27548348903656006,-0.20060554146766663
1667776596987765800,1.727765869140625,0.449603408575058,-0.45976969599723816,-0.1601220667362213
1667776596997816800,1.73781689453125,0.46949270367622375,-0.6272316575050354,-0.15393634140491486
1667776597007868700,1.74786865234375,0.5031100511550903,-0.7250529527664185,-0.2132352888584137
1667776597017919700,1.757919677734375,0.5472455024719238,-0.7270324230194092,-0.29739144444465637
1667776597027971800,1.767971923828125,0.6146835684776306,-0.687924861907959,-0.3457072973251343
1667776597038022700,1.778022705078125,0.6712826490402222,-0.657439649105072,-0.3516741096973419
1667776597048075000,1.788074951171875,0.7102532982826233,-0.5962289571762085,-0.35827043652534485
1667776597058125800,1.798125732421875,0.7504300475120544,-0.4960446059703827,-0.4063178598880768
1667776597068178000,1.808177978515625,0.7884178161621094,-0.3949488699436188,-0.5069787502288818
1667776597078229000,1.81822900390625,0.8360721468925476,-0.3364778459072113,-0.6400846242904663
1667776597088280000,1.828280029296875,0.879408597946167,-0.2951575219631195,-0.7835831642150879
1667776597098332000,1.838331787109375,0.9136797189712524,-0.30105510354042053,-0.9202781915664673
1667776597108383000,1.848383056640625,0.9389221668243408,-0.3211616277694702,-1.0274354219436646
1667776597118434800,1.858434814453125,0.9281132221221924,-0.31969475746154785,-1.0837130546569824
1667776597128486000,1.86848583984375,0.8413336277008057,-0.31053099036216736,-1.0595170259475708
1667776597138538000,1.8785380859375,0.6907438039779663,-0.2796233892440796,-0.944826066493988
1667776597148588800,1.8885888671875,0.5289637446403503,-0.20325642824172974,-0.7592147588729858
1667776597158641000,1.898640869140625,0.41310104727745056,-0.05752718448638916,-0.5482351779937744
1667776597168692000,1.90869189453125,0.37067675590515137,0.09817375242710114,-0.37087950110435486
1667776597178742800,1.91874267578125,0.40328264236450195,0.19466140866279602,-0.2492460161447525
1667776597188795000,1.928794921875,0.46331480145454407,0.23538726568222046,-0.2042870670557022
1667776597198846000,1.938845947265625,0.5244569778442383,0.21060362458229065,-0.22356009483337402
1667776597208897800,1.948897705078125,0.5597997307777405,0.10907365381717682,-0.2957064211368561
1667776597218948900,1.958948974609375,0.574027955532074,-0.024570424109697342,-0.3719596564769745
1667776597229000700,1.969000732421875,0.5696953535079956,-0.1704271137714386,-0.41342759132385254
1667776597239051800,1.9790517578125,0.541726291179657,-0.35626542568206787,-0.406556636095047
1667776597249102800,1.989102783203125,0.4936715066432953,-0.5380686521530151,-0.35486912727355957
1667776597259154700,1.99915478515625,0.44510555267333984,-0.6779996752738953,-0.285274863243103
1667776597269205800,2.009205810546875,0.4057154357433319,-0.7511807680130005,-0.2169458568096161
1667776597279257900,2.0192578125,0.37811335921287537,-0.7107436060905457,-0.16715221107006073
1667776597289308700,2.02930859375,0.36547785997390747,-0.5779767632484436,-0.10431606322526932
1667776597299360800,2.03936083984375,0.3685751259326935,-0.4455771744251251,-0.00787101686000824
1667776597309411800,2.049411865234375,0.36882707476615906,-0.3471197783946991,0.10469814389944077
1667776597319463700,2.059463623046875,0.33320382237434387,-0.2955591082572937,0.21861113607883453
1667776597329514800,2.0695146484375,0.26468271017074585,-0.294269859790802,0.30516600608825684
1667776597339565800,2.07956591796875,0.18252284824848175,-0.3530314266681671,0.3583003282546997
1667776597349618000,2.089617919921875,0.096878781914711,-0.46119651198387146,0.37698373198509216
1667776597359668700,2.099668701171875,0.042147357016801834,-0.6082828640937805,0.37644442915916443
1667776597369720800,2.109720947265625,0.006938448175787926,-0.7514711618423462,0.36453166604042053
1667776597379772000,2.11977197265625,-0.015337562188506126,-0.8350874781608582,0.36149805784225464
1667776597389824000,2.129823974609375,-0.050264038145542145,-0.8258742094039917,0.3768784999847412
1667776597399874800,2.139874755859375,-0.12324103713035583,-0.758148729801178,0.42213091254234314
1667776597409927000,2.149927001953125,-0.24749670922756195,-0.689314603805542,0.5235239267349243
1667776597419978000,2.15997802734375,-0.43558433651924133,-0.7081881165504456,0.6999498009681702
1667776597430028800,2.17002880859375,-0.6349628567695618,-0.8281883001327515,0.908397376537323
1667776597440081000,2.180080810546875,-0.8298183679580688,-0.9686061143875122,1.0755170583724976
1667776597450132000,2.190132080078125,-0.9942561984062195,-1.0840120315551758,1.1235499382019043
1667776597460183800,2.200183837890625,-1.109268307685852,-1.156545877456665,1.0365668535232544
1667776597470235000,2.21023486328125,-1.1586978435516357,-1.1563842296600342,0.8507392406463623
1667776597480286700,2.22028662109375,-1.1452887058258057,-1.0390969514846802,0.607797384262085
1667776597490337800,2.230337890625,-1.106994867324829,-0.7167701721191406,0.41189080476760864
1667776597500388900,2.240388916015625,-1.0765658617019653,-0.3001479208469391,0.3050607740879059
1667776597510440700,2.250440673828125,-1.0070263147354126,0.09287936240434647,0.2005906105041504
1667776597520491800,2.26049169921875,-0.9004749655723572,0.4189048707485199,0.1469058096408844
1667776597530543900,2.2705439453125,-0.7611300349235535,0.5691556334495544,0.16747835278511047
1667776597540595000,2.280594970703125,-0.6323824524879456,0.5408188104629517,0.22865834832191467
1667776597550646800,2.290646728515625,-0.5734058618545532,0.3782130479812622,0.2807421386241913
1667776597560697900,2.30069775390625,-0.5813074111938477,0.09747115522623062,0.32270026206970215
1667776597570749700,2.310749755859375,-0.6038739681243896,-0.14665807783603668,0.3690735995769501
1667776597580800800,2.32080078125,-0.6130828857421875,-0.2589252293109894,0.43499696254730225
1667776597590851800,2.330851806640625,-0.5943298935890198,-0.21674032509326935,0.5420935750007629
1667776597600903700,2.340903564453125,-0.5419367551803589,-0.00039683585055172443,0.6524099707603455
1667776597610954800,2.350954833984375,-0.43589478731155396,0.34670740365982056,0.7088227868080139
1667776597621006800,2.3610068359375,-0.27447259426116943,0.49793022871017456,0.7197428345680237
1667776597631057700,2.3710576171875,-0.11508031189441681,0.8210727572441101,0.6966774463653564
1667776597641110000,2.381110107421875,-0.02079056017100811,0.6577011942863464,0.7242475748062134
1667776597651160800,2.391160888671875,-0.009935745969414711,0.32963892817497253,0.6854820251464844
1667776597661213000,2.401212890625,-0.03740518540143967,0.03202349692583084,0.4756491780281067
1667776597671264000,2.411263916015625,-0.09928019344806671,-0.3033066987991333,0.22699207067489624
1667776597681315000,2.421315185546875,-0.14313898980617523,-0.5534041523933411,0.04195750504732132
1667776597691367000,2.431366943359375,-0.16204530000686646,-0.630796492099762,-0.09303228557109833
1667776597701418000,2.44141796875,-0.1300567388534546,-0.5675709247589111,-0.20191508531570435
1667776597711469800,2.4514697265625,-0.040793243795633316,-0.38930222392082214,-0.2843031585216522
1667776597721521000,2.46152099609375,0.06813457608222961,-0.12776115536689758,-0.2736409306526184
1667776597731573000,2.471572998046875,0.16170290112495422,0.11293457448482513,-0.17973704636096954
1667776597741623800,2.481623779296875,0.2354074865579605,0.2570006847381592,-0.04291022941470146
1667776597751676000,2.491676025390625,0.2575862407684326,0.33431923389434814,0.06735359132289886
1667776597761727000,2.50172705078125,0.22373904287815094,0.3060055673122406,0.1093071699142456
1667776597771777800,2.51177783203125,0.16443221271038055,0.17066505551338196,0.06457158178091049
1667776597781830000,2.521829833984375,0.10049717128276825,-0.016600176692008972,-0.07416393607854843
1667776597791881000,2.531880859375,0.026575591415166855,-0.17079104483127594,-0.2551087737083435
1667776597801932800,2.541932861328125,-0.04186046123504639,-0.23634982109069824,-0.4248429536819458
1667776597811984000,2.55198388671875,-0.08479837328195572,-0.18721884489059448,-0.5283426642417908
1667776597822035700,2.56203564453125,-0.113169826567173,-0.04388432204723358,-0.553891122341156
1667776597832086800,2.572086669921875,-0.1457710862159729,0.1279040277004242,-0.5117912888526917
1667776597842139000,2.582138916015625,-0.20319071412086487,0.27616697549819946,-0.4098001718521118
1667776597852189700,2.592189697265625,-0.2703007459640503,0.3722681403160095,-0.2716279625892639
1667776597862240800,2.60224072265625,-0.3360004127025604,0.4009501338005066,-0.120707668364048
1667776597872292900,2.61229296875,-0.4102246165275574,0.35207924246788025,-0.009388037025928497
1667776597882343700,2.62234375,-0.4593844413757324,0.2502461075782776,0.03391363099217415
1667776597892395800,2.632395751953125,-0.4786304235458374,0.14154015481472015,0.034896861761808395
1667776597902446800,2.64244677734375,-0.4786868691444397,0.0004030067939311266,-0.09101232886314392
1667776597912499000,2.6524990234375,-0.4249316155910492,-0.16611722111701965,-0.27777159214019775
1667776597922550000,2.662550048828125,-0.3437100052833557,-0.31000515818595886,-0.4189028739929199
1667776597932600800,2.672600830078125,-0.26108428835868835,-0.41474834084510803,-0.49446728825569153
1667776597942653000,2.68265283203125,-0.1827751100063324,-0.45282357931137085,-0.5358414053916931
1667776597952704000,2.6927041015625,-0.1150100827217102,-0.40236997604370117,-0.5269239544868469
1667776597962755800,2.702755859375,-0.09442730993032455,-0.29936742782592773,-0.48623085021972656
1667776597972807000,2.712806884765625,-0.12505163252353668,-0.2346513420343399,-0.44990915060043335
1667776597982859000,2.72285888671875,-0.13737301528453827,-0.281247615814209,-0.4293591380119324
1667776597992909800,2.732909912109375,-0.14460138976573944,-0.435332328081131,-0.4472581446170807
1667776598002962000,2.7429619140625,-0.1567928045988083,-0.5810748934745789,-0.5101377964019775
1667776598013013000,2.753012939453125,-0.16520115733146667,-0.7527049779891968,-0.6131013631820679
1667776598023063800,2.763063720703125,-0.17069338262081146,-0.9075339436531067,-0.7442609667778015
1667776598033116000,2.773115966796875,-0.19420118629932404,-0.9373937249183655,-0.8903530240058899
1667776598043167000,2.7831669921875,-0.23288945853710175,-0.8883963823318481,-1.0033503770828247
1667776598053219000,2.793218994140625,-0.13178934156894684,-0.7424652576446533,-1.0422083139419556
1667776598063270000,2.803269775390625,-0.045276276767253876,-0.506839394569397,-0.9853394627571106
1667776598073322000,2.813322021484375,0.07113674283027649,0.06676863878965378,-0.7570056319236755
1667776598083373000,2.823373046875,0.1804158240556717,0.4353877007961273,-0.384700208902359
1667776598093425200,2.833425048828125,0.24344521760940552,0.6788462400436401,-0.0640600174665451
1667776598103476000,2.84347607421875,0.2556510269641876,0.7948516607284546,0.14599095284938812
1667776598113528000,2.853528076171875,0.22961610555648804,0.7640085816383362,0.255348801612854
1667776598123579100,2.8635791015625,0.20469583570957184,0.6079204678535461,0.28365716338157654
1667776598133630000,2.8736298828125,0.17706874012947083,0.40176331996917725,0.24346044659614563
1667776598143682000,2.88368212890625,0.14290358126163483,0.16994421184062958,0.15217608213424683
1667776598153733000,2.893733154296875,0.1269630789756775,-0.04353642836213112,0.02917133830487728
1667776598163785000,2.903784912109375,0.1376732438802719,-0.18333800137043,-0.10224287956953049
1667776598173836000,2.9138359375,0.1728316843509674,-0.2086578756570816,-0.22855110466480255
1667776598183888000,2.923887939453125,0.2192298024892807,-0.15250298380851746,-0.3146175444126129
1667776598193939000,2.93393896484375,0.25851520895957947,-0.0394694060087204,-0.337525874376297
1667776598203990000,2.943989990234375,0.29377251863479614,0.10690005868673325,-0.29185187816619873
1667776598214041900,2.954041748046875,0.32599544525146484,0.24075199663639069,-0.21011757850646973
1667776598224093000,2.964093017578125,0.3494666814804077,0.3674417734146118,-0.12511694431304932
1667776598234145000,2.97414501953125,0.3645320534706116,0.479269802570343,-0.05746760219335556
1667776598244195800,2.98419580078125,0.3843686282634735,0.5748144388198853,-0.022286446765065193
1667776598254248000,2.994248046875,0.4434719979763031,0.6600979566574097,-0.02227712795138359
1667776598264299000,3.004299072265625,0.550433874130249,0.6755456328392029,-0.07079565525054932
1667776598274350800,3.014350830078125,0.6549476981163025,0.567658543586731,-0.1810392439365387
1667776598284402000,3.02440185546875,0.7082370519638062,0.40744227170944214,-0.34710463881492615
1667776598294453000,3.034452880859375,0.6747209429740906,0.2516272962093353,-0.5176178216934204
1667776598304504800,3.0445048828125,0.5710336565971375,0.08592703938484192,-0.6334719657897949
1667776598314556000,3.054555908203125,0.4365459978580475,-0.0632653534412384,-0.66813063621521
1667776598324608000,3.06460791015625,0.31392982602119446,-0.14694879949092865,-0.6208195686340332
1667776598334658800,3.074658935546875,0.21605737507343292,-0.1606140434741974,-0.5041971802711487
1667776598344711200,3.084711181640625,0.14654754102230072,-0.11205529421567917,-0.35754406452178955
1667776598354762000,3.094761962890625,0.10910902917385101,-0.022659074515104294,-0.2144824117422104
1667776598364814000,3.10481396484375,0.09386802464723587,0.09374450147151947,-0.07659353315830231
1667776598374865200,3.114865234375,0.08310417085886002,0.21951010823249817,0.06492186337709427
1667776598384916000,3.124916015625,0.07832460105419159,0.33577650785446167,0.1971033364534378
1667776598394968000,3.134968017578125,0.07214884459972382,0.4171794652938843,0.29567626118659973
1667776598405019100,3.14501904296875,0.05561833083629608,0.4605855345726013,0.3631961941719055
1667776598415071000,3.155071044921875,0.044197551906108856,0.4597792625427246,0.39630958437919617
1667776598425122000,3.1651220703125,0.041538920253515244,0.42057833075523376,0.39557719230651855
1667776598435174000,3.175173828125,0.05266978591680527,0.36778610944747925,0.3684322237968445
1667776598445225000,3.185224853515625,0.07267891615629196,0.31843745708465576,0.3111404478549957
1667776598455277000,3.195277099609375,0.10980068892240524,0.28625863790512085,0.2490261048078537
1667776598465327900,3.205327880859375,0.1642599254846573,0.2616925835609436,0.18571557104587555
1667776598475379000,3.21537890625,0.2183721363544464,0.2314322590827942,0.1440054476261139
1667776598485431000,3.22543115234375,0.2636176645755768,0.2001449018716812,0.12140905857086182
1667776598495481900,3.23548193359375,0.2958093583583832,0.17592753469944,0.13575005531311035
1667776598505534000,3.245533935546875,0.3323308825492859,0.1646391898393631,0.17635659873485565
1667776598515585000,3.2555849609375,0.369327187538147,0.13885636627674103,0.21254000067710876
1667776598525636900,3.265636962890625,0.4074189066886902,0.11259439587593079,0.2275248020887375
1667776598535688000,3.27568798828125,0.45187026262283325,0.10090477764606476,0.20162931084632874
1667776598545739800,3.28573974609375,0.47127166390419006,0.09954629838466644,0.1386852264404297
1667776598555790800,3.295790771484375,0.48277580738067627,0.11385627090930939,0.044568922370672226
1667776598565842000,3.305842041015625,0.4800572395324707,0.12686608731746674,-0.04512367770075798
1667776598575893800,3.315893798828125,0.472593754529953,0.11772073060274124,-0.10841403901576996
1667776598585944800,3.32594482421875,0.4607038199901581,0.09835715591907501,-0.13465575873851776
1667776598595997000,3.335996826171875,0.4487377107143402,0.08810732513666153,-0.14980463683605194
1667776598606047700,3.3460478515625,0.434895396232605,0.09338943660259247,-0.1593818962574005
1667776598616100000,3.35610009765625,0.41936880350112915,0.09592736512422562,-0.13863274455070496
1667776598626151200,3.366151123046875,0.3980214297771454,0.07752305269241333,-0.07510384917259216
1667776598636203000,3.376203125,0.3780221939086914,0.060887448489665985,0.006039121188223362
1667776598646254000,3.386254150390625,0.35753288865089417,0.06370054930448532,0.05901259183883667
1667776598656305200,3.39630517578125,0.3462614119052887,0.09840080142021179,0.06239408999681473
1667776598666357000,3.40635693359375,0.3321338891983032,0.13115742802619934,0.029964514076709747
1667776598676408000,3.416407958984375,0.30880770087242126,0.12269414961338043,-0.005064926575869322
1667776598686460000,3.4264599609375,0.25883615016937256,0.07102163136005402,-0.02576114982366562
1667776598696511000,3.436510986328125,0.20116953551769257,0.010567923076450825,-0.025620006024837494
1667776598706563000,3.44656298828125,0.15310107171535492,-0.026333104819059372,-0.02451080083847046
1667776598716614000,3.45661376953125,0.12724220752716064,-0.05750669166445732,-0.008556879125535488
1667776598726666000,3.466666015625,0.10552305728197098,-0.0706387385725975,0.02346763387322426
1667776598736717000,3.476717041015625,0.0998167097568512,-0.011919029988348484,0.04727787896990776
1667776598746769000,3.486768798828125,0.1251087486743927,0.09711318463087082,0.065207339823246
1667776598756820000,3.496820068359375,0.15779328346252441,0.18572327494621277,0.08836707472801208
1667776598766871000,3.50687109375,0.15731579065322876,0.27988627552986145,0.10634847730398178
1667776598776923000,3.5169228515625,0.18287155032157898,0.3511662483215332,0.1561819165945053
1667776598786974000,3.526973876953125,0.19438306987285614,0.30145859718322754,0.19068342447280884
1667776598797025800,3.53702587890625,0.1822500228881836,0.18186213076114655,0.20815467834472656
1667776598807076900,3.547076904296875,0.13480794429779053,0.04652108997106552,0.19914892315864563
1667776598817129000,3.55712890625,0.07778626680374146,-0.0893327072262764,0.14282536506652832
1667776598827180000,3.567179931640625,0.047876838594675064,-0.2069418877363205,0.049838971346616745
1667776598837231900,3.57723193359375,0.03138411045074463,-0.3415679633617401,-0.05623704940080643
1667776598847283000,3.587282958984375,0.0373527891933918,-0.3950149416923523,-0.1348455846309662
1667776598857334000,3.597333984375,0.07690735161304474,-0.30764177441596985,-0.17718741297721863
1667776598867385900,3.6073857421875,0.12392492592334747,-0.12097816169261932,-0.17165684700012207
1667776598877437000,3.61743701171875,0.1521306335926056,0.09981172531843185,-0.134111687541008
1667776598887489000,3.627489013671875,0.17768073081970215,0.29397109150886536,-0.061707787215709686
1667776598897539800,3.637539794921875,0.21285668015480042,0.41513481736183167,0.04360120743513107
1667776598907592000,3.647592041015625,0.24756965041160583,0.46438971161842346,0.1734127402305603
1667776598917643000,3.65764306640625,0.24407613277435303,0.45713427662849426,0.27989837527275085
1667776598927695000,3.667695068359375,0.22416101396083832,0.4077608585357666,0.32681500911712646
1667776598937746000,3.677745849609375,0.206287682056427,0.4093697667121887,0.3030698299407959
1667776598947797000,3.687796875,0.22450023889541626,0.4673747420310974,0.23175889253616333
1667776598957849000,3.69784912109375,0.2566424012184143,0.5473808646202087,0.16795231401920319
1667776598967900200,3.707900146484375,0.2774249315261841,0.6498441100120544,0.13188165426254272
1667776598977952300,3.7179521484375,0.2775505781173706,0.770272433757782,0.10849172621965408
1667776598988003300,3.72800341796875,0.2772890627384186,0.8654447793960571,0.10035710036754608
1667776598998055200,3.73805517578125,0.2911904454231262,0.9390125274658203,0.1181679517030716
1667776599008106200,3.748106201171875,0.3352431356906891,0.9761319160461426,0.1421249508857727
1667776599018158000,3.758157958984375,0.3900927007198334,0.9406880140304565,0.16214723885059357
1667776599028209200,3.768209228515625,0.43980300426483154,0.865105390548706,0.14745190739631653
1667776599038260200,3.77826025390625,0.4645940065383911,0.8016304969787598,0.14407572150230408
1667776599048312000,3.78831201171875,0.43553999066352844,0.8158640265464783,0.2036495804786682
1667776599058363100,3.798363037109375,0.3232162594795227,0.9006340503692627,0.37934550642967224
1667776599068415200,3.808415283203125,0.11101000010967255,1.0473737716674805,0.6646126508712769
1667776599078466300,3.81846630859375,-0.17065446078777313,1.3552296161651611,1.007928490638733
1667776599088518100,3.82851806640625,-0.4877653121948242,1.9032810926437378,1.3889003992080688
1667776599098569200,3.8385693359375,-0.7947254180908203,2.683560371398926,1.7926928997039795
1667776599108621000,3.84862109375,-1.1148240566253662,3.6730191707611084,2.2360658645629883
1667776599118672100,3.858672119140625,-1.5152359008789062,4.75078821182251,2.696477174758911
1667776599128723200,3.86872314453125,-1.976942777633667,5.84119987487793,3.1494393348693848
1667776599138775000,3.878775146484375,-2.5019633769989014,6.839571475982666,3.5642857551574707
1667776599148826000,3.888826171875,-3.0852177143096924,7.680012226104736,3.919252395629883
1667776599158878200,3.898878173828125,-3.680111885070801,8.301046371459961,4.197424411773682
1667776599168929000,3.908928955078125,-4.259721755981445,8.645236015319824,4.363715648651123
1667776599178981000,3.918981201171875,-4.831761360168457,8.664579391479492,4.365200042724609
1667776599189032200,3.9290322265625,-5.372101783752441,8.382913589477539,4.1591997146606445
1667776599199084000,3.939083984375,-5.862475395202637,8.08964729309082,3.772832155227661
1667776599209135000,3.949135009765625,-6.301425933837891,7.854920387268066,3.2433969974517822
1667776599219187000,3.95918701171875,-6.610161304473877,7.650786399841309,2.5249602794647217
1667776599229238000,3.969238037109375,-6.76997709274292,7.4458208084106445,1.649337887763977
1667776599239289000,3.9792890625,-6.9173688888549805,7.137764930725098,0.7834650874137878
1667776599249341200,3.989341064453125,-7.112021446228027,6.558411598205566,0.05803760141134262
1667776599259392000,3.99939208984375,-7.352328777313232,5.758316516876221,-0.39412301778793335
1667776599269444400,4.0094443359375,-7.490467071533203,4.885744571685791,-0.4704902172088623
1667776599279495200,4.0194951171875,-7.394450664520264,4.127819061279297,-0.13424217700958252
1667776599289547300,4.02954736328125,-7.1599345207214355,3.5961780548095703,0.6880032420158386
1667776599299598300,4.039598388671875,-6.827792167663574,3.2736873626708984,2.005317211151123
1667776599309650200,4.049650146484375,-6.3713579177856445,3.0992801189422607,3.614393949508667
1667776599319701200,4.059701171875,-5.771514415740967,2.904923677444458,5.122143745422363
1667776599329752300,4.06975244140625,-5.060439586639404,2.735400915145874,6.087738037109375
1667776599339804200,4.07980419921875,-4.392001628875732,2.7183361053466797,6.296710014343262
1667776599349855200,4.089855224609375,-3.834940195083618,2.6325840950012207,5.8770341873168945
1667776599359907000,4.099906982421875,-3.3784406185150146,2.2847518920898438,5.173882484436035
1667776599369958100,4.109958251953125,-2.9483728408813477,1.5912666320800781,4.4117584228515625
1667776599380010200,4.12001025390625,-2.521270990371704,0.7105088233947754,3.7022457122802734
1667776599390061000,4.13006103515625,-2.0783400535583496,-0.10637561231851578,3.1510350704193115
1667776599400113200,4.140113037109375,-1.5948759317398071,-1.183509349822998,2.52243971824646
1667776599410164200,4.150164306640625,-0.9168081879615784,-2.742248773574829,1.2969309091567993
1667776599420215000,4.160215087890625,-0.23312152922153473,-4.242690086364746,-0.40990206599235535
1667776599430267100,4.17026708984375,0.33560609817504883,-4.967862606048584,-1.6080806255340576
1667776599440318200,4.180318115234375,0.9467746615409851,-4.821961879730225,-1.817810297012329
1667776599450370000,4.1903701171875,1.5215636491775513,-4.178608417510986,-1.3762251138687134
1667776599460421000,4.200421142578125,1.944625735282898,-3.2744314670562744,-0.9159302115440369
1667776599470473000,4.210472900390625,2.0946848392486572,-2.2374801635742188,-0.8259689211845398
1667776599480524000,4.22052392578125,1.9900307655334473,-1.0112950801849365,-0.9279594421386719
1667776599490576100,4.230576171875,1.7584936618804932,0.23342733085155487,-0.6674380898475647
1667776599500627000,4.240626953125,1.6670750379562378,1.5853253602981567,0.05207637697458267
1667776599510679300,4.25067919921875,1.7556662559509277,2.6569411754608154,0.9785836935043335
1667776599520730400,4.26073046875,1.918147087097168,3.294724702835083,1.7645459175109863
1667776599530781000,4.270781005859375,2.0465011596679688,3.8178610801696777,2.301666259765625
1667776599540833300,4.280833251953125,2.0964863300323486,4.2187604904174805,2.6373090744018555
1667776599550884400,4.29088427734375,2.100252866744995,4.215137481689453,2.8802690505981445
1667776599560936200,4.300936279296875,1.9469281435012817,3.884784460067749,2.827732801437378
1667776599570987300,4.3109873046875,1.7741323709487915,3.2829582691192627,2.4552266597747803
1667776599581039000,4.3210390625,1.5022966861724854,2.6501102447509766,2.1741983890533447
1667776599591090200,4.331090087890625,1.0897951126098633,1.8162798881530762,2.0053200721740723
1667776599601142300,4.341142333984375,0.6770578026771545,1.001118540763855,1.8021721839904785
1667776599611193000,4.351193115234375,0.363206148147583,0.504081666469574,1.578064203262329
1667776599621244200,4.361244140625,0.11746693402528763,0.47321993112564087,1.428835153579712
1667776599631296300,4.371296142578125,-0.05856109410524368,0.507429301738739,1.4021461009979248
1667776599641347000,4.38134716796875,-0.07235819101333618,0.6979457139968872,1.4677132368087769
1667776599651399200,4.391399169921875,0.03549397364258766,0.951018214225769,1.5249322652816772
1667776599661450200,4.4014501953125,0.22093330323696136,1.1187925338745117,1.5064892768859863
1667776599671502000,4.411502197265625,0.40312281250953674,1.218984603881836,1.3852866888046265
1667776599681553200,4.42155322265625,0.5517458915710449,1.1777037382125854,1.1777167320251465
1667776599691605000,4.43160498046875,0.664339542388916,1.0373015403747559,0.9160273671150208
1667776599701656000,4.441656005859375,0.7191798686981201,0.8251515030860901,0.6297755837440491
1667776599711708200,4.451708251953125,0.7422153949737549,0.6134901642799377,0.37306442856788635
1667776599721759000,4.461759033203125,0.768699586391449,0.45774972438812256,0.1354457587003708
1667776599731810000,4.47181005859375,0.7772089242935181,0.34849753975868225,-0.08424133062362671
1667776599741862100,4.481862060546875,0.7570681571960449,0.2687944769859314,-0.2877800762653351
1667776599751913000,4.491912841796875,0.71095871925354,0.13201454281806946,-0.5119841694831848
1667776599761965000,4.501965087890625,0.5428468585014343,0.06552984565496445,-0.6264715790748596
1667776599772016000,4.51201611328125,0.41643887758255005,0.12400859594345093,-0.6193620562553406
1667776599782068200,4.522068115234375,0.3107543885707855,0.13937604427337646,-0.573027491569519
1667776599792119000,4.532119140625,0.12360446900129318,0.08228932321071625,-0.5107142925262451
1667776599802171100,4.542171142578125,-0.1137222871184349,-0.09131330996751785,-0.406902551651001
1667776599812222200,4.55222216796875,-0.4542361795902252,-0.2928330898284912,-0.2003384530544281
1667776599822273300,4.562273193359375,-0.687800943851471,-0.45902109146118164,0.10053844749927521
1667776599832325000,4.5723251953125,-0.7588146328926086,-0.5118787288665771,0.39939627051353455
1667776599842376200,4.582376220703125,-0.7022741436958313,-0.3975827693939209,0.673913836479187
1667776599852428300,4.59242822265625,-0.5710516571998596,-0.22557319700717926,0.9562200903892517
1667776599862479000,4.60247900390625,-0.4324597120285034,-0.051079943776130676,1.2346467971801758
1667776599872531200,4.61253125,-0.25993216037750244,0.1542535126209259,1.468093991279602
1667776599882582300,4.622582275390625,-0.07914663106203079,0.3190103769302368,1.595578670501709
1667776599892634000,4.632634033203125,0.05999261140823364,0.4934127926826477,1.6046358346939087
1667776599902685200,4.642685302734375,0.15341545641422272,0.7199719548225403,1.4655781984329224
1667776599912736300,4.652736328125,0.2237122505903244,0.894977331161499,1.1142475605010986
1667776599922788000,4.6627880859375,0.12122853845357895,1.3550053834915161,0.6402124762535095
1667776599932839200,4.672839111328125,-0.3185696005821228,1.8813767433166504,0.2775411307811737
1667776599942891000,4.68289111328125,-0.8091886639595032,1.4532390832901,0.10225433111190796
1667776599952942000,4.692942138671875,-1.4673020839691162,0.9670529365539551,-0.07355371117591858
1667776599962994400,4.702994384765625,-2.098478078842163,0.3959735035896301,-0.3258945345878601
1667776599973045200,4.713045166015625,-2.5766234397888184,-0.3879713714122772,-0.49387872219085693
1667776599983097300,4.723097412109375,-2.9496474266052246,-1.3040099143981934,-0.4068373143672943
1667776599993148400,4.7331484375,-3.214167356491089,-1.658249020576477,-0.14300726354122162
1667776600003200300,4.7432001953125,-3.3632419109344482,-1.5665843486785889,0.2336922585964203
1667776600013251300,4.753251220703125,-3.427117347717285,-1.0971555709838867,0.5138306617736816
1667776600023302400,4.763302490234375,-3.4124627113342285,-0.7535183429718018,0.6786250472068787
1667776600033354200,4.773354248046875,-3.3365318775177,-0.5536662340164185,0.7738519906997681
1667776600043405300,4.7834052734375,-3.272843360900879,-0.4516218900680542,0.8289746046066284
1667776600053457200,4.79345703125,-3.220329999923706,-0.37159788608551025,0.8325653672218323
1667776600063508200,4.80350830078125,-3.1015830039978027,-0.2964872717857361,0.8044372200965881
1667776600073560300,4.813560302734375,-2.954798698425293,-0.3071870803833008,0.7861642241477966
1667776600083611100,4.823611083984375,-2.832465648651123,-0.23820550739765167,0.7968851327896118
1667776600093663500,4.83366357421875,-2.7288095951080322,-0.22490808367729187,0.8534680008888245
1667776600103714300,4.84371435546875,-2.8078927993774414,-0.13046672940254211,1.0038162469863892
1667776600113766400,4.853766357421875,-3.209110975265503,0.27558839321136475,1.2135798931121826
1667776600123817500,4.8638173828125,-3.8454835414886475,0.8089436888694763,1.4719040393829346
1667776600133868500,4.87386865234375,-4.391746520996094,0.7188793420791626,1.737107276916504
1667776600143920400,4.88392041015625,-4.550174236297607,0.28035545349121094,1.8654916286468506
1667776600153971500,4.893971435546875,-4.095383167266846,0.13182561099529266,1.7046313285827637
1667776600164023300,4.904023193359375,-3.497884511947632,0.5124101638793945,1.207969307899475
1667776600174074400,4.914074462890625,-2.775411367416382,1.3421214818954468,0.6364474892616272
1667776600184126500,4.92412646484375,-2.2021703720092773,1.653545618057251,0.23087871074676514
1667776600194177300,4.93417724609375,-1.920119047164917,1.28823983669281,0.07516182959079742
1667776600204229400,4.9442294921875,-1.8112256526947021,0.761787474155426,0.0731259286403656
1667776600214280400,4.954280517578125,-1.7598930597305298,0.3838103711605072,0.1919710785150528
1667776600224332300,4.964332275390625,-1.6189671754837036,0.15822933614253998,0.4167778491973877
1667776600234383400,4.97438330078125,-1.3952243328094482,0.14004288613796234,0.5906132459640503
1667776600244434400,4.984434326171875,-1.0993226766586304,0.2832641005516052,0.6394055485725403
1667776600254486300,4.994486328125,-0.8294677734375,0.49378618597984314,0.6175758838653564
1667776600264537300,5.004537353515625,-0.6520090699195862,0.7491816282272339,0.5947895646095276
1667776600274589200,5.014589111328125,-0.6309125423431396,1.0279812812805176,0.6231104135513306
1667776600284640300,5.02464013671875,-0.6730102300643921,1.292600154876709,0.715634286403656
1667776600294692400,5.0346923828125,-0.7294966578483582,1.4420892000198364,0.8355982303619385
1667776600304743200,5.0447431640625,-0.7696712613105774,1.4125597476959229,0.9390455484390259
1667776600314795300,5.054795166015625,-0.798389732837677,1.2567945718765259,0.9892916679382324
1667776600324846300,5.064846435546875,-0.7958756685256958,1.0091512203216553,0.9880388379096985
1667776600334898200,5.074898193359375,-0.7551361918449402,0.7312600016593933,0.9422377943992615
1667776600344949200,5.08494921875,-0.712315559387207,0.511105477809906,0.8744676113128662
1667776600355000300,5.095000244140625,-0.6687177419662476,0.32171955704689026,0.8155960440635681
1667776600365052400,5.105052490234375,-0.5940028429031372,0.1513538658618927,0.7752012014389038
1667776600375103200,5.115103271484375,-0.49659478664398193,0.011896624229848385,0.7529084086418152
1667776600385155300,5.1251552734375,-0.3721853196620941,-0.1508360654115677,0.7341965436935425
1667776600395206400,5.135206298828125,-0.24299907684326172,-0.3312510848045349,0.6962949633598328
1667776600405258500,5.145258544921875,-0.1275755912065506,-0.5624426007270813,0.6220777630805969
1667776600415309300,5.155309326171875,-0.03606512024998665,-0.8064243793487549,0.5397142171859741
1667776600425361400,5.165361328125,0.024244433268904686,-1.0162690877914429,0.4893394708633423
1667776600435412500,5.17541259765625,0.030390476807951927,-1.1267402172088623,0.4711729884147644
1667776600445464300,5.18546435546875,-0.020890960469841957,-1.1807104349136353,0.4672275185585022
1667776600455515400,5.195515380859375,-0.11682894080877304,-1.2959128618240356,0.4557458162307739
1667776600465566500,5.20556640625,-0.1778387427330017,-1.3546867370605469,0.4180285334587097
1667776600475618300,5.215618408203125,-0.17216302454471588,-1.185793161392212,0.3961184024810791
1667776600485669400,5.22566943359375,-0.1627168208360672,-0.862762987613678,0.43685394525527954
1667776600495721200,5.23572119140625,-0.19205845892429352,-0.5719125270843506,0.4830597937107086
1667776600505772300,5.245772216796875,-0.2324269413948059,-0.4519161880016327,0.48745909333229065
1667776600515824400,5.255824462890625,-0.2532957196235657,-0.48384803533554077,0.44977617263793945
1667776600525875500,5.26587548828125,-0.2318773716688156,-0.6326720714569092,0.3845697045326233
1667776600535927300,5.27592724609375,-0.20450088381767273,-0.8889118432998657,0.3216000497341156
1667776600545978400,5.285978271484375,-0.14131368696689606,-1.047926902770996,0.30582672357559204
1667776600556030200,5.2960302734375,-0.10464967787265778,-1.0438294410705566,0.3190666437149048
1667776600566081300,5.306081298828125,-0.10282965004444122,-0.9012702107429504,0.33598560094833374
1667776600576133400,5.31613330078125,-0.1035148873925209,-0.676999032497406,0.3029206097126007
1667776600586184200,5.32618408203125,-0.07913044840097427,-0.41317886114120483,0.21885445713996887
1667776600596235300,5.3362353515625,-0.03427588939666748,-0.21084627509117126,0.11042438447475433
1667776600606287400,5.346287353515625,0.03173299878835678,-0.14410743117332458,-0.021898262202739716
1667776600616338200,5.356338134765625,0.10173071920871735,-0.172807514667511,-0.19494327902793884
1667776600626390500,5.366390625,0.1596827358007431,-0.17968370020389557,-0.42599067091941833
1667776600636441300,5.37644140625,0.2294043004512787,-0.07375087589025497,-0.6900196671485901
1667776600646493400,5.386493408203125,0.3017057180404663,0.11773272603750229,-0.9173531532287598
1667776600656544500,5.39654443359375,0.36437177658081055,0.2991006374359131,-1.0807369947433472
1667776600666596400,5.406596435546875,0.44468241930007935,0.40747278928756714,-1.2187691926956177
1667776600676647400,5.4166474609375,0.5160735249519348,0.5093038082122803,-1.3429360389709473
1667776600686699300,5.42669921875,0.5160423517227173,0.7638007402420044,-1.4935736656188965
1667776600696750300,5.436750244140625,0.46159249544143677,1.143021583557129,-1.7066110372543335
1667776600706801400,5.446801513671875,0.3727014362812042,1.4729137420654297,-1.867405652999878
1667776600716853500,5.456853515625,0.2864658832550049,1.605652928352356,-1.9718379974365234
1667776600726904300,5.466904296875,0.24797385931015015,1.4899919033050537,-2.0822689533233643
1667776600736956400,5.476956298828125,0.2855590581893921,1.245123028755188,-2.220916509628296
1667776600747007500,5.487007568359375,0.4037034511566162,1.0139710903167725,-2.3486406803131104
1667776600757059300,5.497059326171875,0.5493671894073486,0.7752820253372192,-2.4114367961883545
1667776600767110400,5.5071103515625,0.6905808448791504,0.4864619970321655,-2.341567039489746
1667776600777162200,5.517162353515625,0.7926824688911438,0.19142717123031616,-2.1539368629455566
1667776600787213300,5.52721337890625,0.8518713116645813,-0.04816695302724838,-1.8915517330169678
1667776600797265400,5.537265380859375,0.8603162169456482,-0.17079699039459229,-1.646636962890625
1667776600807316200,5.547316162109375,0.8142930269241333,-0.15509316325187683,-1.4916571378707886
1667776600817367300,5.5573671875,0.7367423176765442,-0.04029148444533348,-1.4317903518676758
1667776600827419400,5.56741943359375,0.6481963992118835,0.06381144374608994,-1.4502822160720825
1667776600837470200,5.57747021484375,0.5600060820579529,0.15356342494487762,-1.4609785079956055
1667776600847522300,5.587522216796875,0.4745713472366333,0.29741036891937256,-1.3979328870773315
1667776600857573400,5.597573486328125,0.3770644962787628,0.46794188022613525,-1.3029582500457764
1667776600867625200,5.607625244140625,0.27248379588127136,0.5975650548934937,-1.239010214805603
1667776600877676300,5.61767626953125,0.18274857103824615,0.6516834497451782,-1.2135472297668457
1667776600887728400,5.627728271484375,0.13938841223716736,0.6585794687271118,-1.2191964387893677
1667776600897779500,5.637779541015625,0.16938304901123047,0.6087208390235901,-1.2345225811004639
1667776600907831600,5.64783154296875,0.26315969228744507,0.5938647389411926,-1.2593146562576294
1667776600917882400,5.65788232421875,0.4358433187007904,0.6967634558677673,-1.300013542175293
1667776600927934500,5.6679345703125,0.6579175591468811,0.9072070121765137,-1.3343485593795776
1667776600937985500,5.677985595703125,0.8006927967071533,1.1164870262145996,-1.3363096714019775
1667776600948036400,5.688036376953125,0.8356227874755859,1.391442894935608,-1.322287678718567
1667776600958088400,5.69808837890625,0.8043535351753235,1.7290523052215576,-1.3200817108154297
1667776600968139000,5.708138916015625,0.6915255784988403,1.942815899848938,-1.3466182947158813
1667776600978190800,5.71819091796875,0.5387280583381653,2.0178890228271484,-1.3726650476455688
1667776600988242000,5.728241943359375,0.4210057556629181,1.9504013061523438,-1.3297501802444458
1667776600998293800,5.738293701171875,0.345324844121933,1.781588077545166,-1.1775974035263062
1667776601008344800,5.7483447265625,0.28689414262771606,1.5085525512695312,-0.959404706954956
1667776601018397000,5.75839697265625,0.24731531739234924,1.2266980409622192,-0.7148511409759521
1667776601028447700,5.76844775390625,0.20692159235477448,0.9516870379447937,-0.4976310133934021
1667776601038498800,5.778498779296875,0.1333317905664444,0.6638403534889221,-0.3470678925514221
1667776601048551200,5.78855126953125,0.05173560604453087,0.41922450065612793,-0.2480185329914093
1667776601058602000,5.79860205078125,-0.027036167681217194,0.22056891024112701,-0.16162985563278198
1667776601068654000,5.808654052734375,-0.10341163724660873,0.05013859644532204,-0.07323794811964035
1667776601078705200,5.818705078125,-0.17207005620002747,-0.07373753935098648,0.029894297942519188
1667776601088757000,5.828757080078125,-0.2530263364315033,-0.1505487859249115,0.139141246676445
1667776601098808000,5.83880810546875,-0.3415932357311249,-0.21193385124206543,0.2401578724384308
1667776601108860000,5.84885986328125,-0.4069870710372925,-0.24534201622009277,0.3376811444759369
1667776601118911000,5.858910888671875,-0.437583863735199,-0.2550092935562134,0.45816680788993835
1667776601128963000,5.868963134765625,-0.42681965231895447,-0.26505202054977417,0.5869279503822327
1667776601139014000,5.879013916015625,-0.3824223577976227,-0.3204345703125,0.707504153251648
1667776601149066000,5.88906591796875,-0.3288862407207489,-0.4377762973308563,0.7914384007453918
1667776601159117000,5.899116943359375,-0.2714831531047821,-0.632331132888794,0.8351470232009888
1667776601169168000,5.90916796875,-0.19621214270591736,-0.8420019745826721,0.8091051578521729
1667776601179220000,5.919219970703125,-0.11274255067110062,-0.8994112014770508,0.713915228843689
1667776601189271000,5.92927099609375,-0.06104397773742676,-0.7351770401000977,0.6061195135116577
1667776601199323000,5.939322998046875,-0.05370882898569107,-0.3591216504573822,0.5482258200645447
1667776601209374000,5.9493740234375,-0.05135740339756012,0.04138971120119095,0.5602962374687195
1667776601219425800,5.95942578125,-0.06663862615823746,0.18241873383522034,0.591119110584259
1667776601229476900,5.969476806640625,-0.07977497577667236,0.0738203227519989,0.6253412961959839
1667776601239529000,5.979529052734375,-0.092774398624897,-0.15908457338809967,0.741518497467041
1667776601249580000,5.989580078125,-0.007325084414333105,-0.5196272134780884,1.0274426937103271
1667776601259630800,5.999630859375,0.007147598545998335,-1.1419297456741333,1.5120044946670532
1667776601269683000,6.009682861328125,-0.4074401259422302,-2.0846190452575684,2.1024506092071533
1667776601279734000,6.019734130859375,-0.952532172203064,-2.868839740753174,2.2470149993896484
1667776601289785900,6.029785888671875,-0.9889186024665833,-2.3784613609313965,1.421929121017456
1667776601299837000,6.0398369140625,-0.7854975461959839,-0.7422604560852051,0.3660060167312622
1667776601309889000,6.049888916015625,-0.3373493254184723,1.2626891136169434,-0.09526459872722626
1667776601319940000,6.059940185546875,0.5276792049407959,1.7386479377746582,0.04783929884433746
1667776601329992000,6.069991943359375,0.8581624627113342,0.7806034684181213,0.6188759803771973
1667776601340043000,6.08004296875,0.7123599648475647,-0.6390747427940369,1.5168064832687378
1667776601350095000,6.09009521484375,0.27733737230300903,-2.123790979385376,2.445780038833618
1667776601360146000,6.10014599609375,-0.3007640540599823,-3.3929874897003174,3.0293569564819336
1667776601370197000,6.110197021484375,-0.906738817691803,-4.225654125213623,3.036203384399414
1667776601380249000,6.1202490234375,-1.4559340476989746,-4.338852882385254,2.4224653244018555
1667776601390300200,6.130300048828125,-1.9994621276855469,-3.6553738117218018,1.3652844429016113
1667776601400352000,6.14035205078125,-2.1499886512756348,-2.4586052894592285,0.20413319766521454
1667776601410403000,6.150403076171875,-1.881419062614441,-0.9971951842308044,-0.5923498272895813
1667776601420455000,6.160454833984375,-1.2860031127929688,0.61180180311203,-0.8081966638565063
1667776601430506000,6.170506103515625,-0.8103423118591309,1.9323099851608276,0.4802761971950531
1667776601440558000,6.18055810546875,-0.39699363708496094,2.306800127029419,2.1477208137512207
1667776601450609000,6.19060888671875,0.03737954795360565,1.8615175485610962,2.598142623901367
1667776601460661000,6.200660888671875,0.3754470646381378,0.8499802350997925,1.8933196067810059
1667776601470712000,6.210712158203125,0.5816579461097717,-0.34201136231422424,1.0650826692581177
1667776601480763000,6.220762939453125,0.7177412509918213,-1.1406933069229126,0.5169531106948853
1667776601490815000,6.23081494140625,0.7054466009140015,-1.464784860610962,0.4049246311187744
1667776601500866000,6.240865966796875,0.5879878997802734,-1.6238927841186523,0.4589785635471344
1667776601510918000,6.25091796875,0.4129212200641632,-1.6250693798065186,0.5346112847328186
1667776601520969000,6.260968994140625,0.22352682054042816,-1.3491168022155762,0.6139750480651855
1667776601531020800,6.271020751953125,0.06753876060247421,-0.9282528162002563,0.6775286197662354
1667776601541072000,6.28107177734375,-0.05348486453294754,-0.5466386079788208,0.7433974146842957
1667776601551124000,6.2911240234375,-0.1864689588546753,-0.31041985750198364,0.7661523222923279
1667776601561174800,6.3011748046875,-0.3300783336162567,-0.32176971435546875,0.7206064462661743
1667776601571227100,6.31122705078125,-0.4444615840911865,-0.5412039160728455,0.656936764717102
1667776601581278200,6.3212783203125,-0.45475175976753235,-0.7423993349075317,0.6474093198776245
1667776601591330000,6.331330078125,-0.4193165600299835,-0.6690022349357605,0.6720230579376221
1667776601601381000,6.341381103515625,-0.37175649404525757,-0.3518599271774292,0.6778282523155212
1667776601611432200,6.35143212890625,-0.28941401839256287,-0.015771005302667618,0.6534373164176941
1667776601621484000,6.361484130859375,-0.21878087520599365,0.1984989494085312,0.6304885745048523
1667776601631535000,6.37153515625,-0.19836024940013885,0.2908012866973877,0.6361799836158752
1667776601641587000,6.3815869140625,-0.24145737290382385,0.24488277733325958,0.6990984678268433
1667776601651638000,6.391637939453125,-0.30763787031173706,0.09137935191392899,0.7886685132980347
1667776601661690000,6.401690185546875,-0.3378565013408661,-0.12062957882881165,0.8795970678329468
1667776601671741000,6.411740966796875,-0.337003231048584,-0.3304580748081207,0.9798033833503723
1667776601681793000,6.42179296875,-0.34745508432388306,-0.47871410846710205,1.0909700393676758
1667776601691844000,6.431843994140625,-0.3777967393398285,-0.562778651714325,1.1932485103607178
1667776601701895000,6.44189501953125,-0.42566147446632385,-0.6075242757797241,1.2231653928756714
1667776601711947000,6.451947021484375,-0.48051178455352783,-0.5954068303108215,1.1570279598236084
1667776601721998000,6.461998046875,-0.5216049551963806,-0.5136719942092896,1.0442156791687012
1667776601732050000,6.4720498046875,-0.5512670874595642,-0.37898001074790955,0.942964494228363
1667776601742101000,6.48210107421875,-0.5791285634040833,-0.25700241327285767,0.8679839968681335
1667776601752152800,6.49215283203125,-0.564984917640686,-0.18269556760787964,0.7966353297233582
1667776601762204000,6.502203857421875,-0.4997609257698059,-0.16583217680454254,0.6770468950271606
1667776601772256000,6.512256103515625,-0.3972502648830414,-0.2200317084789276,0.48725298047065735
1667776601782306800,6.522306884765625,-0.27732521295547485,-0.2825307846069336,0.24662065505981445
1667776601792359000,6.53235888671875,-0.16925019025802612,-0.3178327679634094,-0.0059321424923837185
1667776601802410000,6.542409912109375,-0.077019602060318,-0.33742883801460266,-0.3178895115852356
1667776601812460800,6.552460693359375,0.017428582534193993,-0.2500849962234497,-0.7202280759811401
1667776601822513000,6.562512939453125,0.13745592534542084,0.02273612841963768,-1.1868674755096436
1667776601832564000,6.57256396484375,0.28311312198638916,0.37309178709983826,-1.544144868850708
1667776601842616000,6.582615966796875,0.4280546009540558,0.6090750694274902,-1.6664917469024658
1667776601852667000,6.5926669921875,0.5812035799026489,0.7305489778518677,-1.6491514444351196
1667776601862719000,6.602718994140625,0.787627100944519,0.9520289301872253,-1.8052058219909668
1667776601872770000,6.61277001953125,0.8155118823051453,1.3237559795379639,-2.1563363075256348
1667776601882822100,6.622822265625,0.750817596912384,1.6661365032196045,-2.4553210735321045
1667776601892873000,6.632873046875,0.6816394925117493,1.7209635972976685,-2.599501609802246
1667776601902925000,6.642925048828125,0.6744862198829651,1.6187773942947388,-2.712036609649658
1667776601912976100,6.65297607421875,0.7295694947242737,1.509840965270996,-2.8326566219329834
1667776601923027000,6.66302685546875,0.8213630318641663,1.4551392793655396,-2.8510074615478516
1667776601933079000,6.6730791015625,0.9301616549491882,1.3550928831100464,-2.7293901443481445
1667776601943130000,6.683130126953125,0.9905145168304443,1.1420469284057617,-2.5234718322753906
1667776601953182000,6.693181884765625,0.9775837063789368,0.7826903462409973,-2.28977108001709
1667776601963233000,6.70323291015625,0.9080520272254944,0.3835144639015198,-2.11592435836792
1667776601973284900,6.713284912109375,0.8682913184165955,0.04214910417795181,-2.103067398071289
1667776601983336000,6.7233359375,0.9112728834152222,-0.19427275657653809,-2.234469175338745
1667776601993388000,6.733387939453125,1.01705002784729,-0.22736795246601105,-2.3420233726501465
1667776602003438800,6.74343896484375,1.107297420501709,-0.04206814244389534,-2.3458166122436523
1667776602013491000,6.753490966796875,1.1591380834579468,0.2919394075870514,-2.2419168949127197
1667776602023542000,6.7635419921875,1.1391929388046265,0.7159186601638794,-2.0779449939727783
1667776602033592800,6.7735927734375,1.0902339220046997,1.182952880859375,-1.8836272954940796
1667776602043645000,6.78364501953125,1.0543142557144165,1.556393027305603,-1.7109109163284302
1667776602053696000,6.793696044921875,1.0491544008255005,1.6662436723709106,-1.6298469305038452
1667776602063747800,6.803747802734375,1.0543773174285889,1.5062508583068848,-1.6205517053604126
1667776602073799000,6.813798828125,1.0476171970367432,1.2463188171386719,-1.652942419052124
1667776602083850800,6.823850830078125,1.052019715309143,1.0711160898208618,-1.7019903659820557
1667776602093901800,6.83390185546875,1.0545536279678345,1.1268490552902222,-1.737581491470337
1667776602103954200,6.8439541015625,0.9841662645339966,1.3176743984222412,-1.74259614944458
1667776602114005000,6.8540048828125,0.865319550037384,1.546152114868164,-1.7248327732086182
1667776602124057000,6.86405712890625,0.7323180437088013,1.7245149612426758,-1.6302645206451416
1667776602134108200,6.874108154296875,0.5833162665367126,1.8283076286315918,-1.470524549484253
1667776602144159000,6.884158935546875,0.47590169310569763,1.7985914945602417,-1.243825912475586
1667776602154211000,6.894211181640625,0.3688410222530365,1.6644476652145386,-0.9540782570838928
1667776602164262100,6.90426220703125,0.27641814947128296,1.5477386713027954,-0.624555230140686
1667776602174314000,6.91431396484375,0.20330874621868134,1.399853229522705,-0.28888022899627686
1667776602184365000,6.924364990234375,0.12064902484416962,1.209923267364502,0.031987544149160385
1667776602194417000,6.9344169921875,0.032073501497507095,1.0066237449645996,0.3455047309398651
1667776602204468000,6.944468017578125,-0.06232783570885658,0.7798348069190979,0.6084732413291931
1667776602214520000,6.95452001953125,-0.13763603568077087,0.5247765779495239,0.7983293533325195
1667776602224571000,6.96457080078125,-0.19833746552467346,0.279471755027771,0.9676358699798584
1667776602234623000,6.974623046875,-0.2577216923236847,0.06735630333423615,1.1383147239685059
1667776602244674000,6.984674072265625,-0.35515689849853516,-0.10171420872211456,1.2912509441375732
1667776602254724900,6.994724853515625,-0.47642597556114197,-0.19373825192451477,1.3887958526611328
1667776602264777000,7.00477685546875,-0.5957145690917969,-0.21693678200244904,1.4140956401824951
1667776602274828000,7.014828125,-0.6398584842681885,-0.2590252459049225,1.3633267879486084
1667776602284880000,7.0248798828125,-0.5408107042312622,-0.36741164326667786,1.2222938537597656
1667776602294931000,7.034930908203125,-0.26547449827194214,-0.5072140097618103,0.9330319762229919
1667776602304982800,7.044982666015625,0.1104368194937706,-0.6259611248970032,0.4139973223209381
1667776602315033900,7.055033935546875,0.3578994870185852,-0.7681264877319336,-0.1292574554681778
1667776602325086000,7.0650859375,0.4468088448047638,-0.9608815908432007,-0.310635507106781
1667776602335136800,7.07513671875,0.6487064361572266,-1.183803915977478,-0.1845044493675232
1667776602345188900,7.08518896484375,0.4413151443004608,-1.5417457818984985,0.07886964827775955
1667776602355240000,7.095239990234375,0.08994071930646896,-1.766647219657898,0.29431965947151184
1667776602365291000,7.105291015625,-0.0858934223651886,-1.3512502908706665,0.5211408138275146
1667776602375343000,7.115343017578125,-0.212971031665802,-0.5786260366439819,0.6234601736068726
1667776602385394000,7.125393798828125,-0.26959943771362305,0.06387833505868912,0.5855702757835388
1667776602395446000,7.135446044921875,-0.2870754301548004,0.2884412705898285,0.5667802691459656
1667776602405497000,7.1454970703125,-0.3295917212963104,0.16637635231018066,0.6895541548728943
1667776602415549000,7.155548828125,-0.4065380096435547,-0.3004412353038788,0.8047224283218384
1667776602425600000,7.16560009765625,-0.471513032913208,-1.2709860801696777,0.8850764036178589
1667776602435652000,7.175652099609375,-0.46652451157569885,-2.4423046112060547,1.0754668712615967
1667776602445703000,7.185702880859375,-0.2460360825061798,-3.012075185775757,1.4857606887817383
1667776602455755000,7.195755126953125,0.37753885984420776,-1.8044546842575073,1.7568790912628174
1667776602465806000,7.20580615234375,0.8061514496803284,-0.07328899204730988,1.4216984510421753
1667776602475857000,7.21585693359375,0.5422976016998291,0.1382504403591156,0.7351844906806946
1667776602485909000,7.225908935546875,0.04726153239607811,-0.6999302506446838,0.6221103668212891
1667776602495960000,7.2359599609375,-0.5106281638145447,-1.8853353261947632,0.95472651720047
1667776602506012000,7.246011962890625,-1.5450475215911865,-3.173239231109619,1.2584983110427856
1667776602516063000,7.25606298828125,-2.844783306121826,-3.9311187267303467,1.4893749952316284
1667776602526114800,7.26611474609375,-3.949462652206421,-3.667365312576294,1.7507667541503906
1667776602536166000,7.276165771484375,-4.60130500793457,-3.137885808944702,1.7438483238220215
1667776602546218000,7.286218017578125,-4.468492031097412,-2.1859307289123535,1.5978623628616333
1667776602556269000,7.29626904296875,-3.388641595840454,-0.544893205165863,1.4943820238113403
1667776602566321000,7.30632080078125,-1.8140294551849365,1.3442946672439575,1.697283148765564
1667776602576372000,7.3163720703125,-0.7636351585388184,2.6090805530548096,2.082937240600586
1667776602586423000,7.326423095703125,-0.43423062562942505,3.0744194984436035,2.5736544132232666
1667776602596475000,7.336474853515625,-0.24723993241786957,3.0797278881073,2.8832638263702393
1667776602606526000,7.34652587890625,0.005217621102929115,2.522531509399414,2.606353759765625
1667776602616577800,7.356577880859375,-0.22215506434440613,1.6257987022399902,2.062211275100708
1667776602626628900,7.36662890625,-0.026473451405763626,0.4970059096813202,2.1297013759613037
1667776602636681000,7.376680908203125,0.32271280884742737,-0.5687504410743713,2.484811544418335
1667776602646731800,7.386731689453125,0.27894535660743713,-1.2136342525482178,2.515367031097412
1667776602656784100,7.3967841796875,-0.08659829944372177,-1.4077847003936768,2.1808054447174072
1667776602666835000,7.4068349609375,0.10492958873510361,-1.3213398456573486,1.4543322324752808
1667776602676887000,7.416886962890625,0.18015410006046295,-0.6426715850830078,1.2365052700042725
1667776602686938000,7.426938232421875,0.23390386998653412,-0.15560686588287354,1.0315853357315063
1667776602696989200,7.4369892578125,0.9400928616523743,-0.6997913718223572,0.5791227221488953
1667776602707041000,7.447041015625,0.8984556794166565,-1.6899157762527466,0.12318979203701019
1667776602717092000,7.457092041015625,0.04616953432559967,-2.1519439220428467,-0.0012635313905775547
1667776602727144000,7.46714404296875,-0.7096302509307861,-1.8083832263946533,0.12992776930332184
1667776602737195000,7.477195068359375,-0.8522477149963379,-1.2750197649002075,0.2569608688354492
1667776602747247000,7.4872470703125,-0.7417182326316833,-0.994347095489502,0.23024939000606537
1667776602757298000,7.4972978515625,-0.6181774735450745,-0.7741320133209229,0.1447877734899521
1667776602767350000,7.50735009765625,-0.523025631904602,-0.5213252902030945,0.10945507884025574
1667776602777401000,7.517401123046875,-0.5025011897087097,-0.44187596440315247,0.11756138503551483
1667776602787453000,7.527452880859375,-0.5425229072570801,-0.43692195415496826,0.3282347619533539
1667776602797504000,7.53750390625,-0.6402362585067749,-0.3352756202220917,0.8439651727676392
1667776602807555000,7.54755517578125,-0.8124263882637024,-0.04275057092308998,1.436381220817566
1667776602817607000,7.55760693359375,-1.0721983909606934,0.43047308921813965,1.9056799411773682
1667776602827658000,7.567657958984375,-1.3690532445907593,1.0140472650527954,2.095942497253418
1667776602837709800,7.577709716796875,-1.612282633781433,1.4288393259048462,1.9635066986083984
1667776602847761000,7.587760986328125,-1.803946614265442,1.561326503753662,1.6495890617370605
1667776602857813000,7.59781298828125,-1.9712475538253784,1.5777907371520996,1.316174864768982
1667776602867863800,7.60786376953125,-2.1530680656433105,1.6310324668884277,1.0238090753555298
1667776602877916000,7.617916015625,-2.323756694793701,1.6746786832809448,0.7222495675086975
1667776602887967000,7.627967041015625,-2.490436553955078,1.8121776580810547,0.41848331689834595
1667776602898019000,7.63801904296875,-2.5267088413238525,1.8983722925186157,-0.1292138695716858
1667776602908070100,7.648070068359375,-2.4116575717926025,1.871229887008667,-0.8460657000541687
1667776602918121000,7.658120849609375,-2.2929229736328125,1.7135157585144043,-1.747879147529602
1667776602928173000,7.668173095703125,-2.0872905254364014,1.242884635925293,-2.6903586387634277
1667776602938224000,7.67822412109375,-1.8126869201660156,0.48507916927337646,-3.1454644203186035
1667776602948276000,7.68827587890625,-1.3103225231170654,0.024878283962607384,-3.0401692390441895
1667776602958327000,7.6983271484375,-0.6268226504325867,-0.15455329418182373,-2.841797351837158
1667776602968378600,7.708378662109375,-0.0354703925549984,-0.34375837445259094,-2.8187296390533447
1667776602978429400,7.718429443359375,0.38694313168525696,-0.5792354345321655,-2.9285643100738525
1667776602988481500,7.7284814453125,0.7598456144332886,-0.49386540055274963,-3.0441322326660156
1667776602998532600,7.73853271484375,0.9706721901893616,0.2143750637769699,-3.040642499923706
1667776603008584400,7.74858447265625,1.274656891822815,0.8894200921058655,-3.229609251022339
1667776603018635500,7.758635498046875,1.864005208015442,0.8880283236503601,-3.4723331928253174
1667776603028687400,7.768687255859375,2.199064016342163,0.4775846004486084,-3.724968194961548
1667776603038738400,7.778738525390625,2.4202139377593994,0.056955307722091675,-3.937189817428589
1667776603048789500,7.78878955078125,2.575352430343628,-0.30457866191864014,-4.04051399230957
1667776603058841300,7.79884130859375,2.678962230682373,-0.6165655851364136,-3.9656338691711426
1667776603068892400,7.808892333984375,2.7084264755249023,-0.8222159147262573,-3.7186245918273926
1667776603078944500,7.818944580078125,2.647209644317627,-0.7955990433692932,-3.2907116413116455
1667776603088995600,7.82899560546875,2.543117046356201,-0.46070659160614014,-2.802705764770508
1667776603099047400,7.83904736328125,2.3953731060028076,0.08587662130594254,-2.413710832595825
1667776603109098500,7.849098388671875,2.128525733947754,0.6395975947380066,-2.2101902961730957
1667776603119150300,7.859150390625,1.7061843872070312,0.8172063827514648,-2.14680552482605
1667776603129201400,7.869201416015625,1.2772213220596313,0.7717829346656799,-2.159280776977539
1667776603139253500,7.87925341796875,1.0095767974853516,0.8263636827468872,-2.271378993988037
1667776603149304300,7.88930419921875,0.8384836316108704,1.0142855644226074,-2.455472469329834
1667776603159355400,7.89935546875,0.6901519894599915,1.2800785303115845,-2.7266457080841064
1667776603169407500,7.909407470703125,0.5379691123962402,1.4473344087600708,-3.03808331489563
1667776603179458300,7.919458251953125,0.40135496854782104,1.6757137775421143,-3.280674457550049
1667776603189510700,7.9295107421875,0.2793251872062683,1.9903974533081055,-3.384761333465576
1667776603199561500,7.9395615234375,0.17929066717624664,2.2564187049865723,-3.299898147583008
1667776603209613600,7.949613525390625,0.09138450771570206,2.455103635787964,-3.044360637664795
1667776603219664600,7.95966455078125,-0.0026809656992554665,2.4195408821105957,-2.689120292663574
1667776603229716500,7.969716552734375,-0.11300800740718842,2.2849721908569336,-2.294102191925049
1667776603239767600,7.979767578125,-0.22939985990524292,2.1476540565490723,-1.8708279132843018
1667776603249819400,7.9898193359375,-0.36365434527397156,1.8576583862304688,-1.4677661657333374
1667776603259870500,7.999870361328125,-0.4644702672958374,1.413413643836975,-1.0921965837478638
1667776603269921500,8.009921630859376,-0.509856641292572,0.9674973487854004,-0.733961820602417
1667776603279973600,8.0199736328125,-0.509193480014801,0.5895863771438599,-0.3588443994522095
1667776603290024400,8.0300244140625,-0.46056896448135376,0.2989148795604706,0.04301435872912407
1667776603300076500,8.04007666015625,-0.3881775140762329,-0.0029655059333890676,0.4729381501674652
1667776603310127600,8.050127685546874,-0.29560256004333496,-0.32464393973350525,0.9022296071052551
1667776603320179500,8.060179443359376,-0.24202251434326172,-0.5902615785598755,1.2344591617584229
1667776603330230500,8.07023046875,-0.19636422395706177,-0.7879139184951782,1.3522083759307861
1667776603340282400,8.080282470703125,-0.14910238981246948,-0.9989001750946045,1.1459789276123047
1667776603350333400,8.09033349609375,-0.059631891548633575,-1.2521902322769165,0.6264936923980713
1667776603360385500,8.100385498046874,0.06827303767204285,-1.5178160667419434,0.11350450664758682
1667776603370436400,8.110436279296875,0.19430102407932281,-1.6265205144882202,-0.07429788261651993
1667776603380488400,8.120488525390625,0.3049342930316925,-1.4324405193328857,0.05591178312897682
1667776603390539500,8.13053955078125,0.3706717789173126,-0.9214954972267151,0.2780657708644867
1667776603400590300,8.14059033203125,0.31167346239089966,-0.19186191260814667,0.46582552790641785
1667776603410642400,8.150642333984376,0.13029354810714722,0.4660579264163971,0.5229972004890442
1667776603420693500,8.160693603515625,-0.08372917026281357,0.9414749145507812,0.38659632205963135
1667776603430745300,8.170745361328125,-0.238385871052742,1.2030878067016602,-0.04949444904923439
1667776603440796400,8.18079638671875,-0.329147070646286,0.9662041664123535,-0.5366490483283997
1667776603450848500,8.1908486328125,-0.31456705927848816,0.24522630870342255,-0.3747458755970001
1667776603460899300,8.2008994140625,-0.3561684191226959,-0.5125412344932556,0.5671364068984985
1667776603470951700,8.21095166015625,-0.1535535305738449,-0.9397461414337158,1.4501142501831055
1667776603481002500,8.22100244140625,0.1250143051147461,-1.5396268367767334,2.121795415878296
1667776603491054600,8.2310546875,0.2284485399723053,-1.8159945011138916,2.857008934020996
1667776603501105700,8.241105712890626,0.1029777079820633,-1.402618169784546,3.5435872077941895
1667776603511156500,8.251156494140625,-0.16740690171718597,-0.22483782470226288,3.963735818862915
1667776603521208600,8.26120849609375,-0.6087772250175476,0.08839098364114761,3.8430802822113037
1667776603531259600,8.271259765625,-1.1092160940170288,-1.804693341255188,3.660135507583618
1667776603541311500,8.2813115234375,-1.453700065612793,-4.228293418884277,3.5223984718322754
1667776603551362600,8.291362548828126,-1.5347925424575806,-5.258645534515381,3.5275821685791016
1667776603561414400,8.301414306640625,-1.486554503440857,-4.713076114654541,3.6717309951782227
1667776603571465500,8.311465576171875,-1.3747602701187134,-3.0346007347106934,3.534642219543457
1667776603581517600,8.321517578125,-0.928912341594696,-1.0520528554916382,2.957585573196411
1667776603591568400,8.331568359375,-0.28042733669281006,0.44181641936302185,2.429514169692993
1667776603601620500,8.341620361328125,0.20876847207546234,1.2270749807357788,2.1051723957061768
1667776603611671600,8.351671630859375,0.4288944602012634,1.300497055053711,1.9045439958572388
1667776603621723400,8.361723388671875,0.3949195146560669,0.9858091473579407,1.8466919660568237
1667776603631774500,8.3717744140625,0.18950112164020538,0.611149251461029,1.9178060293197632
1667776603641825500,8.381825439453126,-0.09240195900201797,0.3516411781311035,2.0203306674957275
1667776603651877400,8.39187744140625,-0.34758898615837097,0.23111343383789062,2.072323799133301
1667776603661928400,8.401928466796875,-0.46910083293914795,0.12662188708782196,2.050365447998047
1667776603671980300,8.411980224609374,-0.41944512724876404,-0.06365405768156052,2.0109810829162598
1667776603682031400,8.42203125,-0.11398771405220032,-0.4239771068096161,2.0422611236572266
1667776603692083500,8.43208349609375,0.24641041457653046,-0.9312009215354919,2.177252769470215
1667776603702134300,8.44213427734375,0.4943678081035614,-1.3589478731155396,2.385965347290039
1667776603712186600,8.4521865234375,0.48495808243751526,-1.6287915706634521,2.4552385807037354
1667776603722237700,8.46223779296875,0.16313587129116058,-1.6544855833053589,2.2657735347747803
1667776603732289500,8.47228955078125,-0.17335186898708344,-1.5990772247314453,2.018749237060547
1667776603742340600,8.482340576171875,-0.40314751863479614,-1.4384326934814453,1.7929213047027588
1667776603752391700,8.4923916015625,-0.5397959351539612,-1.1890662908554077,1.6154168844223022
1667776603762443500,8.502443603515625,-0.6225572228431702,-0.9854583740234375,1.4642491340637207
1667776603772494600,8.51249462890625,-0.6352314949035645,-0.9289554357528687,1.3278417587280273
1667776603782546400,8.52254638671875,-0.6100171804428101,-1.027172327041626,1.1543631553649902
1667776603792597500,8.532597412109375,-0.6047118902206421,-1.1804662942886353,0.9245488047599792
1667776603802649600,8.542649658203125,-0.6593020558357239,-1.249477505683899,0.696497917175293
1667776603812700400,8.552700439453124,-0.7564166188240051,-1.1563212871551514,0.5747573375701904
1667776603822752500,8.56275244140625,-0.8098915815353394,-0.882314145565033,0.6304547190666199
1667776603832803600,8.572803466796875,-0.8349468111991882,-0.5152314901351929,0.8419650793075562
1667776603842855400,8.58285546875,-0.8425275683403015,-0.24012596905231476,1.1332271099090576
1667776603852906500,8.592906494140625,-0.8233533501625061,-0.19935722649097443,1.4327472448349
1667776603862958300,8.602958251953124,-0.7476850748062134,-0.3929266035556793,1.675158977508545
1667776603873009400,8.613009521484376,-0.6641084551811218,-0.7134342789649963,1.7897229194641113
1667776603883060500,8.623060546875,-0.5635276436805725,-0.9719010591506958,1.704185128211975
1667776603893112300,8.6331123046875,-0.4553777277469635,-1.0216777324676514,1.4386330842971802
1667776603903163400,8.643163330078124,-0.33304712176322937,-0.8203616738319397,1.120665192604065
1667776603913215500,8.653215576171876,-0.19373874366283417,-0.3906601667404175,0.8894513249397278
1667776603923266300,8.663266357421875,-0.08029119670391083,0.11505988240242004,0.7608993053436279
1667776603933318400,8.673318359375,-0.029732683673501015,0.40730854868888855,0.5988907217979431
1667776603943369500,8.683369384765625,-0.03290199860930443,0.33543670177459717,0.23834995925426483
1667776603953421300,8.69342138671875,-0.07921890169382095,0.16196024417877197,-0.33139100670814514
1667776603963472400,8.703472412109376,-0.09669455140829086,0.20509247481822968,-1.0086910724639893
1667776603973524700,8.713524658203125,-0.00823818426579237,0.36556896567344666,-1.7096019983291626
1667776603983575800,8.723575927734375,0.15734228491783142,0.4916394352912903,-2.270043134689331
1667776603993627000,8.733626953125,0.3527615964412689,0.6238720417022705,-2.6755106449127197
1667776604003678700,8.7436787109375,0.5930915474891663,0.7778796553611755,-3.059910535812378
1667776604013729800,8.753729736328125,0.832571804523468,0.9078589677810669,-3.4005215167999268
1667776604023782000,8.763781982421875,0.9203397631645203,0.9795646071434021,-3.511437177658081
1667776604033832700,8.773832763671875,0.9808459877967834,1.0216315984725952,-3.466050386428833
1667776604043884800,8.783884765625,1.067191243171692,1.3466593027114868,-3.382765769958496
1667776604053935900,8.793935791015626,1.1815614700317383,1.9294277429580688,-3.330421209335327
1667776604063987700,8.80398779296875,1.2618157863616943,2.4725935459136963,-3.208953857421875
1667776604074038800,8.814038818359375,1.2693170309066772,2.687516450881958,-3.0691745281219482
1667776604084090600,8.824090576171875,1.209450125694275,2.410127878189087,-2.9707469940185547
1667776604094141700,8.8341416015625,1.1413013935089111,1.6374552249908447,-2.976306438446045
1667776604104193800,8.84419384765625,1.1657588481903076,0.46906402707099915,-3.1077351570129395
1667776604114244600,8.85424462890625,1.2797073125839233,-0.7628330588340759,-3.2610416412353516
1667776604124296700,8.864296630859375,1.4989111423492432,-1.6638336181640625,-3.3153815269470215
1667776604134347800,8.87434765625,1.7679040431976318,-1.9836909770965576,-3.1895344257354736
1667776604144398600,8.884398681640626,1.9124115705490112,-1.646253228187561,-2.8905105590820312
1667776604154450700,8.89445068359375,1.8919332027435303,-0.8144564628601074,-2.5435497760772705
1667776604164501800,8.904501708984375,1.7711061239242554,0.19171300530433655,-2.2301626205444336
1667776604174553900,8.914553955078125,1.6371041536331177,1.2166638374328613,-2.0267040729522705
1667776604184604700,8.924604736328124,1.560620903968811,1.7173948287963867,-2.1638870239257812
1667776604194656800,8.93465673828125,1.4692628383636475,1.491517186164856,-2.6461377143859863
1667776604204707800,8.944707763671875,1.4241619110107422,1.2285000085830688,-3.2812857627868652
1667776604214760000,8.954760009765625,1.3155875205993652,1.6223098039627075,-3.8434152603149414
1667776604224810800,8.964810791015625,1.159612774848938,2.220310926437378,-4.166069507598877
1667776604234862800,8.97486279296875,1.0267887115478516,2.5463268756866455,-4.208578586578369
1667776604244914000,8.984913818359376,0.8704253435134888,2.636411428451538,-4.008608818054199
1667776604254965800,8.9949658203125,0.6654144525527954,2.565560817718506,-3.7390494346618652
1667776604265016800,9.005016845703125,0.5145328640937805,2.396977424621582,-3.3953945636749268
1667776604275068000,9.01506787109375,0.42740118503570557,2.267033815383911,-3.027381658554077
1667776604285119700,9.02511962890625,0.34908217191696167,2.0871949195861816,-2.6265065670013428
1667776604295170800,9.0351708984375,0.3009210526943207,1.8756248950958252,-2.1997909545898438
1667776604305222700,9.04522265625,0.22098754346370697,1.6842767000198364,-1.7867121696472168
1667776604315273700,9.055273681640625,0.16871634125709534,1.6334284543991089,-1.3667497634887695
1667776604325325800,9.065325927734374,0.10832206159830093,1.691344976425171,-0.9597508907318115
1667776604335376600,9.075376708984376,0.045680515468120575,1.68368661403656,-0.5880295038223267
1667776604345428700,9.0854287109375,0.004982813261449337,1.507940649986267,-0.208108589053154
1667776604355479800,9.095479736328125,0.015429061837494373,1.1138708591461182,0.1883053332567215
1667776604365531600,9.10553173828125,0.05497147887945175,0.6039372682571411,0.5853694081306458
1667776604375582700,9.115582763671876,0.12464376538991928,0.11965584754943848,0.9811702370643616
1667776604385633800,9.1256337890625,0.1618812531232834,-0.19337087869644165,1.3403288125991821
1667776604395685600,9.135685546875,0.14606527984142303,-0.3617306053638458,1.5698524713516235
1667776604405736700,9.14573681640625,0.06093614175915718,-0.42687827348709106,1.5283222198486328
1667776604415788500,9.15578857421875,0.004518136847764254,-0.4352174401283264,1.1119576692581177
1667776604425839600,9.165839599609376,0.09149893373250961,-0.5086529850959778,0.5298005938529968
1667776604435892000,9.17589208984375,0.22384099662303925,-0.6927961707115173,0.18012915551662445
1667776604445942800,9.18594287109375,0.23296502232551575,-0.7043076157569885,0.4925820231437683
1667776604455995000,9.195994873046875,0.17272138595581055,-0.8513085246086121,1.2831484079360962
1667776604466046000,9.2060458984375,0.1299581080675125,-1.838695764541626,1.9898606538772583
1667776604476097800,9.216097900390626,0.20174068212509155,-3.031721591949463,2.7107670307159424
1667776604486148900,9.22614892578125,-0.07207779586315155,-3.802584648132324,3.3554904460906982
1667776604496200700,9.23620068359375,-0.6650532484054565,-4.30777645111084,3.6995201110839844
1667776604506251800,9.246251708984374,-1.1944546699523926,-4.27162504196167,3.592487335205078
1667776604516302800,9.256302734375,-1.6960713863372803,-3.03645658493042,2.75624680519104
1667776604526354700,9.266354736328125,-2.2370707988739014,-2.0643603801727295,2.2487707138061523
1667776604536405800,9.27640576171875,-2.1350483894348145,-1.8794138431549072,2.4635837078094482
1667776604546457900,9.286457763671875,-1.4120930433273315,-2.191819906234741,2.7931177616119385
1667776604556508700,9.2965087890625,-0.893318235874176,-2.4468741416931152,3.0814199447631836
1667776604566560800,9.306560791015626,-0.6583538055419922,-2.5356016159057617,3.355013370513916
1667776604576611800,9.31661181640625,-0.538524329662323,-2.252427816390991,3.577759265899658
1667776604586663700,9.32666357421875,-0.4465569257736206,-1.6238701343536377,3.666508913040161
1667776604596714800,9.33671484375,-0.36005133390426636,-0.8114350438117981,3.5530827045440674
1667776604606766600,9.3467666015625,-0.3386916220188141,-0.14834114909172058,3.2453858852386475
1667776604616817700,9.356817626953125,-0.46680912375450134,0.09809178858995438,2.854781150817871
1667776604626869800,9.366869873046875,-0.6824997067451477,-0.022316567599773407,2.4634933471679688
1667776604636920600,9.376920654296875,-0.8400459289550781,-0.21720296144485474,2.150747776031494
1667776604646971600,9.3869716796875,-1.026200294494629,-0.3783585727214813,1.9102489948272705
1667776604657023700,9.397023681640626,-1.2557942867279053,-0.372710257768631,1.7941211462020874
1667776604667074600,9.407074462890625,-1.427700161933899,-0.06247982382774353,1.9225608110427856
1667776604677126700,9.417126708984375,-1.4369621276855469,0.3571840226650238,2.2251408100128174
1667776604687177700,9.427177734375,-1.2881927490234375,0.763651430606842,2.399204730987549
1667776604697229800,9.437229736328124,-1.0981650352478027,0.9101687073707581,2.3695952892303467
1667776604707281000,9.447281005859375,-0.8583868145942688,0.8098132610321045,2.373863935470581
1667776604717332700,9.457332763671875,-0.8093255162239075,0.5388299822807312,2.4339301586151123
1667776604727383800,9.4673837890625,-0.8964652419090271,0.18039847910404205,2.4751434326171875
1667776604737436000,9.477435791015624,-0.9532220363616943,-0.2342543601989746,2.448564052581787
1667776604747486700,9.48748681640625,-0.9965816140174866,-0.5706023573875427,2.326645612716675
1667776604757538800,9.497538818359375,-1.0207034349441528,-0.8368290066719055,2.0490798950195312
1667776604767590000,9.50758984375,-0.9608883261680603,-1.046968936920166,1.607664942741394
1667776604777641700,9.517641845703125,-0.8334134221076965,-1.2901901006698608,1.1056489944458008
1667776604787692800,9.52769287109375,-0.6970472931861877,-1.4739413261413574,0.7390091419219971
1667776604797743900,9.537743896484375,-0.5585887432098389,-1.4682719707489014,0.5937337279319763
1667776604807795700,9.547795654296875,-0.4150075912475586,-1.2553856372833252,0.6184930205345154
1667776604817846800,9.5578466796875,-0.30671173334121704,-0.8525986075401306,0.6802653074264526
1667776604827898600,9.567898681640624,-0.24533796310424805,-0.3366171419620514,0.6012884974479675
1667776604837949700,9.57794970703125,-0.10024310648441315,0.11151699721813202,0.27665022015571594
1667776604848001800,9.588001708984375,0.0780906081199646,0.4280604422092438,-0.21615755558013916
1667776604858052600,9.598052490234375,0.23780277371406555,0.5083542466163635,-0.7285255193710327
1667776604868104700,9.608104736328125,0.4709112048149109,0.2712520658969879,-1.1903636455535889
1667776604878155800,9.61815576171875,0.8194960951805115,0.03679908066987991,-1.6124323606491089
1667776604888207600,9.62820751953125,1.145330548286438,0.23229674994945526,-2.008866548538208
1667776604898258700,9.6382587890625,1.2142260074615479,0.7896726727485657,-2.2330195903778076
1667776604908310500,9.648310546875,1.0336534976959229,1.2183536291122437,-2.393054723739624
1667776604918361600,9.658361572265624,0.700104296207428,1.415854811668396,-2.7495710849761963
1667776604928412700,9.66841259765625,0.36058732867240906,1.4571760892868042,-2.9982194900512695
1667776604938464800,9.67846484375,0.3107185661792755,1.4496123790740967,-3.0307703018188477
1667776604948515600,9.688515625,0.5145969390869141,1.8467744588851929,-3.1905155181884766
1667776604958568000,9.69856787109375,0.6932481527328491,2.4721755981445312,-3.286304473876953
1667776604968619000,9.708618896484374,0.633172333240509,2.967036247253418,-3.222937822341919
1667776604978671400,9.71867138671875,0.34191495180130005,2.7659006118774414,-3.1189169883728027
1667776604988722400,9.728722412109375,0.10092493891716003,1.45987069606781,-3.0495200157165527
1667776604998774300,9.738774169921875,0.027434473857283592,-0.4487111270427704,-3.0074644088745117
1667776605008825300,9.748825439453125,0.29265934228897095,-2.2736868858337402,-2.969416856765747
1667776605018877200,9.758877197265624,0.8312568068504333,-3.297043561935425,-2.8537707328796387
1667776605028928300,9.76892822265625,1.3706520795822144,-3.315429449081421,-2.722499132156372
1667776605038980400,9.77898046875,1.7233641147613525,-2.6197524070739746,-2.704439401626587
1667776605049031200,9.78903125,1.9341421127319336,-1.8365029096603394,-2.718203544616699
1667776605059082200,9.799082275390624,2.0941689014434814,-1.189341425895691,-2.6506259441375732
1667776605069134300,9.80913427734375,2.169773817062378,-0.5165436863899231,-2.489252805709839
1667776605079185200,9.81918505859375,2.129929304122925,0.36713019013404846,-2.3214364051818848
1667776605089237200,9.8292373046875,1.975640058517456,1.2060099840164185,-2.214430332183838
1667776605099288300,9.839288330078125,1.5810797214508057,1.7427479028701782,-2.1994998455047607
1667776605109340200,9.849340087890624,0.9924886226654053,2.08390736579895,-2.2769622802734375
1667776605119391200,9.85939111328125,0.48961347341537476,2.365015983581543,-2.298748254776001
1667776605129443000,9.869443115234375,0.15383155643939972,2.6591432094573975,-2.138329029083252
1667776605139494100,9.879494140625,-0.06257690489292145,2.770404100418091,-1.7843060493469238
1667776605149546200,9.889546142578125,-0.20854692161083221,2.634072780609131,-1.3349939584732056
1667776605159597000,9.89959716796875,-0.3056239187717438,2.391977071762085,-0.833800196647644
1667776605169649200,9.909649169921876,-0.4076746106147766,2.1281185150146484,-0.3308710753917694
1667776605179700200,9.9197001953125,-0.5253311991691589,1.6896133422851562,0.14623156189918518
1667776605189752300,9.92975244140625,-0.6625432968139648,0.8580909371376038,0.5975775122642517
1667776605199803100,9.93980322265625,-0.7450323104858398,-0.2804355025291443,1.0696496963500977
1667776605209854200,9.949854248046876,-0.7595254182815552,-1.2603317499160767,1.5623397827148438
1667776605219906300,9.95990625,-0.8014984726905823,-1.7690794467926025,2.032623291015625
1667776605229957000,9.96995703125,-0.7942810654640198,-1.77334725856781,2.4724130630493164
1667776605240009200,9.98000927734375,-0.626757800579071,-1.2822142839431763,2.7638611793518066
1667776605250060300,9.990060302734374,-0.49633222818374634,-0.8263108730316162,2.967369794845581
1667776605260112400,10.0001123046875,-0.33160826563835144,-0.7008357644081116,3.0992634296417236
1667776605270163200,10.0101630859375,-0.051626045256853104,-0.9865545630455017,2.9675416946411133
1667776605280215300,10.02021533203125,0.3783857822418213,-1.5523316860198975,2.3189101219177246
1667776605290266400,10.030266357421874,0.8245153427124023,-2.082742214202881,1.2913743257522583
1667776605300318200,10.040318115234374,0.9964842200279236,-2.5667452812194824,0.6101441979408264
1667776605310369300,10.050369384765625,0.8171865344047546,-2.564950466156006,0.30689701437950134
1667776605320420400,10.06042041015625,0.6729297637939453,-2.42702054977417,0.38945287466049194
1667776605330472200,10.07047216796875,0.03162253275513649,-2.760298728942871,1.2740761041641235
1667776605340523300,10.080523193359374,-1.7818818092346191,-3.850795030593872,2.430941343307495
1667776605350575000,10.0905751953125,-3.6176962852478027,-4.112662315368652,3.2697935104370117
1667776605360626200,10.100626220703125,-3.553708076477051,-1.218997836112976,2.8023221492767334
1667776605370678300,10.11067822265625,-2.0235626697540283,2.093296766281128,1.72432279586792
1667776605380729000,10.12072900390625,-0.7489851713180542,3.1014928817749023,0.9442238211631775
1667776605390781200,10.13078125,-0.06270643323659897,2.015685796737671,0.4583098292350769
1667776605400832300,10.140832275390625,0.046602748334407806,-0.007080262526869774,0.520992636680603
1667776605410884000,10.150884033203125,-0.4136638343334198,-1.8641713857650757,1.0526107549667358
1667776605420935200,10.16093505859375,-1.3707890510559082,-2.956312656402588,1.9064457416534424
1667776605430987000,10.170987060546874,-2.4469594955444336,-2.495086431503296,2.6868720054626465
1667776605441038000,10.1810380859375,-3.152988910675049,-0.6029156446456909,2.926421880722046
1667776605451090400,10.19109033203125,-3.193621873855591,1.653424859046936,2.6624016761779785
1667776605461141000,10.20114111328125,-2.7302229404449463,3.8938663005828857,2.3112850189208984
1667776605471192000,10.211192138671874,-1.9711663722991943,5.9847283363342285,2.5375733375549316
1667776605481244400,10.221244384765624,-1.0093944072723389,5.981504917144775,3.2061514854431152
1667776605491295200,10.231295166015625,-0.2213374525308609,2.5296714305877686,3.318824291229248
1667776605501347300,10.241347412109375,-0.0068374075926840305,-1.362231969833374,3.3088183403015137
1667776605511398400,10.2513984375,0.05901651456952095,-3.18254017829895,3.121081590652466
1667776605521450200,10.2614501953125,0.127149760723114,-3.1007354259490967,2.608121633529663
1667776605531501300,10.271501220703126,0.021204009652137756,-1.517961025238037,1.7531181573867798
1667776605541553200,10.28155322265625,-0.18941819667816162,0.7909430265426636,0.9118285775184631
1667776605551604200,10.291604248046875,-0.22699467837810516,2.0810048580169678,0.4218389093875885
1667776605561656300,10.30165625,0.03675893694162369,1.8305846452713013,0.11261393874883652
1667776605571707100,10.31170703125,0.3731388747692108,0.631693422794342,-0.29390230774879456
1667776605581759200,10.32175927734375,0.5382897257804871,-0.4102528691291809,-0.8175192475318909
1667776605591810300,10.331810302734375,0.599745512008667,-0.6286208629608154,-1.2544459104537964
1667776605601862100,10.341862060546875,0.690083384513855,-0.15403708815574646,-1.5094904899597168
1667776605611913200,10.351913330078125,0.7790577411651611,0.5296413898468018,-1.6879128217697144
1667776605621964300,10.36196435546875,0.7960559129714966,1.0674535036087036,-2.015450954437256
1667776605632016100,10.37201611328125,0.7419900298118591,1.449430227279663,-2.445720911026001
1667776605642067200,10.382067138671875,0.6223858594894409,1.654913067817688,-2.7081339359283447
1667776605652119000,10.392119140625,0.5273184776306152,1.7448221445083618,-2.7341413497924805
1667776605662170000,10.402170166015624,0.47253912687301636,1.9036180973052979,-2.7113535404205322
1667776605672222200,10.41222216796875,0.3879435062408447,2.1596498489379883,-2.840676784515381
1667776605682273000,10.42227294921875,0.19825294613838196,2.3516857624053955,-3.111410140991211
1667776605692325000,10.4323251953125,0.05744270235300064,2.316401481628418,-3.393657684326172
1667776605702376200,10.442376220703125,0.019915569573640823,2.0612900257110596,-3.762660264968872
1667776605712428300,10.45242822265625,-0.25010448694229126,1.5366872549057007,-3.9517393112182617
1667776605722479000,10.46247900390625,-0.29308632016181946,0.924015462398529,-3.6949830055236816
1667776605732531200,10.47253125,-0.24940839409828186,-1.014592170715332,-3.4508790969848633
1667776605742582300,10.482582275390625,0.4746185541152954,-3.8698084354400635,-3.4513394832611084
1667776605752634400,10.49263427734375,1.4202516078948975,-5.832122802734375,-3.3097097873687744
1667776605762685200,10.502685302734376,2.0994739532470703,-6.408766269683838,-2.95463490486145
1667776605772736300,10.512736328125,2.317667007446289,-5.479272365570068,-2.621184825897217
1667776605782788400,10.522788330078125,2.0186476707458496,-3.4397194385528564,-2.4996497631073
1667776605792839200,10.532839111328125,1.5525085926055908,-1.2630679607391357,-2.7073984146118164
1667776605802891300,10.542891357421874,1.1591871976852417,0.40477871894836426,-3.1193692684173584
1667776605812942300,10.5529423828125,0.9365077614784241,1.4647420644760132,-3.4116952419281006
1667776605822994200,10.562994140625,0.8493440747261047,2.116320848464966,-3.3447914123535156
1667776605833045200,10.573045166015625,0.8186878561973572,2.383638381958008,-2.9633235931396484
1667776605843097000,10.58309716796875,0.6802449822425842,2.60390043258667,-2.567352294921875
1667776605853148200,10.593148193359376,0.4344600737094879,2.7571051120758057,-2.1710586547851562
1667776605863200300,10.6032001953125,0.22032220661640167,2.7268614768981934,-1.7754783630371094
1667776605873251000,10.6132509765625,0.031819332391023636,2.74149227142334,-1.4201468229293823
1667776605883303200,10.62330322265625,-0.13410545885562897,2.410449266433716,-1.0112082958221436
1667776605893354200,10.633354248046874,-0.17679688334465027,1.5754928588867188,-0.36719828844070435
1667776605903406000,10.643406005859376,-0.17655134201049805,0.6723020076751709,0.5342870354652405
1667776605913457200,10.65345703125,-0.32370758056640625,-0.37638187408447266,1.7091569900512695
1667776605923508200,10.66350830078125,-0.7286021113395691,-1.270415186882019,2.98168683052063
1667776605933560000,10.67356005859375,-1.1498478651046753,-1.8090064525604248,4.077653408050537
1667776605943611100,10.683611083984376,-1.3349859714508057,-1.6914238929748535,4.516386032104492
1667776605953663200,10.693663330078126,-1.2471354007720947,-1.3849087953567505,4.290751934051514
1667776605963714000,10.703714111328125,-1.1595090627670288,-1.4224584102630615,3.903996467590332
1667776605973766400,10.713766357421875,-1.0759023427963257,-1.7216461896896362,3.51595401763916
1667776605983817200,10.723817138671874,-0.9835286736488342,-1.7877812385559082,2.9856228828430176
1667776605993869300,10.733869384765624,-0.6914336681365967,-1.6282315254211426,1.8772623538970947
1667776606003920400,10.74392041015625,0.056483957916498184,-1.3940867185592651,-0.264015793800354
1667776606013972200,10.75397216796875,0.8358874320983887,-0.6182095408439636,-2.0489697456359863
1667776606024023300,10.764023193359375,1.277506709098816,-0.15450334548950195,-1.929572343826294
1667776606034074400,10.774074462890624,1.8298389911651611,-1.6128838062286377,0.33809852600097656
1667776606044126200,10.784126220703126,2.4844298362731934,-5.723598957061768,2.4742348194122314
1667776606054177300,10.79417724609375,1.8597084283828735,-7.989952087402344,3.718418598175049
1667776606064229400,10.8042294921875,0.23685447871685028,-8.366868019104004,3.8429484367370605
1667776606074280200,10.8142802734375,-0.6614591479301453,-6.386137962341309,2.7161142826080322
1667776606084332300,10.824332275390624,-1.123848795890808,-1.1307204961776733,0.4315645098686218
1667776606094383400,10.83438330078125,-1.4361162185668945,2.043952703475952,-0.783738374710083
1667776606104435200,10.844435302734375,-1.667625904083252,2.702794075012207,-0.7480775713920593
1667776606114486300,10.854486328125,-1.8965632915496826,2.441831111907959,-0.1366189569234848
1667776606124538000,10.8645380859375,-2.1699318885803223,1.767392635345459,0.7127536535263062
1667776606134589200,10.874589111328126,-2.6609785556793213,1.1083221435546875,1.4532896280288696
1667776606144641300,10.884641357421875,-2.881035804748535,1.441007137298584,1.821449875831604
1667776606154692000,10.894692138671875,-2.8245737552642822,2.8466403484344482,1.9434834718704224
1667776606164744200,10.904744140625,-3.1033198833465576,5.100356101989746,2.9589879512786865
1667776606174795300,10.914795166015624,-2.6106526851654053,6.8469953536987305,3.8956313133239746
1667776606184847000,10.92484716796875,-1.2444995641708374,7.101658344268799,4.3772358894348145
1667776606194898200,10.934898193359375,0.11938606947660446,5.073314189910889,4.93668270111084
1667776606204949200,10.94494921875,0.7544437646865845,1.1206090450286865,4.927441596984863
1667776606215001000,10.9550009765625,0.8963418006896973,-1.894997477531433,4.4759674072265625
1667776606225052200,10.96505224609375,0.7134577035903931,-2.3416922092437744,3.9971535205841064
1667776606235104300,10.975104248046875,-0.1791941225528717,-1.784126877784729,3.1325786113739014
1667776606245155300,10.9851552734375,-0.9325987100601196,-0.14684046804904938,2.062075138092041
1667776606255207400,10.99520751953125,-1.0555311441421509,1.1437116861343384,1.4676191806793213
1667776606265258200,11.00525830078125,-0.7428545355796814,0.6155921816825867,1.1895692348480225
1667776606275310300,11.015310302734376,-0.5105699896812439,-0.8695075511932373,0.6829136610031128
1667776606285361400,11.025361328125,-0.3124025762081146,-1.925897240638733,-0.09931482374668121
1667776606295413200,11.035413330078125,-0.013459762558341026,-2.278085708618164,-0.9052494764328003
1667776606305464300,11.04546435546875,0.4615011513233185,-2.0353217124938965,-1.5162007808685303
1667776606315516200,11.05551611328125,1.1250741481781006,-1.447950005531311,-1.8711737394332886
1667776606325567200,11.065567138671875,1.7183809280395508,-0.9928722381591797,-2.0628414154052734
1667776606335618300,11.075618408203125,2.006821393966675,-0.758756697177887,-2.391763687133789
1667776606345670100,11.085670166015625,1.8281292915344238,-0.23134563863277435,-2.9355428218841553
1667776606355721200,11.09572119140625,1.2980632781982422,1.3266900777816772,-3.198357105255127
1667776606365773300,11.105773193359376,0.8410623669624329,3.3995776176452637,-2.8151426315307617
1667776606375824100,11.11582421875,0.5027561187744141,4.531532287597656,-2.4339048862457275
1667776606385876200,11.125876220703125,0.2623685896396637,4.471713542938232,-2.5793778896331787
1667776606395927300,11.13592724609375,0.0813404768705368,3.9845192432403564,-3.2194671630859375
1667776606405979100,11.145979248046874,0.031342294067144394,3.5666139125823975,-3.9709556102752686
1667776606416030200,11.1560302734375,0.0687863752245903,3.3840816020965576,-4.776933193206787
1667776606426082000,11.16608203125,-0.2072172462940216,3.1846375465393066,-5.030027389526367
1667776606436133000,11.176133056640625,-0.4154185950756073,2.2163233757019043,-4.023969650268555
1667776606446185200,11.186185302734375,-0.7485494613647461,-0.9486137628555298,-3.3741815090179443
1667776606456236000,11.196236083984376,-0.2256762832403183,-5.512067794799805,-3.623898506164551
1667776606466288400,11.206288330078126,0.8736456632614136,-8.830659866333008,-3.775193452835083
1667776606476339500,11.21633935546875,1.8921633958816528,-9.54146671295166,-3.4429075717926025
1667776606486390000,11.22639013671875,2.319730043411255,-7.14159631729126,-2.991239070892334
1667776606496442400,11.2364423828125,2.0757484436035156,-3.0435218811035156,-2.8906264305114746
1667776606506493400,11.246493408203126,1.5367801189422607,0.2946161925792694,-3.1824138164520264
1667776606516545300,11.256545166015625,1.2829431295394897,1.4824484586715698,-3.4518940448760986
1667776606526596400,11.266596435546875,1.2675186395645142,1.4558106660842896,-3.3247294425964355
1667776606536648200,11.276648193359375,1.1129064559936523,1.3501818180084229,-2.888850450515747
1667776606546699300,11.28669921875,0.7425197958946228,2.103040933609009,-2.4470441341400146
1667776606556751400,11.29675146484375,0.3456665277481079,3.0885605812072754,-2.098144769668579
1667776606566802200,11.30680224609375,0.09605029225349426,3.72946834564209,-1.7919062376022339
1667776606576854300,11.316854248046875,-0.03481336310505867,3.88238787651062,-1.4898000955581665
1667776606586905300,11.3269052734375,-0.17600244283676147,3.5098345279693604,-1.0839329957962036
1667776606596957200,11.336957275390626,-0.3740726113319397,2.7453317642211914,-0.6141580939292908
1667776606607008300,11.34700830078125,-0.5749769806861877,1.323830485343933,-0.08169259130954742
1667776606617060000,11.35706005859375,-0.5868538618087769,-0.6927525401115417,0.6618199348449707
1667776606627111200,11.367111083984375,-0.5890544056892395,-2.7113022804260254,1.6544264554977417
1667776606637162200,11.377162353515626,-0.8340520262718201,-3.6871378421783447,2.857156276702881
1667776606647214000,11.387214111328126,-1.1880912780761719,-3.094571828842163,3.9991097450256348
1667776606657265200,11.39726513671875,-1.3215339183807373,-1.8144131898880005,4.469181060791016
1667776606667317200,11.407317138671875,-1.0779870748519897,-0.7063933610916138,4.2739644050598145
1667776606677368000,11.4173681640625,-0.7681517004966736,-0.4718306362628937,3.891497850418091
1667776606687420200,11.427420166015626,-0.560548722743988,-0.5110784769058228,3.554560422897339
1667776606697471200,11.43747119140625,-0.5136236548423767,-0.13984012603759766,3.1920807361602783
1667776606707523000,11.447523193359375,-0.3955313563346863,0.6585882902145386,2.5685601234436035
1667776606717574100,11.45757421875,0.16802099347114563,0.9530380964279175,1.2600276470184326
1667776606727626200,11.467626220703124,0.9349985718727112,-1.024635672569275,0.1228346973657608
1667776606737677300,11.47767724609375,1.2675780057907104,-3.229609727859497,0.31841912865638733
1667776606747729400,11.4877294921875,1.5112438201904297,-3.954564094543457,0.7154341340065002
1667776606757780200,11.4977802734375,1.4279857873916626,-4.537374019622803,1.2815965414047241
1667776606767832300,11.507832275390625,0.9425453543663025,-5.420230865478516,2.024601697921753
1667776606777883400,11.51788330078125,-0.2608289122581482,-6.554831504821777,2.3197195529937744
1667776606787934200,11.527934326171875,-2.0892043113708496,-5.376376152038574,2.07651424407959
1667776606797986300,11.537986328125,-2.819779872894287,-1.381182312965393,1.5466314554214478
1667776606808037400,11.548037353515625,-2.3470916748046875,2.1400632858276367,0.972864031791687
1667776606818089200,11.558089111328124,-1.8009626865386963,2.894986152648926,0.7481315732002258
1667776606828140300,11.568140380859376,-1.7226108312606812,2.2927422523498535,0.6646678447723389
1667776606838192000,11.578192138671875,-2.1526975631713867,1.920108437538147,0.5852602124214172
1667776606848243200,11.5882431640625,-2.8895444869995117,2.9246222972869873,0.783124566078186
1667776606858295300,11.59829541015625,-3.40431547164917,4.380129337310791,1.58730947971344
1667776606868346000,11.60834619140625,-3.2122366428375244,5.365139484405518,2.591181993484497
1667776606878398200,11.618398193359376,-2.3209609985351562,6.095175266265869,3.610050678253174
1667776606888449300,11.62844921875,-1.095310091972351,5.936775207519531,4.526289463043213
1667776606898501000,11.638501220703125,-0.02108963392674923,3.6279079914093018,5.104255676269531
1667776606908552200,11.64855224609375,0.5955482721328735,0.02985379844903946,4.777024745941162
1667776606918604000,11.65860400390625,0.6221694350242615,-2.5761237144470215,3.9039480686187744
1667776606928655000,11.668655029296875,0.40356630086898804,-2.8670341968536377,3.1296377182006836
1667776606938706200,11.6787060546875,-0.24338310956954956,-1.2717355489730835,2.3624448776245117
1667776606948758000,11.688758056640625,-0.7152526378631592,0.367776483297348,1.6653555631637573
1667776606958809000,11.69880908203125,-0.75215083360672,1.1257920265197754,1.2036421298980713
1667776606968861200,11.708861083984376,-0.5630746483802795,0.6495698690414429,0.6984021067619324
1667776606978912000,11.718912109375,-0.232352152466774,-0.4434015154838562,0.01754686050117016
1667776606988964000,11.728964111328125,0.1464412361383438,-1.6033743619918823,-0.6661787629127502
1667776606999015200,11.73901513671875,0.6698594093322754,-2.592872142791748,-1.2848787307739258
1667776607009067000,11.74906689453125,1.3442542552947998,-3.054983615875244,-1.6395615339279175
1667776607019118000,11.7591181640625,1.9853472709655762,-2.4802026748657227,-1.6256260871887207
1667776607029170000,11.769169921875,2.450254440307617,-1.308107614517212,-1.545128345489502
1667776607039221000,11.779220947265625,2.598200798034668,-0.24643921852111816,-1.868363857269287
1667776607049273300,11.7892734375,2.267876386642456,0.6715843677520752,-2.7200634479522705
1667776607059324000,11.799323974609376,1.5186517238616943,2.182526111602783,-3.174724817276001
1667776607069375000,11.809375,0.8385617733001709,3.967254877090454,-2.6544790267944336
1667776607079427300,11.81942724609375,0.47252190113067627,4.934896469116211,-2.3535614013671875
1667776607089478100,11.82947802734375,0.27523866295814514,4.929431438446045,-2.766601085662842
1667776607099530200,11.8395302734375,0.1464231014251709,4.361117362976074,-3.4963157176971436
1667776607109581300,11.849581298828125,0.05269714444875717,3.6740219593048096,-4.056222438812256
1667776607119633200,11.859633056640625,0.03809863328933716,2.75885272026062,-4.234269142150879
1667776607129684200,11.869684326171875,-0.039840374141931534,1.691296100616455,-4.279972076416016
1667776607139736000,11.879736083984374,-0.22566188871860504,0.5661528706550598,-3.7899792194366455
1667776607149787100,11.889787109375,-0.4297868013381958,-1.2945433855056763,-3.193108558654785
1667776607159839200,11.899839111328125,-0.49894094467163086,-4.50399112701416,-3.124018669128418
1667776607169890000,11.90989013671875,0.45267629623413086,-7.768632411956787,-3.302131175994873
1667776607179942100,11.919942138671875,1.8674927949905396,-9.21035099029541,-3.2626147270202637
1667776607189993200,11.9299931640625,2.929651975631714,-8.1846342086792,-2.865703821182251
1667776607200045000,11.940045166015626,3.0495259761810303,-4.910000324249268,-2.5076208114624023
1667776607210096000,11.95009619140625,2.4477908611297607,-1.3105525970458984,-2.4630239009857178
1667776607220148000,11.96014794921875,1.8232150077819824,0.564681887626648,-2.4984445571899414
1667776607230199000,11.970198974609374,1.5279980897903442,1.585821509361267,-2.5193047523498535
1667776607240250000,11.98025,1.2228734493255615,2.291231632232666,-2.3648366928100586
1667776607250302000,11.990302001953125,0.8933256268501282,3.0891337394714355,-2.090640068054199
1667776607260353000,12.00035302734375,0.5130428671836853,3.9546165466308594,-1.8690756559371948
1667776607270405000,12.010405029296875,0.003113861894235015,4.481502056121826,-1.68990957736969
1667776607280456200,12.020456298828124,-0.4335649311542511,4.5300726890563965,-1.4247379302978516
1667776607290508000,12.030508056640626,-0.7264834046363831,4.248672008514404,-1.0320460796356201
1667776607300559000,12.04055908203125,-0.9338563680648804,3.3435657024383545,-0.5507017374038696
1667776607310611200,12.050611083984375,-1.0357632637023926,1.8490819931030273,0.08086106926202774
1667776607320662000,12.060662109375,-1.0041708946228027,0.24759270250797272,0.9612977504730225
1667776607330714000,12.070714111328124,-0.9885607361793518,-1.3083444833755493,2.2009801864624023
1667776607340765200,12.08076513671875,-1.2094372510910034,-2.525404930114746,3.6877706050872803
1667776607350817300,12.0908173828125,-1.5465627908706665,-3.1539249420166016,4.993198394775391
1667776607360868000,12.1008681640625,-1.7258039712905884,-2.7641408443450928,5.354443073272705
1667776607370920200,12.110920166015624,-1.440478801727295,-2.0047826766967773,4.9132490158081055
1667776607380971300,12.12097119140625,-1.0965611934661865,-1.68820059299469,4.268082618713379
1667776607391022000,12.13102197265625,-0.8670236468315125,-1.419266700744629,3.520843505859375
1667776607401074200,12.14107421875,-0.681899905204773,-0.5560964345932007,2.6775617599487305
1667776607411125200,12.151125244140625,-0.4799649119377136,0.9704117774963379,1.7406336069107056
1667776607421177000,12.161177001953124,0.01350973080843687,1.97702956199646,0.23935866355895996
1667776607431228200,12.171228271484376,0.8715969920158386,0.7355416417121887,-1.211743712425232
1667776607441280000,12.181280029296875,1.3578026294708252,-1.933002233505249,-0.945042610168457
1667776607451331000,12.1913310546875,1.4867862462997437,-3.9364569187164307,0.6072172522544861
1667776607461383200,12.201383056640625,1.6318848133087158,-5.1940083503723145,1.781226396560669
1667776607471434200,12.211434326171876,1.543933629989624,-6.055405616760254,2.276188850402832
1667776607481486000,12.221486083984376,0.9192960262298584,-6.595920085906982,2.6860921382904053
1667776607491537200,12.231537109375,-0.7601519227027893,-7.129605770111084,2.6495089530944824
1667776607501589000,12.241589111328125,-2.7557339668273926,-4.262893199920654,1.498650074005127
1667776607511640000,12.25164013671875,-3.514317512512207,2.9344301223754883,-0.618985116481781
1667776607521692200,12.261692138671876,-3.0213308334350586,4.594758033752441,-0.8909289836883545
1667776607531743000,12.271742919921875,-2.5677905082702637,3.7384188175201416,-0.6441894769668579
1667776607541794000,12.2817939453125,-2.2840540409088135,2.658435583114624,-0.37957462668418884
1667776607551846100,12.29184619140625,-2.1326282024383545,2.466416358947754,-0.008431712165474892
1667776607561897000,12.30189697265625,-2.19246506690979,3.3880746364593506,1.0370374917984009
1667776607571949300,12.31194921875,-2.1578686237335205,4.437005519866943,2.426851987838745
1667776607582000000,12.322000244140625,-1.6645833253860474,5.225620746612549,3.735628128051758
1667776607592052200,12.33205224609375,-0.7113474607467651,5.457113265991211,4.760111331939697
1667776607602103300,12.342103271484374,0.09876339137554169,4.527821063995361,5.302985191345215
1667776607612155100,12.352155029296876,0.5036493539810181,1.8685405254364014,4.96543550491333
1667776607622206200,12.362206298828125,0.7589961886405945,-0.78041011095047,3.987262010574341
1667776607632258300,12.37225830078125,1.0458426475524902,-1.7528308629989624,3.3882102966308594
1667776607642309000,12.38230908203125,0.7749476432800293,-1.3640080690383911,3.1344106197357178
1667776607652361200,12.392361328125,-0.1264261156320572,-0.3170093894004822,2.6900343894958496
1667776607662412300,12.402412353515626,-0.8167891502380371,0.5564274787902832,2.3406097888946533
1667776607672464100,12.412464111328125,-0.913711428642273,0.4736967086791992,1.9803543090820312
1667776607682515200,12.42251513671875,-0.6553560495376587,-0.3442016839981079,1.4084481000900269
1667776607692566300,12.432566162109374,-0.5460127592086792,-1.5588401556015015,0.6879943609237671
1667776607702618000,12.4426181640625,-0.475889652967453,-2.586390972137451,-0.09072854369878769
1667776607712669200,12.452669189453125,-0.25341182947158813,-3.072777509689331,-0.8964216113090515
1667776607722721000,12.462720947265625,0.16041536629199982,-2.890890121459961,-1.434096336364746
1667776607732772000,12.472772216796875,0.7346451282501221,-2.1416618824005127,-1.5924923419952393
1667776607742824200,12.48282421875,1.4089893102645874,-1.4856433868408203,-1.6708818674087524
1667776607752875000,12.492875,1.9463504552841187,-1.2032018899917603,-1.9902883768081665
1667776607762927000,12.502927001953125,2.1196701526641846,-0.7772840857505798,-2.481180429458618
1667776607772978200,12.512978271484375,1.8677126169204712,0.1832568347454071,-2.818776845932007
1667776607783030000,12.523030029296875,1.3022687435150146,1.8606184720993042,-3.007991313934326
1667776607793081000,12.5330810546875,0.9206886887550354,4.043137550354004,-2.8859481811523438
1667776607803133200,12.54313330078125,0.6909452080726624,5.431583881378174,-2.5904529094696045
1667776607813184000,12.55318408203125,0.5747458934783936,5.315972805023193,-2.615934371948242
1667776607823236400,12.563236328125,0.6131801009178162,4.520589351654053,-3.1158621311187744
1667776607833287200,12.573287109375,0.7624185681343079,3.907587766647339,-3.9099740982055664
1667776607843338200,12.583338134765626,0.6324028372764587,3.4795713424682617,-4.755979061126709
1667776607853390300,12.593390380859375,0.46632808446884155,2.9371044635772705,-4.263330936431885
1667776607863441200,12.603441162109375,0.17675863206386566,1.0977561473846436,-3.3676891326904297
