sep=;
ACCELEROMETER X (m/s²);ACCELEROMETER Y (m/s²);ACCELEROMETER Z (m/s²);GRAVITY X (m/s²);GRAVITY Y (m/s²);GRAVITY Z (m/s²);LINEAR ACCELERATION X (m/s²);LINEAR ACCELERATION Y (m/s²);LINEAR ACCELERATION Z (m/s²);GYROSCOPE X (rad/s);GYROSCOPE Y (rad/s);GYROSCOPE Z (rad/s);LIGHT (lux);MAGNETIC FIELD X (μT);MAGNETIC FIELD Y (μT);MAGNETIC FIELD Z (μT);ORIENTATION Z (azimuth °);ORIENTATION X (pitch °);ORIENTATION Y (roll °);PROXIMITY (i);LOCATION Latitude : ;LOCATION Longitude : ;LOCATION Altitude ( m);LOCATION Altitude-google ( m);LOCATION Speed ( Kmh);LOCATION Accuracy ( m);LOCATION ORIENTATION (°);Satellites in range;Time since start in ms ;YYYY-MO-DD HH-MI-SS_SSS
-1.1082;5.7069;7.2966;-0.585;5.4323;8.1436;-0.465;0.4186;-0.4844;-0.631;-0.3658;0.473;22.4;21.3;-10.05;-25.41;292.76;-35.38;6.4;2.0;35.95832;-83.92443;820.25;NaN;0.0;23.290382;;0 / 0;6;2022-10-28 13:55:02:803
-1.6528;3.2701;10.3798;-1.3869;2.8878;9.2686;0.0506;-0.146;1.4322;-0.0953;0.1687;0.6849;22.4;20.57;-12.36;-28.13;261.65;-17.05;8.78;2.0;35.95832;-83.92443;820.25;NaN;0.0;23.290382;;0 / 0;506;2022-10-28 13:55:03:303
11.4506;-7.049;4.1219;8.5693;-4.097;2.4396;4.2981;-3.8929;1.4605;1.8787;-1.948;3.888;25.1;4.52;-20.46;-33.26;238.94;24.69;-74.11;2.0;35.95832;-83.92443;820.25;NaN;0.0;23.290382;;0 / 0;1007;2022-10-28 13:55:03:804
10.7845;-9.5118;1.145;8.1694;-5.2473;-1.3776;0.7355;-2.9925;1.2504;-0.2624;0.4352;-0.6447;6.5;-38.18;-19.95;-16.71;213.49;34.68;-100.69;0.0;35.95832;-83.92443;820.25;NaN;0.0;23.290382;;0 / 0;1506;2022-10-28 13:55:04:303
12.8871;-3.0942;-0.1283;8.8174;-4.2921;0.0274;2.8321;2.6417;0.249;-0.231;-0.1747;0.0752;0.0;-46.87;-29.76;2.4;176.01;26.17;-88.38;0.0;35.95832;-83.92443;820.25;NaN;0.0;23.290382;;0 / 0;2005;2022-10-28 13:55:04:802
8.7045;-1.5616;-3.8731;8.3238;-4.1986;-3.0425;-3.5927;-0.2753;2.1521;-0.1053;0.8826;-0.4808;0.0;-50.02;-24.6;17.36;185.0;26.62;-113.14;0.0;35.95832;-83.92443;820.25;NaN;0.0;23.290382;;0 / 0;2506;2022-10-28 13:55:05:303
1.7937;-6.5489;-1.4468;5.3049;-7.9317;-2.2618;-3.3119;-1.065;2.1573;0.3757;0.7076;-0.9132;0.0;-56.38;-3.75;19.52;184.05;53.98;-113.09;2.0;35.95832;-83.92443;820.25;NaN;0.0;23.290382;;0 / 0;3006;2022-10-28 13:55:05:803
9.4101;-10.0487;-0.574;6.9692;-6.6661;-1.7785;2.5235;-3.7874;1.5787;0.1434;-0.5301;0.3351;0.0;-61.99;3.98;7.65;187.42;42.29;-102.01;2.0;35.95832;-83.92443;820.25;NaN;0.0;23.290382;;0 / 0;3506;2022-10-28 13:55:06:303
4.4599;-7.5356;-3.236;5.2714;-7.9824;-2.1599;0.4733;-0.2203;-0.5397;0.6738;-0.8357;-0.0411;0.0;-60.73;4.29;5.01;202.33;53.67;-112.13;0.0;35.95832;-83.92443;820.25;NaN;0.0;23.290382;;0 / 0;4005;2022-10-28 13:55:06:802
4.7148;-5.1245;-1.6842;6.7432;-6.6308;-2.5947;-2.6443;1.171;1.7812;0.0815;0.382;-0.2794;0.0;-61.65;2.44;-5.08;217.57;44.27;-112.73;0.0;35.95832;-83.92443;820.25;NaN;0.0;23.290382;;0 / 0;4506;2022-10-28 13:55:07:303
8.0441;-7.4345;-3.8001;7.1962;-6.4563;-1.6439;0.2408;-0.5882;-1.3217;-0.1348;-0.3953;0.0574;0.0;-65.66;-12.86;-19.71;214.79;41.17;-102.87;0.0;35.95832;-83.92443;820.25;NaN;0.0;23.290382;;0 / 0;5006;2022-10-28 13:55:07:803
4.2224;-6.5886;-2.1891;6.1106;-7.2173;-2.5965;-1.8884;0.9478;0.8661;0.3279;0.0101;0.5415;0.0;-70.54;-14.74;-25.09;224.84;47.39;-113.02;0.0;35.95832;-83.92443;820.25;NaN;0.0;23.290382;;0 / 0;5505;2022-10-28 13:55:08:302
6.559;-8.3518;-0.9628;6.2727;-7.1617;-2.3525;0.419;-2.2659;1.522;0.4184;-0.9435;-1.3409;0.0;-70.84;-12.09;-33.07;227.43;50.68;-109.81;2.0;35.95832;-83.92443;820.25;NaN;0.0;23.290382;;0 / 0;6005;2022-10-28 13:55:08:802
9.2237;-4.7312;-3.7292;8.3653;-4.6581;-2.12;-0.0304;0.0871;-0.7671;-0.1039;0.1577;-0.0077;0.0;-68.62;-36.09;-32.03;219.88;28.71;-105.76;2.0;35.95832;-83.92443;820.25;NaN;0.0;23.290382;;0 / 0;6506;2022-10-28 13:55:09:303
6.099;-5.6943;-1.3618;7.1941;-6.1944;-2.4586;-1.6181;1.8259;0.3827;0.6417;-0.2981;0.5845;0.0;-67.87;-36.9;-32.53;220.37;39.17;-108.87;2.0;35.95832;-83.92443;820.25;NaN;0.0;23.290382;;0 / 0;7005;2022-10-28 13:55:09:802
8.7281;-4.4815;-1.0169;7.7954;-5.2786;-2.7456;1.4306;-2.7416;-0.0753;-1.0246;1.0095;-0.713;0.0;-68.44;-32.87;-22.28;216.58;32.57;-109.4;2.0;35.95832;-83.92443;820.25;NaN;0.0;23.290382;;0 / 0;7506;2022-10-28 13:55:10:303
8.6315;-3.4235;-3.4119;8.7628;-3.9933;-1.854;0.0219;0.4924;-1.3122;-0.3152;0.3694;-0.021;0.0;-54.99;-42.66;-38.4;220.33;24.45;-102.69;2.0;35.95832;-83.92443;820.25;NaN;0.0;23.290382;;0 / 0;8006;2022-10-28 13:55:10:803
5.5618;-5.6142;0.2731;8.1464;-5.0637;-2.0407;-2.4936;-0.6264;2.3154;-1.5173;0.4439;0.5188;0.0;-51.32;-35.48;-40.33;224.14;30.14;-101.91;0.0;35.95832;-83.92443;820.25;NaN;0.0;23.290382;;0 / 0;8505;2022-10-28 13:55:11:302
9.4481;-6.676;-2.5857;7.7711;-4.9463;-3.3638;2.5122;-4.2163;-1.265;-1.0442;-0.3525;0.3419;0.0;-57.97;-21.88;-34.74;234.86;30.29;-113.41;0.0;35.95832;-83.92443;820.25;NaN;0.0;23.290382;;0 / 0;9005;2022-10-28 13:55:11:802
8.9551;-3.4507;-5.3895;8.119;-4.552;-3.0874;-0.8558;-0.1738;-0.4764;-0.7251;0.6832;0.3451;0.0;-59.53;-14.83;-16.12;225.75;27.28;-111.77;0.0;35.95832;-83.92443;820.25;NaN;0.0;23.290382;;0 / 0;9506;2022-10-28 13:55:12:303
7.1809;-4.1509;-4.0825;7.807;-5.3201;-2.6302;-0.4857;1.196;-2.1633;-0.0283;0.4894;0.2945;0.0;-53.18;2.74;-13.01;234.54;32.01;-109.87;0.0;35.95832;-83.92443;820.25;NaN;0.0;23.290382;;0 / 0;10006;2022-10-28 13:55:12:803
7.6657;-4.1426;2.0001;8.6783;-4.561;0.2329;-0.8945;0.413;1.8559;-0.7542;2.8263;0.0347;0.0;-50.12;3.39;-8.78;215.76;27.68;-96.25;0.0;35.95832;-83.92443;820.25;NaN;0.0;23.290382;;0 / 0;10505;2022-10-28 13:55:13:302
11.5926;-5.1362;-2.0118;8.7483;-3.9325;-2.0426;2.1009;-0.4936;-0.7526;-0.1839;-0.1442;0.3279;0.0;-46.48;3.21;-7.41;228.67;23.17;-101.92;0.0;35.95832;-83.92443;820.25;NaN;0.0;23.290382;;0 / 0;11007;2022-10-28 13:55:13:804
6.3422;-3.1863;-0.0832;7.7586;-5.3378;2.7352;1.3106;-0.6476;-0.6471;-0.1144;2.4687;-0.4806;0.0;-39.68;11.06;-16.71;181.0;34.51;-67.33;0.0;35.95832;-83.92443;820.25;NaN;0.0;23.290382;;0 / 0;11505;2022-10-28 13:55:14:302
7.6164;-2.3836;3.8521;8.1185;-4.2763;3.4603;-0.7397;1.9921;1.2742;-0.2656;-1.1102;-0.1551;0.0;-33.45;7.93;-30.73;233.95;25.85;-66.92;0.0;35.95832;-83.92443;820.25;NaN;0.0;23.290382;;0 / 0;12006;2022-10-28 13:55:14:803
9.1125;-3.4555;2.8071;8.6388;-3.7167;2.7797;0.7908;0.0796;0.2032;0.1813;0.2337;0.0214;0.0;-36.32;7.48;-27.99;237.57;22.16;-71.73;0.0;35.95832;-83.92443;820.25;NaN;0.0;23.290382;;0 / 0;12505;2022-10-28 13:55:15:302
5.6722;-4.7695;1.4013;8.1652;-5.1972;1.5776;-2.1246;0.6336;0.0078;0.1377;-0.2036;0.3108;0.0;-33.28;11.59;-30.49;247.22;31.02;-78.25;0.0;35.95832;-83.92443;820.25;NaN;0.0;23.290382;;0 / 0;13006;2022-10-28 13:55:15:803
7.0334;-5.5229;5.6686;6.3454;-5.0856;5.4811;0.8365;-0.2423;-0.5749;0.4657;0.6085;-0.1973;0.0;-24.99;12.08;-38.61;220.28;33.08;-47.87;0.0;35.95832;-83.92443;820.25;NaN;0.0;23.290382;;0 / 0;13505;2022-10-28 13:55:16:302
7.3714;-3.2112;1.9801;8.4044;-4.2839;2.6806;-1.3863;0.9077;0.3443;-0.5353;-0.9495;-0.2675;0.0;-21.69;8.16;-42.66;257.39;25.9;-72.31;0.0;35.95832;-83.92443;820.25;NaN;0.0;23.290382;;0 / 0;14006;2022-10-28 13:55:16:803
10.2197;-3.8731;0.0733;8.9955;-3.7446;1.1087;0.9755;-0.184;-0.1915;-0.2872;-0.5017;0.0451;0.0;-31.65;12.39;-36.77;264.16;21.99;-79.71;0.0;35.95832;-83.92443;820.25;NaN;0.0;23.290382;;0 / 0;14506;2022-10-28 13:55:17:303
6.9712;-4.223;0.8779;8.3495;-5.0649;0.8966;-1.3576;0.9587;0.3141;-0.1676;-1.189;0.3208;0.0;-30.99;18.99;-35.08;265.86;30.25;-79.75;0.0;35.95832;-83.92443;820.25;NaN;0.0;23.290382;;0 / 0;15006;2022-10-28 13:55:17:803
9.1944;-6.5273;4.328;7.1192;-4.9185;4.6147;1.9355;-1.6374;-0.1079;-0.1994;-0.452;-0.8028;0.0;-19.78;17.57;-42.15;253.71;32.02;-53.78;0.0;35.95832;-83.92443;820.25;NaN;0.0;23.290382;;0 / 0;15506;2022-10-28 13:55:18:303
8.6127;-3.347;0.0084;8.9358;-4.0392;0.0799;-1.6495;1.3208;-0.666;-0.4349;0.1654;-0.3392;0.0;-20.44;28.35;-39.71;293.28;24.32;-89.49;0.0;35.95832;-83.92443;820.25;NaN;0.0;23.290382;;0 / 0;16006;2022-10-28 13:55:18:803
8.0016;-4.5793;3.0589;8.735;-4.2669;1.2894;-0.9727;-0.0909;-0.2895;0.39;1.1135;0.4003;0.0;-25.18;35.31;-38.29;299.53;24.38;-87.08;0.0;35.95832;-83.92443;820.25;NaN;0.0;23.290382;;0 / 0;16506;2022-10-28 13:55:19:303
5.7643;-5.9261;5.1491;7.1438;-5.1301;4.338;-0.7531;0.0923;0.89;0.4069;0.569;0.2398;0.0;-8.76;39.17;-49.91;293.46;31.23;-64.03;0.0;35.95832;-83.92443;820.25;NaN;0.0;23.290382;;0 / 0;17006;2022-10-28 13:55:19:803
7.4761;-2.0767;0.9401;8.8751;-4.1414;0.5017;-0.9735;2.2129;0.5108;-0.8531;-0.9121;-0.2291;0.0;-0.79;39.06;-59.85;297.78;25.66;-82.33;0.0;35.95832;-83.92443;820.25;NaN;0.0;23.290382;;0 / 0;17506;2022-10-28 13:55:20:303
12.4511;-3.99;0.7253;9.06;-3.6451;0.8943;0.9174;-0.35;-0.8509;-0.1871;-0.4024;0.057;0.0;-17.14;42.26;-58.37;298.62;21.82;-84.36;0.0;35.95832;-83.92443;820.25;NaN;0.0;23.290382;;0 / 0;18006;2022-10-28 13:55:20:803
8.8732;-3.7813;-2.7993;8.4968;-4.7328;1.2553;0.1345;0.5116;-1.3486;0.771;-0.5816;-0.057;0.0;-13.93;31.91;-58.54;286.97;28.86;-81.6;0.0;35.95832;-83.92443;820.25;NaN;0.0;23.290382;;0 / 0;18506;2022-10-28 13:55:21:303
8.7586;-4.8975;7.6412;8.0387;-4.0953;3.8443;1.9569;-2.1305;4.0485;-0.8146;-0.968;-0.782;0.0;-6.69;22.82;-54.99;278.2;26.03;-61.61;0.0;35.95832;-83.92443;820.25;NaN;0.0;23.290382;;0 / 0;19007;2022-10-28 13:55:21:804
8.1715;-2.7781;-4.561;9.0652;-3.4077;-1.5427;-0.8892;0.2017;0.7939;-1.3657;-1.5301;-0.0999;0.0;-26.96;29.19;-34.82;296.38;21.05;-92.29;0.0;35.95832;-83.92443;820.25;NaN;0.0;23.290382;;0 / 0;19506;2022-10-28 13:55:22:303
6.6467;-4.4994;3.8827;8.6663;-4.334;1.5104;-2.3288;-2.7119;3.0532;-1.7065;0.9528;0.0937;0.0;-31.5;36.81;-6.88;355.72;26.23;-80.11;0.0;35.95832;-83.92443;820.25;NaN;0.0;23.290382;;0 / 0;20006;2022-10-28 13:55:22:803
11.3037;-7.6137;-2.9638;8.7092;-4.014;-2.0513;1.5885;-2.8202;-2.608;-0.0078;0.0684;-0.0747;0.0;-25.72;34.82;12.51;18.2;24.16;-103.25;0.0;35.95832;-83.92443;820.25;NaN;0.0;23.290382;;0 / 0;20506;2022-10-28 13:55:23:303
9.221;-3.4137;-2.4676;8.8701;-3.7564;-1.8385;-0.3883;-0.4121;-1.3027;-0.4116;0.2694;0.3056;0.0;-29.42;19.61;23.29;69.13;21.68;-101.45;0.0;35.95832;-83.92443;820.25;NaN;0.0;23.290382;;0 / 0;21006;2022-10-28 13:55:23:803
8.2786;-3.1723;0.8312;8.8283;-4.2698;0.0095;-0.9516;1.148;2.1455;-1.4694;-1.0778;0.2037;0.0;-32.76;9.56;26.93;100.16;25.55;-88.8;0.0;35.95832;-83.92443;820.25;NaN;0.0;23.290382;;0 / 0;21507;2022-10-28 13:55:24:304
7.8772;-4.0343;2.2208;8.7858;-4.0663;-1.5637;0.5449;-2.0773;0.5247;-0.0208;1.3844;-0.1205;0.0;-28.95;10.24;28.39;101.98;24.5;-100.09;0.0;35.95832;-83.92443;820.25;NaN;0.0;23.290382;;0 / 0;22007;2022-10-28 13:55:24:804
8.7102;-3.0511;-1.9499;9.2635;-2.9973;-1.1722;-0.4876;0.3301;-2.6061;-0.6672;1.0571;0.0705;0.0;-34.95;6.41;17.98;112.55;17.8;-97.21;0.0;35.95832;-83.92443;820.25;NaN;0.0;23.290382;;0 / 0;22506;2022-10-28 13:55:25:303
6.804;-4.6095;5.2241;8.1916;-4.7012;2.6393;-0.8468;0.211;3.0651;0.6965;0.9764;0.6716;0.0;-41.74;-4.26;6.28;146.16;27.02;-78.1;0.0;35.95832;-83.92443;820.25;NaN;0.0;23.290382;;0 / 0;23006;2022-10-28 13:55:25:803
11.6103;-5.5998;3.1125;7.9685;-4.5935;3.4019;1.4871;-1.0672;0.4063;0.0577;-0.6809;-0.5525;0.0;-41.72;4.05;-8.23;137.98;30.16;-58.66;0.0;35.95832;-83.92443;820.25;NaN;0.0;23.290382;;0 / 0;23506;2022-10-28 13:55:26:303
8.7338;-3.1325;1.1198;9.0601;-3.4975;1.3611;-0.1614;0.6416;0.44;-0.8805;-0.2307;-0.3332;0.0;-44.47;-2.23;-9.62;190.6;20.89;-81.46;0.0;35.95832;-83.92443;820.25;NaN;0.0;23.290382;;0 / 0;24005;2022-10-28 13:55:26:802
6.4807;-4.1049;3.3951;8.9332;-3.9321;0.9521;-0.3163;0.4479;-0.9163;0.7373;2.419;0.5677;0.0;-48.56;-8.72;-4.91;179.55;23.64;-83.92;0.0;35.95832;-83.92443;820.25;NaN;0.0;23.290382;;0 / 0;24507;2022-10-28 13:55:27:304
8.3617;-5.333;5.1482;7.2658;-4.6848;4.6294;-0.0037;-1.3002;1.495;-0.1084;-0.586;-0.5627;0.0;-53.44;-0.53;-9.15;137.42;29.83;-55.03;0.0;35.95832;-83.92443;820.25;NaN;0.0;23.290382;;0 / 0;25006;2022-10-28 13:55:27:803
8.5591;-2.924;1.4034;9.0605;-3.4186;1.5461;-1.3503;0.4453;0.5577;0.1729;-0.0015;-0.2201;0.0;-55.8;-0.49;-12.62;187.87;21.56;-79.84;0.0;35.95832;-83.92443;820.25;NaN;0.0;23.290382;;0 / 0;25506;2022-10-28 13:55:28:303
7.8404;-4.2485;4.0175;8.865;-3.712;1.9501;-0.2092;-1.1551;-0.0091;0.3874;1.3318;0.6223;0.0;-56.32;-3.56;-9.45;172.65;22.24;-77.59;0.0;35.95832;-83.92443;820.25;NaN;0.0;23.290382;;0 / 0;26006;2022-10-28 13:55:28:803
9.3072;-5.3369;3.7472;7.1079;-4.6726;4.88;-0.7977;-0.2293;1.1077;0.1807;0.5666;-0.1047;0.0;-55.31;3.98;-19.29;155.5;28.86;-60.07;0.0;35.95832;-83.92443;820.25;NaN;0.0;23.290382;;0 / 0;26506;2022-10-28 13:55:29:303
7.9702;-2.8789;0.9132;8.9438;-3.375;2.1881;-1.0161;0.5192;-1.3406;-0.2934;0.2933;-0.2827;0.0;-53.61;0.54;-25.03;210.99;20.85;-76.7;0.0;35.95832;-83.92443;820.25;NaN;0.0;23.290382;;0 / 0;27006;2022-10-28 13:55:29:803
7.9639;-4.3696;4.3005;8.3793;-4.1349;2.9766;-0.4653;-0.3036;1.5114;0.2529;0.4313;0.418;0.0;-54.32;-3.07;-26.38;195.93;23.84;-71.61;0.0;35.95832;-83.92443;820.25;NaN;0.0;23.290382;;0 / 0;27506;2022-10-28 13:55:30:303
6.5297;-5.2463;4.9765;7.1265;-4.9463;4.5736;-1.4024;-0.4228;0.3587;-0.2056;-0.3579;-0.3924;0.0;-53.14;-2.76;-31.95;177.13;30.29;-57.31;0.0;35.95832;-83.92443;820.25;NaN;0.0;23.290382;;0 / 0;28006;2022-10-28 13:55:30:803
6.4202;-2.383;-0.2752;9.0678;-3.7335;-0.0727;-2.4123;0.9225;1.5232;-0.7991;-1.4224;-0.1763;0.0;-53.38;-14.4;-34.01;219.87;23.26;-84.9;0.0;35.95832;-83.92443;820.25;NaN;0.0;23.290382;;0 / 0;28506;2022-10-28 13:55:31:303
12.0685;-4.2748;-3.0398;9.1916;-3.0324;-1.5775;1.3687;-0.1276;-3.3368;-0.3015;-0.7313;-0.0912;0.0;-60.06;-28.97;-27.15;219.59;18.01;-99.74;0.0;35.95832;-83.92443;820.25;NaN;0.0;23.290382;;0 / 0;29005;2022-10-28 13:55:31:802
8.0868;-3.9972;-3.0027;8.8714;-3.4676;-2.3332;-0.703;0.4911;-1.0906;0.45;-0.1829;-0.2274;0.0;-56.72;-36.19;-35.57;224.26;21.24;-104.38;0.0;35.95832;-83.92443;820.25;NaN;0.0;23.290382;;0 / 0;29506;2022-10-28 13:55:32:303
8.2549;-3.0996;-1.7145;8.8217;-3.1215;-2.9334;-0.7297;-0.8683;2.3135;-1.6498;0.4332;0.3142;0.0;-48.21;-42.09;-25.57;217.8;19.01;-108.9;0.0;35.95832;-83.92443;820.25;NaN;0.0;23.290382;;0 / 0;30006;2022-10-28 13:55:32:803
12.1406;-4.1013;-3.029;8.921;-3.3084;-2.3749;2.9564;-0.701;-1.3349;-0.789;-0.2471;0.3489;0.0;-32.59;-22.14;-18.06;219.47;20.26;-103.08;0.0;35.95832;-83.92443;820.25;NaN;0.0;23.290382;;0 / 0;30505;2022-10-28 13:55:33:302
7.6917;-3.1995;-3.6206;8.6131;-3.9356;-2.5486;-0.6242;1.4115;-0.0678;-0.0388;0.194;-0.1023;0.0;-17.74;-2.93;7.74;166.38;23.66;-106.48;0.0;35.95832;-83.92443;820.25;NaN;0.0;23.290382;;0 / 0;31007;2022-10-28 13:55:33:804
8.1368;-3.1403;1.081;9.0479;-3.4306;-1.5927;-0.9664;-0.1495;3.1375;-0.885;0.905;0.2262;0.0;-11.62;-0.54;16.35;114.58;20.79;-100.69;0.0;35.95832;-83.92443;820.25;NaN;0.0;23.290382;;0 / 0;31506;2022-10-28 13:55:34:303
9.6087;-7.0669;-1.0836;9.0019;-3.3489;-1.9802;3.2809;-2.429;0.2617;-0.5175;0.6254;0.7432;0.0;-12.52;-5.36;19.18;121.99;18.59;-101.51;0.0;35.95832;-83.92443;820.25;NaN;0.0;23.290382;;0 / 0;32006;2022-10-28 13:55:34:803
6.3882;-6.0861;-1.4216;8.0851;-5.438;-1.1085;-1.6583;-0.032;-0.4833;0.5094;0.6255;0.301;0.0;-8.55;6.51;10.65;89.37;32.17;-101.06;0.0;35.95832;-83.92443;820.25;NaN;0.0;23.290382;;0 / 0;32505;2022-10-28 13:55:35:302
7.5829;-2.4033;0.3209;9.0853;-3.6841;-0.2333;-1.7092;0.4229;1.4607;-0.704;-0.6117;-0.3984;0.0;-7.37;7.54;6.98;55.32;22.07;-91.47;0.0;35.95832;-83.92443;820.25;NaN;0.0;23.290382;;0 / 0;33006;2022-10-28 13:55:35:803
8.8693;-3.6885;0.2776;8.9558;-3.8909;-0.9081;-0.2249;-0.826;1.2472;0.7042;0.5721;0.265;0.0;-7.26;10.73;13.52;61.7;21.69;-96.76;0.0;35.95832;-83.92443;820.25;NaN;0.0;23.290382;;0 / 0;33506;2022-10-28 13:55:36:303
8.5032;-4.6412;-1.485;8.6195;-4.6496;0.506;0.2478;-0.1331;-2.545;0.3706;1.4943;0.0967;0.0;-4.73;20.57;17.19;46.47;27.84;-91.7;0.0;35.95832;-83.92443;820.25;NaN;0.0;23.290382;;0 / 0;34005;2022-10-28 13:55:36:802
7.0017;-3.2725;0.131;9.0595;-3.4975;-1.3647;-1.7298;0.186;1.9171;-0.3256;-1.1566;-0.2343;0.0;-9.08;24.49;15.98;39.54;21.76;-94.24;0.0;35.95832;-83.92443;820.25;NaN;0.0;23.290382;;0 / 0;34506;2022-10-28 13:55:37:303
12.4546;-5.013;-2.2747;9.0135;-3.2577;-2.0771;3.3003;-0.8359;-0.519;0.4643;-0.2515;0.1659;0.0;-12.75;20.79;17.48;43.6;19.4;-102.98;0.0;35.95832;-83.92443;820.25;NaN;0.0;23.290382;;0 / 0;35006;2022-10-28 13:55:37:803
7.4883;-5.8047;-0.5602;8.0995;-5.5237;0.2399;-0.4031;0.5217;-1.7293;1.7314;1.4916;0.3536;0.0;-14.02;18.34;13.35;58.45;32.5;-97.18;0.0;35.95832;-83.92443;820.25;NaN;0.0;23.290382;;0 / 0;35506;2022-10-28 13:55:38:303
8.0139;-2.6456;1.4345;8.871;-4.109;0.7698;-0.3921;2.0819;1.1843;-0.3798;-0.5247;-0.4036;0.0;-15.3;16.86;1.29;19.61;26.29;-81.88;0.0;35.95832;-83.92443;820.25;NaN;0.0;23.290382;;0 / 0;36005;2022-10-28 13:55:38:802
11.7311;-4.4504;1.0448;9.1787;-3.3978;0.6136;2.8835;-1.4181;-0.5111;-0.3877;-0.5656;0.0782;0.0;-18.9;10.07;2.18;52.83;19.96;-83.97;0.0;35.95832;-83.92443;820.25;NaN;0.0;23.290382;;0 / 0;36505;2022-10-28 13:55:39:302
8.077;-4.2455;0.9179;8.1786;-5.0906;1.8348;-0.9064;0.7177;-3.5149;1.1589;2.5349;0.3725;0.0;-20.12;9.39;3.58;103.47;31.27;-77.36;0.0;35.95832;-83.92443;820.25;NaN;0.0;23.290382;;0 / 0;37006;2022-10-28 13:55:39:803
7.2565;-2.6539;1.5766;8.8141;-4.0512;1.4386;-0.9488;1.6254;0.6788;-0.368;-0.3622;-0.4281;0.0;-22.41;11.46;1.09;76.18;24.4;-80.73;0.0;35.95832;-83.92443;820.25;NaN;0.0;23.290382;;0 / 0;37506;2022-10-28 13:55:40:303
9.4149;-4.8888;1.2281;9.1404;-3.4869;0.6811;2.3617;-0.8585;0.5601;0.4432;-0.5016;0.6066;0.0;-26.55;13.59;5.63;61.34;19.09;-84.75;0.0;35.95832;-83.92443;820.25;NaN;0.0;23.290382;;0 / 0;38006;2022-10-28 13:55:40:803
6.7878;-5.5448;4.4874;7.7851;-4.9993;3.251;-0.0708;0.0567;-1.2064;-0.0657;0.864;-0.0374;0.0;-22.41;22.48;8.83;55.99;30.09;-76.55;0.0;35.95832;-83.92443;820.25;NaN;0.0;23.290382;;0 / 0;38505;2022-10-28 13:55:41:302
7.3917;-2.7987;1.4195;8.8915;-4.0051;1.0342;-1.4579;1.1001;0.7775;-0.1785;-0.3166;-0.2519;0.0;-24.36;27.09;10.8;41.6;24.11;-83.37;0.0;35.95832;-83.92443;820.25;NaN;0.0;23.290382;;0 / 0;39006;2022-10-28 13:55:41:803
13.0322;-5.0031;0.6111;9.2503;-3.2101;0.5463;3.4048;-1.1949;-0.3238;0.6872;-0.4038;0.0856;0.0;-22.63;30.47;17.51;42.38;19.11;-86.62;0.0;35.95832;-83.92443;820.25;NaN;0.0;23.290382;;0 / 0;39506;2022-10-28 13:55:42:303
8.4754;-4.9403;-1.2778;8.3919;-4.9456;1.135;0.2213;-0.1394;-2.212;1.3497;0.6889;0.25;0.0;-13.13;37.93;14.79;30.31;29.84;-86.51;0.0;35.95832;-83.92443;820.25;NaN;0.0;23.290382;;0 / 0;40007;2022-10-28 13:55:42:804
7.1453;-3.3577;2.4455;8.735;-4.1597;1.6018;-1.1923;1.0165;1.1206;-1.2198;0.2372;-0.4147;0.0;-15.21;36.79;8.01;22.12;25.59;-76.23;0.0;35.95832;-83.92443;820.25;NaN;0.0;23.290382;;0 / 0;40505;2022-10-28 13:55:43:302
9.5701;-2.7066;1.8045;8.8676;-2.9987;2.923;0.2852;0.7882;-1.2514;-0.199;0.5302;-0.1277;0.0;-25.89;26.23;10.67;45.51;17.8;-71.76;0.0;35.95832;-83.92443;820.25;NaN;0.0;23.290382;;0 / 0;41005;2022-10-28 13:55:43:802
7.3158;-3.4914;1.5664;8.5155;-4.5736;1.6548;-3.0025;0.0609;2.3807;-1.5293;-0.2255;-0.2868;0.0;-27.47;20.7;0.3;39.65;27.8;-79.0;0.0;35.95832;-83.92443;820.25;NaN;0.0;23.290382;;0 / 0;41505;2022-10-28 13:55:44:302
9.9873;-6.3437;-0.6592;8.6716;-4.2026;-1.8198;2.2499;-3.2422;0.4409;-0.2609;-0.1515;-0.0188;2.2;-28.67;17.93;3.56;335.52;25.42;-101.16;0.0;35.95832;-83.92443;820.25;NaN;0.0;23.290382;;0 / 0;42006;2022-10-28 13:55:44:803
8.0629;-2.8848;-2.7808;8.8227;-3.7402;-2.0835;-0.5665;0.8039;-0.6966;-0.3102;0.4365;0.2552;0.0;-25.76;10.89;14.36;94.09;21.9;-104.68;0.0;35.95832;-83.92443;820.25;NaN;0.0;23.290382;;0 / 0;42506;2022-10-28 13:55:45:303
8.4921;-2.8208;0.035;8.7882;-4.3064;-0.6269;-1.0805;1.2701;2.7441;-2.0001;-0.3814;-0.0371;0.0;-20.79;8.01;24.53;96.79;26.05;-94.08;0.0;35.95832;-83.92443;820.25;NaN;0.0;23.290382;;0 / 0;43006;2022-10-28 13:55:45:803
8.3115;-3.8892;3.5447;9.1124;-3.5923;-0.4791;-0.2776;-0.8722;1.7205;-0.3376;1.3095;0.0038;0.0;-23.47;-8.7;29.94;124.31;21.55;-97.63;0.0;35.95832;-83.92443;820.25;NaN;0.0;23.290382;;0 / 0;43505;2022-10-28 13:55:46:302
11.4778;-4.5631;0.1436;9.3797;-2.8161;0.5107;1.693;-1.5325;-0.7873;-0.6503;-0.0134;0.2748;0.0;-30.07;-33.0;26.53;144.3;16.69;-86.88;0.0;35.95832;-83.92443;820.25;NaN;0.0;23.290382;;0 / 0;44006;2022-10-28 13:55:46:803
7.972;-4.1533;-0.2844;8.3842;-5.0846;-0.1513;-0.2971;0.8123;-0.2723;-0.2288;-0.9698;0.4657;0.0;-41.64;-46.63;20.18;160.98;29.4;-88.45;0.0;35.95832;-83.92443;820.25;NaN;0.0;23.290382;;0 / 0;44506;2022-10-28 13:55:47:303
8.1529;-3.0159;4.5021;8.3004;-4.6589;2.3599;0.5401;-0.2305;3.6292;-0.8209;-1.3391;-0.5625;0.0;-54.0;-43.44;23.38;148.21;28.36;-74.13;0.0;35.95832;-83.92443;820.25;NaN;0.0;23.290382;;0 / 0;45006;2022-10-28 13:55:47:803
9.836;-3.3802;0.5904;9.1271;-3.2704;1.4732;0.0557;0.5394;-0.3038;-0.0889;-0.0233;0.0166;0.0;-42.94;-44.96;29.14;148.25;20.46;-82.34;0.0;35.95832;-83.92443;820.25;NaN;0.0;23.290382;;0 / 0;45506;2022-10-28 13:55:48:303
7.1049;-4.3056;1.1958;8.5372;-4.6495;1.2916;-1.9342;0.6322;1.1247;-0.3298;-0.2041;0.1815;0.0;-38.25;-33.84;22.65;148.35;28.3;-81.4;0.0;35.95832;-83.92443;820.25;NaN;0.0;23.290382;;0 / 0;46006;2022-10-28 13:55:48:803
8.356;-2.9387;4.716;8.0204;-5.0217;2.5743;1.6288;-2.0152;2.7904;-0.1588;0.1332;-0.2895;0.0;-41.79;-21.88;19.29;137.27;31.54;-68.78;0.0;35.95832;-83.92443;820.25;NaN;0.0;23.290382;;0 / 0;46506;2022-10-28 13:55:49:303
9.1735;-2.4607;1.675;8.9857;-3.3685;2.0199;-0.3825;0.3298;-0.1785;0.0292;0.5245;-0.2705;0.0;-38.25;-19.26;14.93;143.83;21.08;-78.94;0.0;35.95832;-83.92443;820.25;NaN;0.0;23.290382;;0 / 0;47006;2022-10-28 13:55:49:803
7.7743;-3.8067;0.888;8.571;-4.6144;1.19;-2.0369;0.72;1.0098;-0.4359;-0.7677;0.1697;0.0;-37.93;-17.98;8.1;155.78;26.82;-79.9;0.0;35.95832;-83.92443;820.25;NaN;0.0;23.290382;;0 / 0;47505;2022-10-28 13:55:50:302
11.9722;-6.3353;0.5719;8.3411;-4.7829;1.9289;1.0393;-0.9101;0.823;-0.5495;-1.0042;-0.5752;0.0;-36.96;-13.67;6.19;154.05;29.19;-76.98;0.0;35.95832;-83.92443;820.25;NaN;0.0;23.290382;;0 / 0;48006;2022-10-28 13:55:50:803
8.8534;-3.015;-0.9159;9.1207;-3.6028;0.0527;-0.776;0.3695;-1.0652;-0.4415;0.4913;-0.1375;0.0;-33.49;-17.96;5.72;169.62;21.92;-91.17;0.0;35.95832;-83.92443;820.25;NaN;0.0;23.290382;;0 / 0;48506;2022-10-28 13:55:51:303
7.0756;-4.1865;1.7961;8.499;-4.6142;1.6269;-1.6709;0.008;0.4694;-0.7364;-0.1657;0.2336;0.0;-30.28;-18.11;-0.11;167.41;26.6;-77.44;0.0;35.95832;-83.92443;820.25;NaN;0.0;23.290382;;0 / 0;49006;2022-10-28 13:55:51:803
9.8186;-4.908;3.2207;7.3626;-4.8015;4.3484;1.9523;-0.4326;-0.7882;0.0158;-0.079;-0.9605;0.0;-29.14;-13.86;-3.6;155.16;32.27;-57.8;0.0;35.95832;-83.92443;820.25;NaN;0.0;23.290382;;0 / 0;49507;2022-10-28 13:55:52:304
7.7267;-2.8089;1.5194;9.0051;-3.538;1.6002;-1.4268;0.472;0.2897;0.0744;0.0441;-0.2773;0.8;-25.5;-13.71;-4.63;180.95;21.15;-79.92;0.0;35.95832;-83.92443;820.25;NaN;0.0;23.290382;;0 / 0;50006;2022-10-28 13:55:52:803
6.7654;-4.0522;3.0805;8.6453;-4.0831;2.1812;-1.0576;-0.1034;1.2775;-0.499;-0.0255;0.3625;0.2;-22.22;-10.41;-7.57;187.12;22.84;-75.61;0.0;35.95832;-83.92443;820.25;NaN;0.0;23.290382;;0 / 1;50506;2022-10-28 13:55:53:303
6.0778;-5.3375;4.5613;7.1876;-4.9993;4.4177;-0.738;0.0243;-0.0959;0.1274;0.8254;0.1214;2.0;-21.86;-1.54;-11.74;184.28;29.87;-63.82;0.0;35.95832;-83.92443;820.25;NaN;0.0;23.290382;;0 / 1;51006;2022-10-28 13:55:53:803
6.9132;-2.9336;1.7447;8.9669;-3.5627;1.753;-2.1424;0.3867;0.1215;-0.2936;-0.6298;-0.3529;2.0;-21.96;1.91;-12.62;224.92;22.23;-76.21;0.0;35.95832;-83.92443;820.25;NaN;0.0;23.290382;;0 / 1;51505;2022-10-28 13:55:54:302
11.6204;-4.7106;2.7302;9.0223;-3.108;2.2602;4.2217;0.0866;0.6353;-0.064;-0.73;0.6816;0.2;-28.88;5.44;-10.2;208.22;18.48;-75.94;0.0;35.95832;-83.92443;820.25;NaN;0.0;23.290382;;0 / 1;52006;2022-10-28 13:55:54:803
7.3519;-4.0896;2.2143;8.1036;-4.9008;2.5465;-0.5307;1.4299;-2.823;0.5132;2.699;0.5076;0.8;-33.58;8.08;-6.41;187.46;29.1;-82.12;0.0;35.95832;-83.92443;820.25;NaN;0.0;23.290382;;0 / 2;52506;2022-10-28 13:55:55:303
6.9661;-3.5007;3.2746;8.7536;-4.0514;1.7695;-1.9196;0.6451;1.707;-1.7668;-0.2556;-0.5721;1.3;-39.75;-2.01;-8.08;172.43;24.99;-75.14;0.0;35.95832;-83.92443;820.25;NaN;0.0;23.290382;;0 / 2;53006;2022-10-28 13:55:55:803
9.8524;-3.4304;-3.4481;9.1272;-3.4518;-0.9744;0.1528;1.3824;-2.0897;-0.6058;0.1796;0.132;0.0;-50.74;-18.66;-4.91;195.84;20.55;-95.71;0.0;35.95832;-83.92443;820.25;NaN;0.0;23.290382;;0 / 2;53506;2022-10-28 13:55:56:303
8.6363;-3.5222;-3.7047;8.6477;-4.5469;-0.845;-0.2427;1.1505;1.2168;-2.0151;-0.7288;0.3634;0.0;-51.66;-20.7;-4.35;192.03;27.62;-95.58;0.0;35.95832;-83.92443;820.25;NaN;0.0;23.290382;;0 / 2;54006;2022-10-28 13:55:56:803
7.5383;-3.146;1.5769;8.8845;-4.0803;-0.7666;0.5626;-0.6892;1.2353;-0.8059;0.8394;0.0166;0.0;-47.85;-21.06;-3.82;191.79;24.59;-94.93;0.0;35.95832;-83.92443;820.25;NaN;0.0;23.290382;;0 / 2;54506;2022-10-28 13:55:57:303
9.7364;-2.6797;-2.6285;8.9907;-3.6187;-1.4973;0.6486;0.8296;-0.9836;-0.8891;0.0819;0.1539;0.0;-39.58;-25.26;-8.17;200.22;21.63;-98.42;0.0;35.95832;-83.92443;820.25;NaN;0.0;23.290382;;0 / 2;55006;2022-10-28 13:55:57:803
6.5665;-5.0255;2.6234;7.9333;-5.3933;2.0358;0.461;2.0469;-4.0212;0.3183;2.6563;0.671;0.0;-32.94;-19.05;-13.69;193.24;31.68;-80.11;0.0;35.95832;-83.92443;820.25;NaN;0.0;23.290382;;0 / 2;55506;2022-10-28 13:55:58:303
7.5936;-3.0168;2.6336;8.699;-4.0991;1.9223;-1.0113;1.5758;1.3614;-0.7839;-0.0617;-0.5486;0.0;-32.29;-13.26;-15.41;196.45;24.71;-77.54;0.0;35.95832;-83.92443;820.25;NaN;0.0;23.290382;;0 / 2;56006;2022-10-28 13:55:58:803
10.4121;-4.3107;2.7583;8.9582;-3.0673;2.5519;0.6231;-0.9418;-0.0829;-1.0336;-0.0756;0.0914;2.0;-40.46;-10.39;-11.83;181.48;18.23;-74.1;0.0;35.95832;-83.92443;820.25;NaN;0.0;23.290382;;0 / 2;56506;2022-10-28 13:55:59:303
8.0495;-4.078;0.3787;7.8155;-5.0448;3.1046;0.085;0.94;-3.748;0.9683;1.8198;0.3621;9.6;-48.21;-3.69;-10.86;178.26;30.98;-76.07;0.0;35.95832;-83.92443;820.25;NaN;0.0;23.290382;;0 / 2;57007;2022-10-28 13:55:59:804
7.334;-3.1816;0.8686;8.9378;-3.7102;1.5879;-0.4681;1.3745;-0.0924;-0.1033;-0.53;-0.3673;3.1;-50.36;-5.46;-14.51;184.66;24.11;-75.62;0.0;35.95832;-83.92443;820.25;NaN;0.0;23.290382;;0 / 2;57506;2022-10-28 13:56:00:303
12.2782;-3.9299;1.5102;9.0688;-3.0922;2.0894;1.7695;-1.204;-0.7376;-0.8383;-0.9357;0.0953;9.6;-56.53;-12.08;-1.91;159.52;18.38;-77.03;0.0;35.95832;-83.92443;820.25;NaN;0.0;23.290382;;0 / 2;58006;2022-10-28 13:56:00:803
8.3584;-4.5075;-0.1235;8.3479;-4.9199;1.5092;-1.0968;0.9904;-0.3613;0.6013;-0.5236;0.4211;8.9;-56.89;-2.38;2.03;157.81;30.11;-79.75;0.0;35.95832;-83.92443;820.25;NaN;0.0;23.290382;;0 / 2;58506;2022-10-28 13:56:01:303
8.6085;-1.7788;2.3539;8.7485;-3.6777;2.4716;-0.0495;2.0255;0.0905;0.0239;-0.6855;-0.5114;1.3;-55.93;8.68;-3.09;132.69;23.95;-71.55;0.0;35.95832;-83.92443;820.25;NaN;0.0;23.290382;;0 / 2;59006;2022-10-28 13:56:01:803
9.696;-2.8525;2.3192;8.7791;-2.704;3.433;1.0683;-0.2312;-1.0904;-0.388;-0.2622;-0.0087;0.0;-56.61;7.97;-4.54;109.73;15.16;-66.59;0.0;35.95832;-83.92443;820.25;NaN;0.0;23.290382;;0 / 2;59506;2022-10-28 13:56:02:303
7.6074;-4.2132;1.9956;8.2771;-4.4446;2.8117;-1.1253;0.4881;-0.4237;0.0909;-0.1958;0.2647;0.0;-49.14;17.89;-12.0;146.84;26.95;-71.24;0.0;35.95832;-83.92443;820.25;NaN;0.0;23.290382;;0 / 2;60005;2022-10-28 13:56:02:802
7.4339;-3.3921;7.3669;6.6074;-4.0089;6.0367;-1.0228;-2.418;4.1573;-0.6576;-1.7083;-0.8876;0.0;-37.29;23.57;-23.7;63.07;24.23;-46.5;0.0;35.95832;-83.92443;820.25;NaN;0.0;23.290382;;0 / 2;60506;2022-10-28 13:56:03:303
8.5582;-2.3821;3.2979;8.6706;-2.5658;3.7958;-0.9556;-0.3476;-0.7504;0.0868;0.6479;-0.3438;0.0;-41.16;18.73;-20.51;319.56;16.38;-68.51;0.0;35.95832;-83.92443;820.25;NaN;0.0;23.290382;;0 / 2;61006;2022-10-28 13:56:03:803
6.7896;-4.4213;4.0211;8.1648;-4.1233;3.5362;-1.3886;-0.2847;0.3697;0.1543;-0.0965;0.5974;0.0;-39.81;17.18;-19.29;216.74;23.33;-66.45;0.0;35.95832;-83.92443;820.25;NaN;0.0;23.290382;;0 / 3;61506;2022-10-28 13:56:04:303
7.8368;-6.1089;4.9008;6.8833;-5.0311;4.8455;0.4852;-0.7209;-0.278;-0.3961;-0.1814;-0.365;0.0;-35.03;22.37;-18.58;104.39;30.52;-55.05;0.0;35.95832;-83.92443;820.25;NaN;0.0;23.290382;;0 / 3;62005;2022-10-28 13:56:04:802
7.5772;-3.0784;2.088;8.8621;-3.5662;2.2171;-1.3456;-0.1296;-0.8275;-0.5274;0.3175;-0.3589;0.0;-39.34;15.6;-16.31;261.63;22.1;-75.8;0.0;35.95832;-83.92443;820.25;NaN;0.0;23.290382;;0 / 3;62506;2022-10-28 13:56:05:303
9.454;-2.5831;2.621;8.5243;-2.3853;4.221;1.0296;-0.2803;-1.3764;-0.3941;0.1574;0.0716;0.0;-44.08;6.62;-16.29;131.12;14.08;-63.66;0.0;35.95832;-83.92443;820.25;NaN;0.0;23.290382;;0 / 3;63006;2022-10-28 13:56:05:803
6.6269;-2.9001;1.7779;8.5798;-4.4714;1.6014;-2.0231;1.3349;1.5524;-1.3396;-1.1204;-0.1344;0.0;-40.29;8.04;-20.61;213.73;26.46;-73.05;0.0;35.95832;-83.92443;820.25;NaN;0.0;23.290382;;0 / 4;63506;2022-10-28 13:56:06:303
11.9961;-5.6518;-2.8146;8.9456;-3.7034;-1.5594;0.2452;-0.7115;-2.3424;-0.0829;-0.6548;-0.6176;0.0;-44.98;12.21;-6.32;238.72;24.33;-97.4;0.0;35.95832;-83.92443;820.25;NaN;0.0;23.290382;;0 / 4;64006;2022-10-28 13:56:06:803
9.4032;-2.9895;-1.832;9.2772;-3.125;-0.5819;0.0298;-0.1021;-0.7157;-2.7321;0.5753;-0.0964;0.0;-42.99;8.49;0.06;191.87;19.27;-91.86;0.0;35.95832;-83.92443;820.25;NaN;0.0;23.290382;;0 / 4;64505;2022-10-28 13:56:07:302
6.9126;-3.9464;4.2706;8.3849;-4.3736;2.5952;-0.0717;-0.6104;1.7047;-0.5333;0.0315;0.4296;0.0;-38.31;9.39;-2.44;132.01;26.49;-72.8;0.0;35.95832;-83.92443;820.25;NaN;0.0;23.290382;;0 / 4;65007;2022-10-28 13:56:07:804
11.5295;-5.7691;3.1938;7.7839;-4.6178;3.7758;1.4796;-0.0073;0.2238;-0.1054;-1.1041;-0.7354;0.0;-34.31;11.19;-6.58;116.73;30.14;-56.11;0.0;35.95832;-83.92443;820.25;NaN;0.0;23.290382;;0 / 4;65505;2022-10-28 13:56:08:302
7.8509;-2.1999;1.3155;9.1035;-3.4669;1.1299;-1.1244;1.8009;0.7565;-1.4348;0.1436;-0.4095;2.0;-38.96;5.12;-1.65;156.18;21.69;-80.77;0.0;35.95832;-83.92443;820.25;NaN;0.0;23.290382;;0 / 4;66006;2022-10-28 13:56:08:803
10.5616;-4.2574;4.0771;8.6107;-3.6473;2.9536;3.0073;-0.5517;1.2389;-0.5078;-0.214;0.5341;0.0;-43.65;0.54;0.23;130.28;19.51;-69.84;0.0;35.95832;-83.92443;820.25;NaN;0.0;23.290382;;0 / 4;66506;2022-10-28 13:56:09:303
8.4646;-3.6948;0.2462;8.3975;-4.9314;1.1546;-0.4973;0.7782;-0.0307;-0.3135;0.0492;-0.0547;0.0;-51.43;-1.56;3.9;157.9;30.19;-82.17;0.0;35.95832;-83.92443;820.25;NaN;0.0;23.290382;;0 / 4;67006;2022-10-28 13:56:09:803
7.3543;-3.0197;4.0729;9.0439;-3.5856;1.2336;-1.7103;0.5673;3.8176;-0.9159;0.5197;-0.4546;0.0;-53.27;-12.45;14.01;148.52;22.07;-84.89;0.0;35.95832;-83.92443;820.25;NaN;0.0;23.290382;;0 / 5;67506;2022-10-28 13:56:10:303
11.3348;-5.2624;3.6126;9.0468;-3.3284;1.802;3.4152;-0.3299;0.7786;0.2467;0.3188;0.9968;0.0;-55.18;-16.44;6.92;153.82;17.09;-81.32;0.0;35.95832;-83.92443;820.25;NaN;0.0;23.290382;;0 / 5;68006;2022-10-28 13:56:10:803
7.7722;-4.3612;-0.4322;8.3338;-4.8552;1.7734;-0.2966;0.4191;-2.1565;1.582;0.6013;0.5675;0.0;-55.72;-4.58;0.77;166.51;28.62;-83.4;0.0;35.95832;-83.92443;820.25;NaN;0.0;23.290382;;0 / 6;68506;2022-10-28 13:56:11:303
8.5295;-1.5287;5.549;7.8864;-3.9704;4.2674;-0.539;0.8703;3.5293;-0.6357;-2.3615;-0.5375;0.0;-51.9;1.35;-11.34;142.61;23.88;-61.58;0.0;35.95832;-83.92443;820.25;NaN;0.0;23.290382;;0 / 6;69005;2022-10-28 13:56:11:802
8.6868;-2.0453;2.3315;8.9851;-2.6603;2.8915;-0.0466;1.1868;-0.2037;-0.0553;0.5341;-0.2224;0.0;-55.24;-5.64;-0.26;139.86;15.74;-72.16;0.0;35.95832;-83.92443;820.25;NaN;0.0;23.290382;;0 / 6;69506;2022-10-28 13:56:12:303
6.8892;-3.9191;3.2656;8.5727;-4.0418;2.5184;-1.379;0.076;1.0171;-0.3843;-0.3586;0.1561;0.0;-56.44;-4.86;-4.87;154.64;23.37;-72.07;0.0;35.95832;-83.92443;820.25;NaN;0.0;23.290382;;0 / 6;70006;2022-10-28 13:56:12:803
9.4068;-5.3447;5.4338;7.1921;-4.5285;4.8925;1.2751;-0.5027;-0.128;-0.1322;-0.77;-0.6644;0.0;-57.04;4.31;-4.31;121.19;29.23;-51.6;0.0;35.95832;-83.92443;820.25;NaN;0.0;23.290382;;0 / 6;70505;2022-10-28 13:56:13:302
8.45;-2.5065;1.7124;9.1673;-2.9366;1.8728;-1.6132;0.1356;0.335;-0.176;-0.3536;-0.1741;0.0;-59.79;5.38;4.24;128.33;17.42;-78.45;0.0;35.95832;-83.92443;820.25;NaN;0.0;23.290382;;0 / 6;71006;2022-10-28 13:56:13:803
8.9973;-3.2004;2.3818;9.0492;-3.3616;1.7269;2.1193;-0.9081;0.6284;0.4382;-0.338;0.6048;0.0;-58.11;8.46;12.9;115.31;20.05;-79.2;0.0;35.95832;-83.92443;820.25;NaN;0.0;23.290382;;0 / 6;71505;2022-10-28 13:56:14:302
7.7402;-3.9598;3.1615;7.5553;-4.7512;4.0638;0.8102;0.6446;-2.1079;0.2726;1.9172;0.3205;0.0;-45.09;25.76;13.39;79.77;28.38;-69.16;0.0;35.95832;-83.92443;820.25;NaN;0.0;23.290382;;0 / 6;72006;2022-10-28 13:56:14:803
7.3376;-3.0081;3.4149;8.8592;-3.3666;2.5202;-0.9524;1.2203;-0.2537;0.2355;0.2908;-0.2534;0.0;-38.31;33.32;5.04;39.44;21.27;-74.88;0.0;35.958267;-83.92431;738.41;NaN;0.0;227.09189;;0 / 7;72506;2022-10-28 13:56:15:303
9.4735;-2.4864;3.2898;8.6576;-2.2906;3.9962;0.488;0.5828;-0.7645;0.4777;0.1379;0.1893;0.0;-35.91;26.72;5.64;46.92;13.51;-65.22;0.0;35.958267;-83.92431;738.41;NaN;0.0;227.09189;;0 / 7;73007;2022-10-28 13:56:15:804
6.6987;-3.3975;2.6542;8.4891;-4.3436;2.2889;-1.7815;0.9587;0.8329;-0.5453;-0.3762;0.1483;0.0;-30.45;24.84;-0.32;39.17;26.29;-74.91;0.0;35.958267;-83.92431;738.41;NaN;0.0;227.09189;;3 / 7;73505;2022-10-28 13:56:16:302
6.3174;-6.5043;10.6319;6.8202;-3.9781;5.8163;-0.2377;-3.0819;4.9212;-0.2852;-0.6865;-0.7177;0.8;-19.5;25.46;-3.51;32.34;24.86;-47.38;0.0;35.958267;-83.92431;738.41;NaN;0.0;227.09189;;3 / 7;74006;2022-10-28 13:56:16:803
9.216;-2.4377;0.9191;9.224;-2.8592;1.7068;-0.5951;0.3122;0.2292;-0.4326;0.0584;-0.3018;1.3;-20.55;22.31;0.54;17.91;17.66;-79.62;0.0;35.958267;-83.92431;738.41;NaN;0.0;227.09189;;3 / 7;74506;2022-10-28 13:56:17:303
7.1961;-3.3969;3.355;8.9211;-3.1768;2.5481;-0.8223;0.7393;0.3946;-0.0089;0.1233;0.2882;0.2;-21.07;20.98;3.21;32.48;18.9;-74.06;0.0;35.958267;-83.92431;738.41;NaN;0.0;227.09189;;3 / 7;75005;2022-10-28 13:56:17:802
8.2214;-4.9056;3.6093;7.6458;-4.3973;4.2868;-0.6025;-0.8341;-1.0621;-0.1859;1.2318;0.1293;0.9;-16.31;22.82;2.93;34.92;26.64;-60.72;0.0;35.958267;-83.92431;738.41;NaN;0.0;227.09189;;3 / 7;75506;2022-10-28 13:56:18:303
7.4824;-2.4625;1.3863;9.1883;-3.0995;1.4621;-1.8339;0.4363;0.1098;-0.6021;-0.3025;-0.3602;1.3;-7.84;17.66;2.49;13.46;19.26;-79.1;0.0;35.958267;-83.92431;738.41;NaN;0.0;227.09189;;3 / 7;76006;2022-10-28 13:56:18:803
11.0297;-3.1834;1.1859;9.1807;-2.7527;2.0754;2.0501;-0.5105;-0.8947;-0.654;-0.4832;0.0778;0.2;-15.02;5.42;6.0;81.89;15.45;-74.53;0.0;35.958267;-83.92431;738.41;NaN;0.0;227.09189;;3 / 7;76506;2022-10-28 13:56:19:303
7.9008;-3.2913;0.8874;8.883;-4.0519;0.9189;-1.0264;0.4832;0.4475;-1.1681;-0.4799;-0.2195;0.4;-26.98;-8.04;9.86;144.68;24.4;-84.09;0.0;35.958267;-83.92431;738.41;NaN;0.0;227.09189;;3 / 7;77006;2022-10-28 13:56:19:803
8.3318;-2.9856;0.8964;9.1276;-3.4732;-0.8911;4.0619;-1.1378;1.0265;-1.3435;-0.2189;0.2266;0.2;-33.02;-27.84;13.93;164.66;20.79;-95.93;0.0;35.958267;-83.92431;738.41;NaN;0.0;227.09189;;3 / 7;77506;2022-10-28 13:56:20:303
9.4639;-2.3438;-2.5122;9.0713;-3.4053;-1.5115;0.3006;1.1666;-1.0433;-0.9622;0.6048;0.2277;0.0;-41.21;-49.61;11.53;175.79;20.25;-100.21;0.0;35.958267;-83.92431;738.41;NaN;0.0;227.09189;;3 / 7;78006;2022-10-28 13:56:20:803
7.4692;-3.6808;3.6909;8.7152;-4.4114;0.8687;-1.0106;0.8425;2.6692;-1.8013;0.5634;-0.1323;0.0;-45.77;-43.78;0.49;174.24;26.83;-82.46;0.0;35.958267;-83.92431;738.41;NaN;0.0;227.09189;;3 / 7;78506;2022-10-28 13:56:21:303
6.8243;-3.2297;3.5791;9.3564;-2.8394;0.752;-2.11;-0.6359;2.5992;-0.9867;0.7744;-0.3696;0.0;-40.52;-34.54;-1.74;180.8;17.4;-88.1;0.0;35.958267;-83.92431;738.41;NaN;0.0;227.09189;;3 / 7;79006;2022-10-28 13:56:21:803
11.4452;-4.3678;6.746;8.7949;-2.2252;3.7241;1.9441;-0.0774;0.8222;-0.3503;0.4357;1.0566;0.0;-27.0;-25.54;-6.99;172.39;10.14;-67.08;0.0;35.958267;-83.92431;738.41;NaN;0.0;227.09189;;3 / 7;79506;2022-10-28 13:56:22:303
7.2066;-4.2114;4.4465;7.6086;-4.7727;3.9372;-0.5269;1.0472;-3.189;0.8563;2.3706;0.642;2.2;-16.48;-4.37;-14.47;200.57;29.12;-62.64;0.0;35.958267;-83.92431;738.41;NaN;0.0;227.09189;;3 / 7;80006;2022-10-28 13:56:22:803
6.851;-3.2599;1.9732;9.0247;-3.2858;1.9821;-0.7686;0.583;0.3627;-0.3585;-1.0881;-0.5237;3.5;-8.87;-5.08;-14.87;233.05;20.95;-75.09;0.0;35.958267;-83.92431;738.41;NaN;0.0;227.09189;;3 / 7;80506;2022-10-28 13:56:23:303
9.1134;-3.1884;2.2436;8.928;-2.7616;2.9723;0.2898;0.0425;-0.8049;0.3564;-0.233;0.4342;8.1;-15.02;-10.2;-13.35;208.15;15.69;-72.2;0.0;35.958267;-83.92431;738.41;NaN;0.0;227.09189;;3 / 7;81006;2022-10-28 13:56:23:803
6.4801;-3.498;2.0551;8.5094;-4.4663;1.9528;-1.7967;1.1849;0.2962;0.5298;0.089;0.2978;3.3;-19.87;-5.04;-13.56;211.15;26.39;-76.19;0.0;35.958267;-83.92431;738.41;NaN;0.0;227.09189;;3 / 7;81506;2022-10-28 13:56:24:303
8.3456;-3.4606;6.6592;7.7285;-4.0162;4.5068;1.9744;-2.7776;3.3227;-1.1155;-1.8382;-0.8802;1.3;-32.38;52.24;-7.99;14.96;24.18;-59.75;0.0;35.958267;-83.92431;738.41;NaN;0.0;227.09189;;3 / 7;82006;2022-10-28 13:56:24:803
9.0766;-1.8105;1.8275;9.0657;-3.0152;2.2117;-0.0527;0.1074;-1.2756;0.1993;0.7404;-0.0354;0.0;-35.68;57.13;1.84;11.79;18.32;-78.72;0.0;35.958267;-83.92431;738.41;NaN;0.0;227.09189;;3 / 7;82507;2022-10-28 13:56:25:304
6.5192;-3.2321;2.4428;8.7808;-4.1322;1.4118;-1.9494;0.4013;1.6041;-0.6582;-0.7219;0.1564;0.0;-31.67;61.14;0.81;9.93;23.93;-78.15;0.0;35.958267;-83.92431;738.41;NaN;0.0;227.09189;;3 / 7;83006;2022-10-28 13:56:25:803
7.5233;-5.179;3.9616;8.0721;-4.5756;3.1741;-1.0319;-0.714;1.3372;-0.0335;-0.3477;-0.3374;0.0;-24.15;65.27;1.69;13.43;28.79;-67.2;0.0;35.958267;-83.92431;738.41;NaN;0.0;227.09189;;0 / 7;83506;2022-10-28 13:56:26:303
8.4814;-2.2633;0.9341;9.1888;-3.3623;0.6567;-1.9565;-0.3947;0.8128;-0.8631;-0.4442;-0.1229;0.0;-20.74;59.94;-0.6;0.58;20.05;-85.91;0.0;35.958267;-83.92431;738.41;NaN;0.0;227.09189;;0 / 7;84005;2022-10-28 13:56:26:802
12.1301;-4.1151;-0.5186;9.3467;-2.9679;-0.0122;5.0762;-0.5443;0.1919;-0.2452;-1.0246;0.4463;0.0;-17.19;53.06;0.15;0.66;17.24;-88.22;0.0;35.958267;-83.92431;738.41;NaN;0.0;227.09189;;0 / 7;84505;2022-10-28 13:56:27:302
8.5549;-3.5994;-1.9017;8.6656;-4.5788;-0.3359;-0.2129;1.4428;-0.6816;2.1629;0.2456;0.403;0.0;-13.03;45.86;-3.54;351.55;26.23;-95.88;0.0;35.958267;-83.92431;738.41;NaN;0.0;227.09189;;0 / 7;85006;2022-10-28 13:56:27:803
6.8058;-3.2171;0.894;9.1914;-3.2696;-0.9995;-0.8074;1.0042;1.6493;-0.4141;-1.053;-0.4255;0.0;-11.06;36.96;-4.27;351.8;21.14;-92.16;0.0;35.958267;-83.92431;738.41;NaN;0.0;227.09189;;0 / 7;85506;2022-10-28 13:56:28:303
10.2078;-2.7966;-2.3853;9.4497;-2.5511;-0.6049;-0.3572;1.0546;-2.1199;0.3527;0.1294;0.1832;3.0;-12.83;31.69;-5.85;346.13;15.08;-93.66;0.0;35.958267;-83.92431;738.41;NaN;0.0;227.09189;;0 / 7;86006;2022-10-28 13:56:28:803
7.1396;-3.751;0.7095;8.8611;-4.1518;0.6436;-1.7841;0.5321;0.7958;-0.077;-0.601;0.243;0.4;-13.14;31.61;-6.58;345.46;25.05;-85.85;0.0;35.958267;-83.92431;738.41;NaN;0.0;227.09189;;0 / 7;86506;2022-10-28 13:56:29:303
9.6921;-8.2029;6.178;7.8694;-4.2464;4.0264;3.0411;-3.8037;0.8057;-0.2725;-0.1215;-0.7652;2.2;14.21;-0.96;-2.19;300.39;27.49;-64.74;0.0;35.958267;-83.92431;738.41;NaN;0.0;227.09189;;0 / 7;87005;2022-10-28 13:56:29:802
8.1969;-2.9973;-1.4085;9.1684;-3.1737;-1.4279;-1.5359;0.3969;-0.1347;-0.8714;0.3656;0.0308;0.0;16.97;-0.88;-18.81;289.44;19.2;-99.61;0.0;35.958267;-83.92431;738.41;NaN;0.0;227.09189;;0 / 7;87506;2022-10-28 13:56:30:303
5.9566;-6.7795;4.183;8.7853;-4.3224;0.553;-0.611;-3.2796;0.5472;-0.5344;2.3829;0.8261;0.0;22.74;6.84;-18.64;307.88;26.15;-86.4;0.0;35.958267;-83.92431;738.41;NaN;0.0;227.09189;;0 / 7;88006;2022-10-28 13:56:30:803
6.8142;-5.2941;0.7986;7.8302;-5.7866;1.172;-1.3362;0.6441;-1.2255;0.6577;1.1752;-0.3389;3.9;26.63;7.07;-9.92;325.93;36.16;-81.49;0.0;35.958267;-83.92431;738.41;NaN;0.0;227.09189;;0 / 7;88506;2022-10-28 13:56:31:303
6.9371;-2.6779;1.5903;9.0352;-3.7524;0.6747;-2.2479;0.5139;1.1772;-0.5085;-0.0766;-0.3306;2.0;28.13;12.81;2.08;358.58;23.42;-84.75;0.0;35.958267;-83.92431;738.41;NaN;0.0;227.09189;;0 / 7;89006;2022-10-28 13:56:31:803
7.4994;-4.1441;1.989;9.094;-3.5771;0.8212;3.5689;-1.5884;1.2209;-0.1794;0.2982;0.7748;1.3;24.88;18.79;8.96;13.47;18.68;-83.9;0.0;35.958267;-83.92431;738.41;NaN;0.0;227.09189;;0 / 7;89506;2022-10-28 13:56:32:303
6.8659;-4.1139;2.3231;8.0679;-5.3532;1.5566;-0.3724;0.8451;-2.804;0.4495;2.6862;0.1935;3.6;13.48;11.25;15.96;36.6;33.08;-79.08;0.0;35.958267;-83.92431;738.41;NaN;0.0;227.09189;;0 / 7;90005;2022-10-28 13:56:32:802
7.215;-1.4456;1.0558;8.9401;-4.0268;0.1715;-0.4989;2.7481;3.6271;-1.2027;-0.9713;-0.3981;0.0;-0.51;4.69;12.04;70.55;24.24;-88.9;0.0;35.958267;-83.92431;738.41;NaN;0.0;227.09189;;0 / 7;90506;2022-10-28 13:56:33:303
9.8892;-3.3254;-3.082;9.0394;-3.0421;-2.2815;0.3818;-0.2442;-1.6026;-1.2;-0.2951;0.3815;0.0;-9.13;-12.88;1.26;183.19;17.67;-101.67;0.0;35.958267;-83.92431;738.41;NaN;0.0;227.09189;;0 / 7;91006;2022-10-28 13:56:33:803
7.7608;-4.651;0.9933;8.509;-4.8751;0.0126;-1.1621;0.1712;-2.6457;0.6311;1.9793;-0.0224;0.0;-21.43;-12.6;-16.22;224.17;29.08;-100.18;0.0;35.95827;-83.92411;730.2;NaN;0.0;808.3624;;0 / 7;91506;2022-10-28 13:56:34:303
7.4273;-2.1042;1.9878;9.2071;-3.372;0.1714;-1.3299;0.918;1.8375;-0.0798;0.0796;-0.1403;0.0;-28.97;-15.21;-17.33;214.26;20.11;-88.93;0.0;35.95827;-83.92411;730.2;NaN;0.0;808.3624;;0 / 7;92006;2022-10-28 13:56:34:803
7.4058;-2.8672;3.0075;9.174;-3.3158;-1.007;0.7309;-1.98;0.4821;1.1835;0.856;0.4291;0.0;-32.12;-19.2;-10.27;205.42;19.76;-96.26;0.0;35.95827;-83.92411;730.2;NaN;0.0;808.3624;;3 / 7;92505;2022-10-28 13:56:35:302
11.8729;-5.3315;3.2285;8.7065;-3.8633;2.3328;1.9067;-1.7053;0.3496;-0.1416;0.0845;-0.6092;0.0;-34.22;-9.23;-10.52;184.01;25.03;-74.69;0.0;35.95827;-83.92411;730.2;NaN;0.0;808.3624;;3 / 7;93006;2022-10-28 13:56:35:803
8.9518;-1.6382;1.1249;9.3362;-2.5383;1.6006;-0.1433;0.9123;-0.4276;-0.8256;0.7814;-0.2912;0.0;-29.47;-10.11;-5.21;182.82;15.97;-81.91;0.0;35.95827;-83.92411;730.2;NaN;0.0;808.3624;;3 / 7;93506;2022-10-28 13:56:36:303
6.9209;-4.0152;0.5892;9.0387;-3.7951;0.2638;-1.2192;1.0556;1.3344;0.6836;-0.3492;-0.1048;0.0;-26.44;-3.39;-0.17;176.61;22.77;-88.33;0.0;35.95827;-83.92411;730.2;NaN;0.0;808.3624;;3 / 7;94005;2022-10-28 13:56:36:802
8.4679;-2.0563;2.7341;9.1784;-3.3273;0.9258;0.1023;-0.8421;1.8753;-0.3403;-1.0226;-0.2553;1.2;-17.79;11.19;0.0;43.73;21.66;-78.62;0.0;35.95827;-83.92411;730.2;NaN;0.0;808.3624;;3 / 7;94506;2022-10-28 13:56:37:303
9.5486;-2.3716;-2.2077;9.4695;-2.4392;-0.7416;-0.4984;0.501;-1.0492;-0.3154;0.34;0.0691;0.7;-12.38;3.34;-1.11;268.5;14.4;-94.48;0.0;35.95827;-83.92411;730.2;NaN;0.0;808.3624;;3 / 7;95006;2022-10-28 13:56:37:803
6.9449;-2.9988;0.09;9.0527;-3.6604;-0.9059;-1.9662;0.5209;0.8394;-0.2908;-0.3835;0.1456;0.0;-13.09;2.81;-5.38;252.3;21.22;-92.98;0.0;35.95827;-83.92411;730.2;NaN;0.0;808.3624;;3 / 7;95506;2022-10-28 13:56:38:303
7.3905;-0.9843;4.3947;8.9578;-3.4373;2.028;-1.1168;1.4399;3.7293;-0.1875;-1.3626;-0.5007;1.4;-11.55;4.61;-14.38;267.38;20.52;-77.24;0.0;35.95827;-83.92411;730.2;NaN;0.0;808.3624;;3 / 7;96006;2022-10-28 13:56:38:803
13.3167;-4.4937;1.4683;9.3608;-2.2147;1.9079;1.6274;0.1897;-0.8046;-0.6063;-0.7552;0.3922;8.6;-11.53;-4.12;-19.44;245.06;13.05;-77.77;0.0;35.95827;-83.92411;730.2;NaN;0.0;808.3624;;3 / 7;96506;2022-10-28 13:56:39:303
8.1362;-3.5614;-1.4303;8.9554;-3.9505;0.6046;-1.5131;0.5152;-0.1088;1.0358;0.752;0.3261;5.7;-15.17;-2.89;-19.26;242.63;23.76;-86.14;0.0;35.95827;-83.92411;730.2;NaN;0.0;808.3624;;3 / 7;97006;2022-10-28 13:56:39:803
7.3974;-1.8257;-0.1346;9.3417;-2.9803;-0.1454;-1.3466;2.6802;0.8289;-0.2314;-1.6359;-0.2292;0.5;-13.05;-3.11;-22.52;251.6;18.53;-86.7;0.0;35.95827;-83.92411;730.2;NaN;0.0;808.3624;;3 / 7;97506;2022-10-28 13:56:40:303
14.1751;-3.4941;1.0543;9.3785;-2.6518;1.087;2.6909;-1.3251;-1.7493;-0.3392;-0.0489;0.2632;1.1;-12.06;-13.44;-23.19;231.91;14.19;-81.19;0.0;35.95827;-83.92411;730.2;NaN;0.0;808.3624;;3 / 7;98006;2022-10-28 13:56:40:803
9.4666;-3.1086;-1.6385;8.8636;-4.041;1.1299;0.5297;0.6865;-1.7143;0.7736;-0.844;0.3908;0.4;-21.09;-20.21;-25.16;216.81;23.51;-80.41;0.0;35.95827;-83.92411;730.2;NaN;0.0;808.3624;;3 / 7;98506;2022-10-28 13:56:41:303
7.1441;-3.7158;2.5579;8.9905;-3.4132;1.9212;-1.4586;0.4078;1.7416;-2.2349;-0.3083;-0.6625;0.9;-29.98;-29.59;-26.36;205.46;20.37;-77.94;0.0;35.95827;-83.92411;730.2;NaN;0.0;808.3624;;3 / 7;99006;2022-10-28 13:56:41:803
8.4849;-2.5675;-2.7377;9.2273;-2.8487;-1.7065;-0.5853;0.3598;-1.1611;-0.7284;0.2471;0.2461;1.0;-42.37;-41.76;-25.67;213.2;16.68;-100.46;0.0;35.95827;-83.92411;730.2;NaN;0.0;808.3624;;3 / 7;99506;2022-10-28 13:56:42:303
8.0836;-4.1246;-1.934;8.9169;-3.7238;-1.6712;-0.0538;0.213;2.1756;-1.3455;0.0623;0.2864;0.0;-45.26;-24.67;-26.01;220.68;21.95;-99.2;0.0;35.95827;-83.92411;730.2;NaN;0.0;808.3624;;3 / 7;100006;2022-10-28 13:56:42:803
11.1763;-6.8985;-2.9267;9.0065;-3.3433;-1.9685;2.5211;-3.6831;-1.1824;0.3026;0.3503;-0.164;0.0;-42.28;-8.42;-19.28;235.22;19.97;-104.01;0.0;35.95827;-83.92411;730.2;NaN;0.0;808.3624;;3 / 7;100505;2022-10-28 13:56:43:302
8.5603;-3.6365;-2.0728;9.0467;-3.0387;-2.2569;-1.3133;0.2501;-0.4695;-0.7425;0.7308;0.3993;0.0;-33.11;-10.91;0.62;198.94;18.05;-104.01;0.0;35.95827;-83.92411;730.2;NaN;0.0;808.3624;;3 / 7;101006;2022-10-28 13:56:43:803
8.4589;-4.0433;0.5279;8.7595;-4.4031;-0.2318;-0.4054;0.3311;2.4246;-1.3914;-0.4352;0.227;0.0;-28.91;-17.03;-7.22;194.42;26.11;-90.4;0.0;35.95827;-83.92411;730.2;NaN;0.0;808.3624;;3 / 5;101506;2022-10-28 13:56:44:303
11.1;-6.3589;2.353;8.8379;-4.1996;0.6526;1.6526;-2.5106;-1.099;-0.8384;1.2206;-0.8626;1.0;-27.17;-5.57;-9.92;208.59;27.21;-89.3;0.0;35.95827;-83.92411;730.2;NaN;0.0;808.3624;;3 / 5;102006;2022-10-28 13:56:44:803
8.4027;-2.566;-1.1955;9.4211;-2.661;-0.5771;-0.495;0.5384;-0.699;-0.9712;0.2459;-0.0958;3.0;-22.14;6.11;-11.77;269.13;16.28;-93.38;0.0;35.95827;-83.92411;730.2;NaN;0.0;808.3624;;0 / 5;102506;2022-10-28 13:56:45:303
6.4394;-2.9719;1.4785;9.0085;-3.8717;-0.1625;-1.7813;0.5277;1.9691;-0.3184;-0.3163;0.2517;0.0;-18.34;18.47;-16.12;300.32;23.25;-91.03;0.0;35.95827;-83.92411;730.2;NaN;0.0;808.3624;;0 / 5;103006;2022-10-28 13:56:45:803
12.3036;-6.1947;0.4702;8.6893;-4.0955;1.9731;4.1661;-1.4437;-1.2003;-0.1758;0.7582;-0.5797;6.5;-13.48;29.06;-21.21;317.36;24.69;-77.21;0.0;35.95827;-83.92411;730.2;NaN;0.0;808.3624;;0 / 5;103507;2022-10-28 13:56:46:304
8.8825;-3.1911;-2.0088;9.4689;-2.5305;-0.3266;-0.3534;-0.6961;-0.8952;-0.4589;-0.1624;-0.0906;0.8;-15.24;29.64;-22.48;318.44;15.3;-90.88;0.0;35.95827;-83.92411;730.2;NaN;0.0;808.3624;;0 / 5;104007;2022-10-28 13:56:46:804
7.5906;-1.9968;0.4229;8.9792;-3.9255;-0.368;-2.1708;0.5403;1.7933;-1.4173;-0.6118;0.276;0.0;-14.34;27.69;-21.37;314.4;22.76;-88.41;0.0;35.95827;-83.92411;730.2;NaN;0.0;808.3624;;0 / 5;104506;2022-10-28 13:56:47:303
11.5866;-8.0004;1.5347;8.2078;-4.9542;2.0635;2.4462;-0.1337;-0.6667;0.035;0.9009;-0.4264;2.0;-7.13;33.43;-24.38;315.69;30.34;-75.89;0.0;35.95827;-83.92411;730.2;NaN;0.0;808.3624;;0 / 5;105005;2022-10-28 13:56:47:802
8.6818;-1.9184;-0.0159;9.2696;-3.1378;0.6322;-0.2564;0.6597;-0.5854;-0.1203;0.3397;-0.471;2.9;-7.84;31.26;-29.01;312.69;18.66;-86.1;0.0;35.95827;-83.92411;730.2;NaN;0.0;808.3624;;0 / 5;105505;2022-10-28 13:56:48:302
7.1258;-3.4131;0.9763;8.9273;-4.0167;0.5828;-1.5739;0.7465;0.5874;-0.1038;-0.017;0.1458;0.0;-8.55;28.07;-30.07;305.88;23.65;-85.83;0.0;35.95827;-83.92411;730.2;NaN;0.0;808.3624;;0 / 5;106006;2022-10-28 13:56:48:803
9.46;-5.1156;7.3669;7.7086;-4.1105;4.4554;3.7758;-1.0236;0.2718;-0.3019;-0.4332;-0.6506;0.0;-1.31;32.14;-35.7;303.14;26.94;-61.42;0.0;35.958134;-83.92448;721.3;NaN;0.0;797.0946;;0 / 5;106506;2022-10-28 13:56:49:303
9.1657;-2.7942;0.9033;9.3061;-2.3733;1.9837;-1.2681;0.4202;-0.3512;-0.1092;0.7176;-0.2785;0.0;-5.01;30.92;-37.67;306.75;14.01;-77.97;0.0;35.958134;-83.92448;721.3;NaN;0.0;797.0946;;0 / 5;107007;2022-10-28 13:56:49:804
6.6042;-2.9515;2.8848;8.6293;-4.1265;2.1629;-1.7035;1.0398;0.6261;-0.8747;-0.0486;0.1965;0.0;-4.46;30.19;-39.17;300.36;24.88;-75.93;0.0;35.958134;-83.92448;721.3;NaN;0.0;797.0946;;0 / 5;107506;2022-10-28 13:56:50:303
9.1319;-2.9925;4.1536;8.7945;-3.6516;2.3436;1.0781;-0.2846;2.0693;-1.0535;-0.9967;-0.4133;0.0;-1.2;32.64;-39.07;304.73;22.18;-70.02;0.0;35.958134;-83.92448;721.3;NaN;0.0;797.0946;;0 / 5;108005;2022-10-28 13:56:50:802
10.6881;-1.5837;1.48;9.1904;-2.5467;2.2849;0.0277;1.0653;-0.9579;0.1256;0.5059;-0.0437;2.6;-9.47;28.59;-36.41;305.16;15.65;-79.33;0.0;35.958134;-83.92448;721.3;NaN;0.0;797.0946;;0 / 5;108506;2022-10-28 13:56:51:303
7.2658;-3.7983;0.8085;8.8747;-4.1609;0.3104;-1.7406;0.0686;1.3055;-0.8635;-0.5417;0.1844;1.3;-13.52;27.79;-35.66;298.02;25.11;-88.0;0.0;35.958134;-83.92448;721.3;NaN;0.0;797.0946;;0 / 5;109007;2022-10-28 13:56:51:804
12.5495;-7.185;-1.6869;9.0479;-3.6396;-1.0295;0.5294;0.5249;-3.2318;0.5002;-0.1009;-0.4345;0.0;-16.18;32.25;-26.76;310.34;23.27;-95.77;0.0;35.958134;-83.92448;721.3;NaN;0.0;797.0946;;0 / 5;109506;2022-10-28 13:56:52:303
8.5756;-2.2292;-4.5398;9.3431;-2.5964;-1.4612;-0.3172;0.9892;-2.6137;-2.0443;0.5152;-0.0413;0.0;-18.43;25.05;-19.26;312.51;16.67;-98.4;0.0;35.958134;-83.92448;721.3;NaN;0.0;797.0946;;0 / 5;110005;2022-10-28 13:56:52:802
7.8709;-5.9617;3.1125;8.691;-3.6571;2.695;-0.8393;-2.2424;0.5347;1.1198;1.3188;0.9017;0.0;-19.97;21.56;-7.73;339.64;19.74;-81.79;0.0;35.958134;-83.92448;721.3;NaN;0.0;797.0946;;3 / 5;110506;2022-10-28 13:56:53:303
5.5869;-4.7731;6.6257;7.0407;-4.6718;4.9772;0.0688;0.9764;-0.9832;0.5885;2.1971;0.4539;1.3;-17.36;26.51;-8.98;9.55;28.45;-54.74;0.0;35.958134;-83.92448;721.3;NaN;0.0;797.0946;;3 / 5;111006;2022-10-28 13:56:53:803
8.6133;-2.1793;1.4635;9.1878;-2.9855;1.6857;-2.115;0.5501;1.2501;-0.7062;-0.2324;-0.4508;0.0;-17.85;19.43;-3.41;3.85;18.82;-77.98;0.0;35.958134;-83.92448;721.3;NaN;0.0;797.0946;;3 / 5;111506;2022-10-28 13:56:54:303
13.0182;-2.0462;3.8934;8.9542;-2.3266;3.2525;2.2583;-1.5913;-0.3592;-0.7978;-0.0582;-0.0238;0.0;-19.78;2.33;1.89;105.13;13.72;-70.04;0.0;35.958134;-83.92448;721.3;NaN;0.0;797.0946;;3 / 5;112006;2022-10-28 13:56:54:803
7.3681;-2.9453;0.2252;8.9562;-3.9946;-0.0102;-1.3881;0.9782;0.2185;-1.0357;-0.3134;0.0488;0.0;-22.78;-4.87;-0.08;176.6;23.86;-87.95;0.0;35.958134;-83.92448;721.3;NaN;0.0;797.0946;;3 / 5;112506;2022-10-28 13:56:55:303
9.1226;-3.6455;2.7978;9.348;-2.9639;5.0E-4;1.6914;-2.3493;-0.3403;1.0041;1.7015;0.1084;0.0;-23.12;-23.03;5.59;176.34;17.5;-100.13;0.0;35.958134;-83.92448;721.3;NaN;0.0;797.0946;;3 / 5;113006;2022-10-28 13:56:55:803
11.0264;-2.7;-0.0254;9.5303;-2.2812;0.3734;0.4132;-0.4061;-2.5164;-0.5582;0.3653;0.1125;0.0;-24.32;-36.15;5.25;174.44;13.9;-92.46;0.0;35.958134;-83.92448;721.3;NaN;0.0;797.0946;;3 / 5;113506;2022-10-28 13:56:56:303
8.685;-3.425;0.4184;8.6896;-4.154;1.8452;-1.5862;0.0424;0.8608;1.0727;-0.1142;0.3763;0.0;-26.46;-31.35;-1.33;173.52;25.06;-78.01;0.0;35.958134;-83.92448;721.3;NaN;0.0;797.0946;;3 / 5;114006;2022-10-28 13:56:56:803
7.4722;-3.128;6.0398;7.7233;-3.6134;4.844;0.3335;-2.2816;4.0391;-0.0644;-0.5226;-0.6809;0.0;-31.03;-15.39;-6.73;151.76;23.72;-51.97;0.0;35.958134;-83.92448;721.3;NaN;0.0;797.0946;;3 / 5;114506;2022-10-28 13:56:57:303
8.5493;-1.9974;0.9811;9.2759;-2.7264;1.6413;-0.9641;0.4392;-0.2199;0.1416;0.5064;-0.2265;0.0;-16.95;-15.9;5.44;159.49;16.95;-81.43;0.0;35.958134;-83.92448;721.3;NaN;0.0;797.0946;;3 / 5;115006;2022-10-28 13:56:57:803
6.251;-4.4707;3.8716;8.5548;-3.6141;3.1504;-2.4116;-1.1204;1.0833;-0.9738;-0.0555;0.1615;0.0;-13.86;-8.04;1.41;153.06;19.71;-68.76;0.0;35.958134;-83.92448;721.3;NaN;0.0;797.0946;;3 / 5;115506;2022-10-28 13:56:58:303
7.8171;-4.7213;4.4919;6.5631;-4.8191;5.4655;-1.7097;-0.9562;0.8584;0.0462;-1.4907;-0.9807;0.0;-16.26;-4.59;-10.33;169.32;29.43;-50.21;0.0;35.958134;-83.92448;721.3;NaN;0.0;797.0946;;3 / 5;116006;2022-10-28 13:56:58:803
8.8316;-1.631;1.2736;9.4151;-2.4724;1.1886;-0.6827;0.3792;0.0552;0.6101;0.1807;-0.1459;0.0;-15.79;-9.88;-11.21;213.25;15.47;-84.11;0.0;35.958134;-83.92448;721.3;NaN;0.0;797.0946;;3 / 5;116506;2022-10-28 13:56:59:303
12.8306;-2.8789;2.3228;9.2572;-2.5502;1.9927;4.69;1.177;0.7187;0.2141;-1.0;0.68;0.0;-14.06;-11.31;-6.75;193.83;13.86;-76.46;0.0;35.958134;-83.92448;721.3;NaN;0.0;797.0946;;3 / 5;117005;2022-10-28 13:56:59:802
8.8567;-3.4065;-0.987;8.9184;-4.0782;-0.0336;-0.0146;0.4251;-0.365;0.6004;-0.9516;0.2756;3.0;-15.58;-1.65;0.11;175.66;23.69;-87.76;0.0;35.958134;-83.92448;721.3;NaN;0.0;797.0946;;3 / 5;117506;2022-10-28 13:57:00:303
9.7101;-1.7949;2.4191;9.0475;-3.105;2.1617;-0.8333;0.8063;2.6689;-0.7825;-1.6972;-0.4892;0.7;-17.59;10.11;-0.71;39.69;18.46;-76.56;0.0;35.958134;-83.92448;721.3;NaN;0.0;797.0946;;3 / 5;118006;2022-10-28 13:57:00:803
8.9432;-1.6842;0.1959;9.5173;-2.2304;0.7849;-0.5203;0.3499;-0.9133;0.4487;0.861;0.0109;3.8;-14.44;10.84;4.74;35.66;13.23;-88.31;0.0;35.958134;-83.92448;721.3;NaN;0.0;797.0946;;3 / 5;118506;2022-10-28 13:57:01:303
7.5984;-3.5898;2.9647;9.1747;-3.2604;1.1683;-1.2283;0.0441;1.0477;0.487;0.5185;0.4487;1.6;-12.38;17.57;-0.19;4.36;17.99;-85.1;0.0;35.958134;-83.92448;721.3;NaN;0.0;797.0946;;3 / 5;119006;2022-10-28 13:57:01:803
7.2829;-4.8488;3.5695;8.3464;-4.3175;2.8049;0.4921;0.2977;-1.8252;0.6991;2.0815;0.4256;7.5;-4.48;30.23;-3.81;352.71;25.23;-79.69;0.0;35.958134;-83.92448;721.3;NaN;0.0;797.0946;;2 / 5;119506;2022-10-28 13:57:02:303
7.4447;-2.9022;2.0013;9.2872;-2.9415;1.1252;-2.0932;0.5763;0.4613;-0.2683;0.2163;-0.3056;0.9;-0.66;35.34;-13.65;337.08;17.45;-83.09;0.0;35.958134;-83.92448;721.3;NaN;0.0;797.0946;;2 / 5;120005;2022-10-28 13:57:02:802
13.1172;-3.9559;0.3805;9.4225;-2.3543;1.3577;2.1614;-1.3002;-0.8069;-0.6853;-0.5706;0.1734;0.7;-1.84;29.89;-14.46;334.27;13.89;-81.8;0.0;35.958134;-83.92448;721.3;NaN;0.0;797.0946;;0 / 5;120506;2022-10-28 13:57:03:303
8.1072;-4.2511;-2.3453;8.8887;-4.118;-0.4513;-0.5993;-0.0937;-0.7194;0.6358;-0.8899;0.12;2.4;-2.16;22.97;-16.58;319.74;24.29;-89.12;0.0;35.958134;-83.92448;721.3;NaN;0.0;797.0946;;0 / 5;121006;2022-10-28 13:57:03:803
7.9699;-2.3907;0.4795;9.2528;-3.2309;0.3422;-0.7854;1.3366;0.5403;-0.6437;-0.5918;-0.3134;1.3;-4.05;15.04;-19.09;303.15;20.31;-85.49;0.0;35.958134;-83.92448;721.3;NaN;0.0;797.0946;;0 / 8;121506;2022-10-28 13:57:04:303
8.6704;-1.6457;1.6621;9.3123;-2.2559;2.0884;-0.542;0.6133;-1.0119;0.3949;0.8705;-0.0395;0.1;-12.52;-0.75;-17.34;250.94;13.3;-77.36;0.0;35.958134;-83.92448;721.3;NaN;0.0;797.0946;;0 / 8;122005;2022-10-28 13:57:04:802
5.7293;-4.3026;5.5645;8.7545;-3.61;2.5489;-2.6886;-0.1871;3.3295;-0.9725;0.0941;-0.0631;0.8;-18.92;-5.4;-19.59;225.98;21.6;-73.77;0.0;35.958134;-83.92448;721.3;NaN;0.0;797.0946;;0 / 8;122506;2022-10-28 13:57:05:303
8.729;-3.6173;-2.7018;8.9044;-3.8815;-1.3474;-0.527;0.5522;-0.7685;-0.5397;-0.0188;-0.2462;0.0;-29.59;-8.14;-14.12;225.11;23.32;-98.6;0.0;35.958134;-83.92448;721.3;NaN;0.0;797.0946;;0 / 8;123006;2022-10-28 13:57:05:803
8.403;-2.2735;-1.0804;9.1075;-2.8811;-2.2186;-0.0074;-0.0819;2.1308;-1.3714;0.4314;0.2559;0.8;-26.25;-12.67;-12.94;226.29;16.98;-105.76;0.0;35.958134;-83.92448;721.3;NaN;0.0;797.0946;;0 / 8;123505;2022-10-28 13:57:06:302
10.8431;-3.4499;-2.3052;9.0566;-2.8486;-2.4564;2.7191;0.1508;-0.8842;0.331;-0.7238;0.0657;0.0;-19.24;-7.59;-20.57;245.72;16.89;-105.18;0.0;35.958134;-83.92448;721.3;NaN;0.0;797.0946;;0 / 8;124006;2022-10-28 13:57:06:803
9.3066;-2.0171;-3.0975;8.9455;-3.5286;-1.9229;-1.046;0.6281;-1.2142;0.05;0.0812;-0.0951;0.0;-11.96;2.04;-21.32;268.09;21.09;-102.13;0.0;35.958134;-83.92448;721.3;NaN;0.0;797.0946;;0 / 8;124506;2022-10-28 13:57:07:303
9.5327;-2.4413;-0.1032;9.1426;-2.8843;-2.0651;0.0436;-0.1776;2.1859;-2.6862;0.1701;0.1069;0.0;-4.29;-3.73;-24.21;261.51;18.64;-100.63;0.0;35.958134;-83.92448;721.3;NaN;0.0;797.0946;;0 / 8;125006;2022-10-28 13:57:07:803
7.1004;-4.4608;0.5282;9.0171;-3.4129;-1.793;1.738;-1.8505;0.9538;-0.156;0.9279;0.7085;0.0;6.28;-5.12;-27.79;267.82;18.5;-102.27;0.0;35.958134;-83.92448;721.3;NaN;0.0;797.0946;;0 / 8;125506;2022-10-28 13:57:08:303
6.6087;-5.2472;3.6715;7.5331;-5.4784;3.0674;-0.6551;1.0602;-1.1174;0.4742;1.2092;-0.0437;0.0;15.84;-1.74;-19.54;275.6;33.96;-67.84;0.0;35.958134;-83.92448;721.3;NaN;0.0;797.0946;;0 / 8;126006;2022-10-28 13:57:08:803
8.6046;-1.8395;2.7766;8.9795;-3.4673;1.8753;0.042;2.6101;2.4976;0.2351;-0.7875;-0.5685;0.0;15.43;0.68;-9.56;292.8;20.71;-78.2;0.0;35.958134;-83.92448;721.3;NaN;0.0;797.0946;;0 / 8;126507;2022-10-28 13:57:09:304
13.3095;-4.3899;2.6752;9.3416;-2.8357;0.9298;4.9352;-1.0863;1.7419;-0.2793;-0.4158;0.508;0.0;13.24;13.09;4.76;11.64;14.95;-82.7;0.0;35.958134;-83.92448;721.3;NaN;0.0;797.0946;;0 / 8;127006;2022-10-28 13:57:09:803
7.6899;-3.3721;-1.3409;8.6068;-4.436;1.554;-0.8243;1.0581;-2.9498;1.4059;0.3339;0.3737;2.0;15.53;20.33;8.61;17.41;26.23;-86.21;0.0;35.958134;-83.92448;721.3;NaN;0.0;797.0946;;0 / 8;127505;2022-10-28 13:57:10:302
9.2378;-0.853;2.1679;8.6142;-3.5039;3.1128;0.8035;1.8218;2.2075;-1.0559;-3.4717;-0.4183;0.0;11.08;28.41;5.76;3.56;20.93;-70.13;0.0;35.958134;-83.92448;721.3;NaN;0.0;797.0946;;0 / 8;128006;2022-10-28 13:57:10:803
9.3069;-1.5586;2.2394;9.1637;-2.5925;2.34;-1.4438;0.308;0.238;-0.2616;0.302;-0.3158;0.0;11.19;34.88;6.64;6.73;16.45;-77.11;0.0;35.958134;-83.92448;721.3;NaN;0.0;797.0946;;5 / 7;128584;2022-10-28 13:57:11:381
7.8685;-3.1789;0.0652;8.856;-4.1948;-0.3801;-0.8553;1.0646;0.5326;-0.1102;-0.8039;0.1778;0.0;17.36;39.06;0.19;359.77;24.73;-89.43;0.0;35.958134;-83.92448;721.3;NaN;0.0;797.0946;;5 / 7;128980;2022-10-28 13:57:11:777
9.1801;-5.575;3.7645;7.8401;-4.424;3.8898;0.2847;0.2736;0.1649;0.2468;0.0561;-0.2922;0.0;24.81;35.83;-11.44;332.36;26.82;-63.61;0.0;35.958134;-83.92448;721.3;NaN;0.0;797.0946;;0 / 8;129657;2022-10-28 13:57:12:454
8.2343;-2.2193;1.5712;9.1462;-2.4711;2.532;-1.0935;-0.0333;-0.6473;-0.0744;0.2604;-0.3412;0.0;17.04;23.53;-16.24;323.0;15.59;-74.8;0.0;35.958134;-83.92448;721.3;NaN;0.0;797.0946;;0 / 8;129960;2022-10-28 13:57:12:757
9.7968;-3.8865;3.9197;8.755;-2.6562;3.5307;2.2578;-1.0443;1.7212;-0.4345;-0.9912;0.5117;0.0;9.51;20.91;-12.38;324.78;13.9;-65.28;0.0;35.958134;-83.92448;721.3;NaN;0.0;797.0946;;0 / 8;130460;2022-10-28 13:57:13:257
8.8439;-4.785;0.923;8.5551;-4.5409;1.5362;-0.9589;0.2159;-0.1633;0.1994;0.2991;0.1268;0.0;4.44;19.52;-2.74;349.27;27.58;-79.82;0.0;35.958134;-83.92448;721.3;NaN;0.0;797.0946;;0 / 8;130960;2022-10-28 13:57:13:757
7.4677;-2.1338;4.5437;8.3605;-3.4011;3.8347;-1.019;0.6615;2.9938;-0.4725;-1.1174;-0.7926;0.0;0.79;17.27;-3.71;345.55;21.63;-60.02;0.0;35.958134;-83.92448;721.3;NaN;0.0;797.0946;;0 / 8;131460;2022-10-28 13:57:14:257
9.3996;-1.7204;1.4961;9.2131;-2.1407;2.5897;0.1907;0.4492;-0.852;0.1192;0.7972;-0.0883;0.0;-4.31;11.81;-0.81;359.5;13.22;-77.27;0.0;35.958134;-83.92448;721.3;NaN;0.0;797.0946;;0 / 8;131960;2022-10-28 13:57:14:757
6.9512;-3.102;2.5125;8.9511;-3.7674;1.3622;-1.8173;0.782;1.2201;-0.0246;-0.2577;0.2249;0.0;-4.41;10.97;-1.29;357.82;21.8;-80.56;0.0;35.958134;-83.92448;721.3;NaN;0.0;797.0946;;0 / 8;132462;2022-10-28 13:57:15:259
10.8781;-7.2251;5.1763;8.0815;-4.1366;3.7077;3.5347;-0.4684;-1.4364;0.7012;0.8511;-0.2835;0.0;-1.46;20.72;-6.94;341.16;24.95;-65.35;0.0;35.958134;-83.92448;721.3;NaN;0.0;797.0946;;0 / 8;132960;2022-10-28 13:57:15:757
8.0809;-1.7333;0.9981;9.2964;-3.1069;0.3072;-1.7055;0.6466;1.5557;-1.6846;-1.249;-0.2207;0.0;-1.01;24.98;-8.06;341.26;18.85;-82.71;0.0;35.958134;-83.92448;721.3;NaN;0.0;797.0946;;0 / 8;133611;2022-10-28 13:57:16:408
6.5031;-4.3603;0.3443;9.3514;-2.5823;-1.4327;-1.2514;-1.8519;1.0997;0.1741;1.5583;0.4601;0.0;-2.16;26.63;-2.42;354.84;13.91;-100.46;0.0;35.958134;-83.92448;721.3;NaN;0.0;797.0946;;0 / 8;133955;2022-10-28 13:57:16:752
9.0784;-3.0784;-3.6724;9.05;-3.1902;-2.0226;-0.1204;-0.0571;-0.9386;0.2463;-0.1907;-0.241;0.0;-8.44;21.51;-3.49;345.84;19.62;-102.17;0.0;35.958134;-83.92448;721.3;NaN;0.0;797.0946;;0 / 8;134455;2022-10-28 13:57:17:252
8.5902;-1.2667;-2.9121;9.0969;-2.6849;-2.4916;-0.2698;1.4221;-0.3485;-2.1588;-0.1032;0.0939;0.0;-16.91;14.25;7.03;18.87;17.4;-103.91;0.0;35.958134;-83.92448;721.3;NaN;0.0;797.0946;;0 / 8;135160;2022-10-28 13:57:17:957
9.944;-4.0355;-1.2075;9.0425;-2.6849;-2.6824;2.4722;-0.7896;0.9715;-0.4836;-0.1701;0.1476;0.0;-24.06;6.23;10.03;115.33;15.89;-106.52;0.0;35.958134;-83.92448;721.3;NaN;0.0;797.0946;;0 / 8;135520;2022-10-28 13:57:18:317
10.2263;-4.8829;-4.1046;8.9405;-3.3416;-2.2523;-0.7314;-0.6064;-1.52;0.3103;0.0208;-0.1282;0.0;-29.74;2.98;12.06;151.97;19.92;-104.14;0.0;35.958134;-83.92448;721.3;NaN;0.0;797.0946;;0 / 8;135931;2022-10-28 13:57:18:728
10.1785;-2.0001;0.8004;9.5128;-2.3792;0.1282;-0.6517;0.1208;1.4709;-2.8026;1.2745;-0.3195;0.0;-34.24;-1.8;17.74;122.44;15.23;-91.26;0.0;35.958134;-83.92448;721.3;NaN;0.0;797.0946;;0 / 8;136389;2022-10-28 13:57:19:186
12.1469;-2.5077;2.9136;9.2658;-2.2969;2.2449;1.2468;-0.6119;0.0109;-1.4778;-0.1408;0.122;0.0;-38.46;-13.84;-2.49;162.62;13.55;-76.38;0.0;35.958134;-83.92448;721.3;NaN;0.0;797.0946;;0 / 8;136942;2022-10-28 13:57:19:739
8.0845;-4.2359;2.4688;8.2919;-4.4817;2.7073;0.2268;0.5089;-4.3439;0.6825;2.9117;0.284;0.0;-41.85;-9.11;-10.59;190.24;27.23;-81.95;0.0;35.958218;-83.924614;768.09;NaN;0.0;180.09967;;3 / 9;137354;2022-10-28 13:57:20:151
8.0106;-2.1712;2.7969;9.2363;-2.9496;1.4702;-1.1378;1.2208;1.2643;0.2518;0.3628;-0.3082;0.0;-42.39;-10.27;-6.71;183.75;18.78;-82.58;0.0;35.958218;-83.924614;768.09;NaN;0.0;180.09967;;3 / 9;137854;2022-10-28 13:57:20:651
9.8324;-1.3466;1.8437;9.2421;-2.2024;2.4296;0.2765;1.0854;-0.4813;0.005;0.2159;-0.023;0.0;-41.89;-12.41;0.47;152.84;12.98;-75.27;0.0;35.958218;-83.924614;768.09;NaN;0.0;180.09967;;3 / 9;138429;2022-10-28 13:57:21:226
8.3695;-3.7645;2.5131;8.344;-4.3078;2.827;0.3564;0.4264;-3.0404;0.5677;2.2445;0.4418;0.0;-37.91;0.9;-3.71;166.67;25.29;-78.53;0.0;35.958218;-83.924614;768.09;NaN;0.0;180.09967;;3 / 9;138961;2022-10-28 13:57:21:758
7.7034;-2.2496;2.0862;9.0912;-3.2073;1.7985;-1.4816;1.3268;0.4333;-0.3547;-0.5762;-0.4266;0.0;-30.49;10.11;-13.97;262.34;19.09;-78.81;0.0;35.958218;-83.924614;768.09;NaN;0.0;180.09967;;3 / 9;139492;2022-10-28 13:57:22:289
12.8626;-3.883;3.0661;9.1868;-2.4768;2.3747;3.4404;-0.4244;0.2365;0.4819;0.2522;0.2508;0.0;-24.67;0.66;-11.25;221.91;14.5;-77.14;0.0;35.958218;-83.924614;768.09;NaN;0.0;180.09967;;3 / 9;139781;2022-10-28 13:57:22:578
7.9582;-3.6613;0.4938;8.6283;-4.4012;1.5339;-0.7004;0.8867;-2.6329;1.1664;2.0885;0.4283;0.0;-19.44;-0.6;-14.61;233.17;25.89;-84.41;0.0;35.958218;-83.924614;768.09;NaN;0.0;180.09967;;3 / 9;140281;2022-10-28 13:57:23:078
8.4855;-2.6548;6.7567;7.8124;-4.3189;4.06;2.2748;-0.5364;-0.2487;-0.2889;0.1226;-0.4895;0.0;-15.28;-0.41;-20.29;227.5;26.13;-62.54;0.0;35.958218;-83.924614;768.09;NaN;0.0;180.09967;;3 / 9;140809;2022-10-28 13:57:23:606
14.246;-2.3112;4.7267;9.0511;-2.5573;2.7763;3.3822;-1.1715;0.552;-0.3522;-0.2391;-0.0317;0.0;-16.72;-14.19;-20.74;217.94;15.12;-72.95;0.0;35.958218;-83.924614;768.09;NaN;0.0;180.09967;;3 / 9;141256;2022-10-28 13:57:24:053
8.0073;-3.6595;1.6971;8.7941;-3.8801;1.9437;-1.24;-0.3835;0.4163;0.6173;-0.4529;0.3062;0.0;-23.1;-17.25;-11.77;194.82;23.31;-77.54;0.0;35.958218;-83.924614;768.09;NaN;0.0;180.09967;;3 / 9;141843;2022-10-28 13:57:24:640
8.86;-2.1658;5.0542;7.8603;-3.7031;4.5467;3.474;-1.2759;0.3953;-0.816;-1.9249;-0.6481;0.0;-27.9;-17.1;-7.2;163.11;22.19;-59.95;0.0;35.958218;-83.924614;768.09;NaN;0.0;180.09967;;3 / 9;142253;2022-10-28 13:57:25:050
11.0824;-2.415;2.7356;9.0318;-1.9369;3.2932;1.0829;0.8659;-0.4495;-0.6166;-0.4654;0.0095;0.0;-28.52;-26.78;-0.11;162.68;11.39;-69.97;0.0;35.958218;-83.924614;768.09;NaN;0.0;180.09967;;3 / 9;142685;2022-10-28 13:57:25:482
8.3707;-3.201;1.0834;8.6743;-4.1199;1.9882;-0.6127;0.9148;0.3201;0.0893;-0.5804;0.3531;0.0;-35.7;-27.13;-3.51;174.03;24.84;-77.09;0.0;35.958218;-83.924614;768.09;NaN;0.0;180.09967;;3 / 9;143176;2022-10-28 13:57:25:973
9.3141;-4.8182;5.5636;8.087;-3.8324;4.0105;3.5672;-1.0434;-1.4768;-0.2384;-0.1809;-0.5813;0.0;-40.63;-25.48;-7.57;166.86;24.82;-66.11;0.0;35.958218;-83.924614;768.09;NaN;0.0;180.09967;;3 / 9;143727;2022-10-28 13:57:26:524
8.7278;-2.0004;2.6976;8.9287;-1.8483;3.6101;-0.0032;-0.2512;-0.7926;-0.3035;0.6118;-0.1992;0.0;-35.18;-42.11;-11.55;178.37;10.59;-68.95;0.0;35.958218;-83.924614;768.09;NaN;0.0;180.09967;;3 / 9;144177;2022-10-28 13:57:26:974
6.6667;-3.9305;2.9064;8.7994;-3.8603;1.9591;-2.1503;-0.4032;1.5278;-1.5046;-0.1356;-0.0089;0.0;-32.7;-38.29;-31.05;204.67;23.18;-77.45;0.0;35.958218;-83.924614;768.09;NaN;0.0;180.09967;;3 / 9;144676;2022-10-28 13:57:27:473
11.7963;-5.9411;-0.6826;9.0721;-3.464;-1.367;0.2477;-0.778;-3.9635;0.8592;1.2866;-0.4235;0.0;-34.11;-28.24;-39.09;229.69;22.54;-97.87;0.0;35.958218;-83.924614;768.09;NaN;0.0;180.09967;;3 / 9;145176;2022-10-28 13:57:27:973
9.4624;-1.2066;-2.2086;9.517;-2.3227;-0.449;0.7353;1.3777;0.1075;-2.019;0.4859;-0.1206;0.0;-26.63;-33.81;-30.24;218.63;13.7;-92.7;0.0;35.958218;-83.924614;768.09;NaN;0.0;180.09967;;3 / 9;145675;2022-10-28 13:57:28:472
8.3067;-2.9333;3.2378;8.594;-4.2294;2.1038;-0.4182;1.4353;1.2125;0.0072;0.184;1.0725;0.0;-16.76;-16.76;-42.06;235.81;22.4;-77.77;0.0;35.958218;-83.924614;768.09;NaN;0.0;180.09967;;6 / 10;146175;2022-10-28 13:57:28:972
6.5847;-5.2977;0.4678;7.9511;-5.7014;0.6669;-0.2871;1.0226;-1.0644;0.7755;0.6521;0.5185;0.0;-19.84;8.61;-40.12;265.1;32.93;-89.72;0.0;35.958218;-83.924614;768.09;NaN;0.0;180.09967;;6 / 10;146676;2022-10-28 13:57:29:473
6.0419;-3.4493;3.3224;8.8123;-4.1601;1.099;-2.7253;0.0035;1.6581;0.0909;0.4692;-0.5794;0.0;-22.05;10.52;-42.97;267.42;27.05;-85.09;0.0;35.958218;-83.924614;768.09;NaN;0.0;180.09967;;6 / 10;147176;2022-10-28 13:57:29:973
12.3574;-3.8689;0.5746;9.0885;-3.3414;1.5506;1.2876;-1.0962;-0.0332;0.1111;-1.2488;-0.0911;0.0;-27.92;6.79;-42.51;262.01;19.92;-80.32;0.0;35.958218;-83.924614;768.09;NaN;0.0;180.09967;;6 / 10;147676;2022-10-28 13:57:30:473
7.8242;-3.521;-1.4453;8.9312;-3.9808;-0.7471;-1.7051;0.4157;-0.2455;0.8252;0.5476;0.1123;0.0;-37.91;2.85;-31.18;252.74;23.25;-96.16;0.0;35.958218;-83.924614;768.09;NaN;0.0;180.09967;;6 / 10;148176;2022-10-28 13:57:30:973
8.8223;-2.3438;-0.5575;9.2456;-3.2442;0.4062;1.4328;0.2416;0.1448;1.6378;0.1486;0.1435;0.0;-42.58;-2.87;-18.47;226.52;19.81;-90.4;0.0;35.958218;-83.924614;768.09;NaN;0.0;180.09967;;6 / 10;148675;2022-10-28 13:57:31:472
12.5255;-0.5788;-0.4839;9.0096;-2.8581;2.6133;2.7299;1.8093;-3.323;-0.684;0.9903;-1.0607;0.0;-37.65;-1.26;-9.73;189.84;19.93;-78.88;0.0;35.958218;-83.924614;768.09;NaN;0.0;180.09967;;6 / 10;149175;2022-10-28 13:57:31:972
0.4217;3.8411;8.3539;-0.4208;4.7703;8.5579;1.9507;-1.36;-0.7311;-0.0344;0.8799;-0.8299;154.0;0.62;-31.09;-16.93;180.5;-29.11;2.82;2.0;35.958218;-83.924614;768.09;NaN;0.0;180.09967;;6 / 10;149676;2022-10-28 13:57:32:473
-0.3431;6.5557;8.5983;-1.3131;6.3803;7.3306;0.0191;0.6858;0.566;0.7071;0.5124;0.135;190.4;33.06;-34.97;-18.88;249.96;-40.59;10.16;2.0;35.958218;-83.924614;768.09;NaN;0.0;180.09967;;6 / 10;150175;2022-10-28 13:57:32:972
-2.5714;7.9235;4.6968;-2.2031;8.0682;5.1206;-0.5767;0.0329;-0.0168;0.1204;-0.2623;-0.0092;138.3;39.24;-34.89;-6.71;265.76;-54.66;23.23;2.0;35.958218;-83.924614;768.09;NaN;0.0;180.09967;;6 / 10;150676;2022-10-28 13:57:33:473
-2.6665;7.969;5.452;-2.0577;7.7274;5.6766;-0.5754;0.2691;-0.3415;-0.4131;-0.5781;0.0482;138.3;40.8;-34.18;-2.74;261.59;-53.26;22.73;2.0;35.958218;-83.924614;768.09;NaN;0.0;180.09967;;6 / 10;151175;2022-10-28 13:57:33:972
-1.9113;7.2541;6.3015;-1.6893;7.2813;6.3482;-0.2952;0.1296;-0.096;-0.0748;-0.0396;0.0166;138.3;40.67;-33.88;-9.49;257.18;-47.94;14.9;2.0;35.958218;-83.924614;768.09;NaN;0.0;180.09967;;6 / 10;151676;2022-10-28 13:57:34:473
-3.2913;7.5503;5.1084;-2.9888;7.6402;5.3727;0.1478;-0.0985;0.2399;0.22;0.6459;-0.0903;138.3;40.8;-34.22;-8.08;266.05;-50.32;26.1;2.0;35.958218;-83.924614;768.09;NaN;0.0;180.09967;;6 / 10;152176;2022-10-28 13:57:34:973
-3.6479;7.8664;4.614;-3.3553;7.8656;4.8005;-0.2865;0.0515;-0.1785;-0.0576;-0.0687;-0.0404;121.7;40.89;-34.84;0.53;265.58;-53.56;34.76;2.0;35.958218;-83.924614;768.09;NaN;0.0;180.09967;;6 / 10;152675;2022-10-28 13:57:35:472