sep=;
ACCELEROMETER X (m/s²);ACCELEROMETER Y (m/s²);ACCELEROMETER Z (m/s²);GRAVITY X (m/s²);GRAVITY Y (m/s²);GRAVITY Z (m/s²);LINEAR ACCELERATION X (m/s²);LINEAR ACCELERATION Y (m/s²);LINEAR ACCELERATION Z (m/s²);GYROSCOPE X (rad/s);GYROSCOPE Y (rad/s);GYROSCOPE Z (rad/s);LIGHT (lux);MAGNETIC FIELD X (μT);MAGNETIC FIELD Y (μT);MAGNETIC FIELD Z (μT);ORIENTATION Z (azimuth °);ORIENTATION X (pitch °);ORIENTATION Y (roll °);PROXIMITY (i);SOUND LEVEL (dB);LOCATION Latitude : ;LOCATION Longitude : ;LOCATION Altitude ( m);LOCATION Altitude-google ( m);LOCATION Speed ( Kmh);LOCATION Accuracy ( m);LOCATION ORIENTATION (°);Satellites in range;Time since start in ms ;YYYY-MO-DD HH-MI-SS_SSS
0.4672;1.1653;7.8296;-0.5151;2.2343;9.5348;0.9335;-0.0697;-2.6841;-0.968;-1.4354;0.3898;23.0;35.42;-27.66;-20.91;236.89;-13.17;3.09;5.0;35.958298;-83.92447;775.92;NaN;0.0;17.892103;;0 / 0;6;2022-10-28 14:03:32:983
7.3217;-3.1487;0.652;8.4809;-0.1607;4.9213;-6.5126;-0.6351;3.3191;1.0894;-8.4529;3.3909;16.6;23.46;-29.12;-38.14;236.87;0.94;-59.87;5.0;35.958298;-83.92447;775.92;NaN;0.0;17.892103;;0 / 0;505;2022-10-28 14:03:33:482
7.4175;-6.0482;-0.1451;7.8472;-5.7969;-0.9943;-4.5143;1.2532;1.2796;0.6127;-0.0212;-0.8407;9.8;-30.13;-18.54;-16.74;214.11;39.18;-99.05;0.0;35.958298;-83.92447;775.92;NaN;0.0;17.892103;;0 / 0;1006;2022-10-28 14:03:33:983
5.6581;-5.3204;1.6621;8.0118;-5.0279;2.5887;1.1667;-3.9199;2.1322;0.8171;1.4956;0.0223;0.0;-41.66;-14.44;4.95;158.23;31.89;-78.57;0.0;35.958298;-83.92447;775.92;NaN;0.0;17.892103;;0 / 0;1505;2022-10-28 14:03:34:482
6.693;-5.6483;-4.0606;7.5765;-5.7056;-2.4927;-1.0625;1.2877;1.8269;0.4339;-0.7457;0.6876;0.0;-49.39;-16.58;3.64;195.46;35.58;-108.21;2.0;35.958298;-83.92447;775.92;NaN;0.0;17.892103;;0 / 0;2006;2022-10-28 14:03:34:983
2.9608;-6.4193;3.5554;7.5531;-6.2544;0.056;-2.6475;0.8775;1.2486;1.4362;-0.3642;0.9926;0.0;-55.03;-6.71;5.46;172.38;39.63;-89.58;2.0;35.958298;-83.92447;775.92;NaN;0.0;17.892103;;0 / 0;2506;2022-10-28 14:03:35:483
6.6009;-7.4435;-0.0867;7.0319;-6.542;-1.9811;0.4103;-1.464;1.7246;-0.5492;-0.1708;0.5707;0.0;-56.18;2.1;13.73;179.3;40.62;-103.6;2.0;35.958298;-83.92447;775.92;NaN;0.0;17.892103;;0 / 0;3006;2022-10-28 14:03:35:983
4.5174;-7.2559;-3.1606;6.3575;-7.2007;-1.9752;-1.8861;-0.1584;-1.2284;0.3126;-0.0505;-0.2983;0.0;-54.84;1.71;12.66;188.51;47.49;-109.39;2.0;35.958298;-83.92447;775.92;NaN;0.0;17.892103;;0 / 0;3505;2022-10-28 14:03:36:482
5.3818;-5.1634;-1.1124;7.5232;-6.0855;-1.5934;-2.4267;1.043;0.6099;0.4318;0.037;-0.2398;0.0;-51.64;-1.88;-2.4;201.17;38.36;-101.96;2.0;35.958298;-83.92447;775.92;NaN;0.0;17.892103;;0 / 0;4005;2022-10-28 14:03:36:982
8.5268;-5.8795;-1.9187;7.9672;-5.2237;-2.3252;4.8235;-2.6784;-0.9877;0.8811;-0.6745;-0.1387;0.0;-49.5;-13.71;-15.36;218.92;32.19;-106.27;0.0;35.958298;-83.92447;775.92;NaN;0.0;17.892103;;0 / 0;4506;2022-10-28 14:03:37:483
7.2766;-3.9598;-4.302;7.6825;-5.5155;-2.594;0.3926;-0.1322;-0.3918;0.233;-2.2254;-0.1152;0.0;-52.01;-28.31;-18.92;216.13;34.22;-108.66;0.0;35.958298;-83.92447;775.92;NaN;0.0;17.892103;;0 / 0;5005;2022-10-28 14:03:37:982
6.781;-2.6318;-1.8401;8.6041;-3.7562;-2.8338;-1.7624;1.0963;0.9731;0.4731;0.0186;-0.3547;0.0;-55.57;-40.07;-8.14;205.01;22.94;-109.57;0.0;35.958298;-83.92447;775.92;NaN;0.0;17.892103;;0 / 0;5506;2022-10-28 14:03:38:483
8.9761;-5.0919;-0.2689;8.8193;-4.1298;-1.1558;2.3884;-2.7749;-0.0197;0.3841;0.5908;0.2347;0.0;-55.67;-50.72;-12.13;195.53;24.91;-97.47;0.0;35.958298;-83.92447;775.92;NaN;0.0;17.892103;;0 / 0;6006;2022-10-28 14:03:38:983
6.5922;-5.502;-3.0156;8.015;-5.1549;-2.3145;-1.0631;0.0828;-1.5563;0.0981;0.752;0.0945;0.0;-61.37;-42.79;-15.49;205.67;31.71;-106.11;0.0;35.958298;-83.92447;775.92;NaN;0.0;17.892103;;0 / 0;6505;2022-10-28 14:03:39:482
7.4638;-2.0426;-2.3901;8.9221;-3.3906;-2.2519;-2.2319;1.363;1.6908;-0.5573;0.7252;-0.0341;0.0;-51.38;-40.12;-20.59;211.86;20.23;-104.17;0.0;35.958298;-83.92447;775.92;NaN;0.0;17.892103;;0 / 0;7006;2022-10-28 14:03:39:983
6.2249;-5.6779;1.663;8.6066;-4.5901;1.0143;-0.8141;-0.7626;-1.1985;0.2236;1.8145;0.3591;0.0;-39.88;-36.07;-34.35;218.99;27.08;-97.49;0.0;35.958298;-83.92447;775.92;NaN;0.0;17.892103;;0 / 0;7505;2022-10-28 14:03:40:482
7.1827;-5.123;-4.1608;8.3897;-4.4038;-2.5277;-1.128;0.1593;-2.2688;-0.5408;0.4772;0.0492;1.3;-40.89;-27.17;-37.8;232.62;26.68;-106.77;0.0;35.958298;-83.92447;775.92;NaN;0.0;17.892103;;0 / 0;8006;2022-10-28 14:03:40:983
7.7127;-4.2987;-2.1389;8.2531;-3.6714;-3.8181;-0.711;-0.6775;2.7123;-1.545;-1.0125;0.0383;0.0;-47.98;-24.86;-20.23;226.5;21.99;-114.83;0.0;35.958298;-83.92447;775.92;NaN;0.0;17.892103;;0 / 0;8506;2022-10-28 14:03:41:483
6.6257;-7.0905;0.0894;8.6426;-4.1158;-2.1299;0.8347;-1.771;0.5431;-0.4472;3.3089;0.4958;0.0;-46.59;-13.16;-7.89;212.24;24.82;-103.84;0.0;35.958298;-83.92447;775.92;NaN;0.0;17.892103;;0 / 0;9006;2022-10-28 14:03:41:983
11.9815;-10.2075;-2.8014;8.5909;-3.6587;-2.9967;1.8623;-1.424;-1.7663;0.0854;-0.2161;-0.4207;0.0;-43.69;-0.62;-1.61;224.15;21.84;-108.36;0.0;35.958298;-83.92447;775.92;NaN;0.0;17.892103;;0 / 0;9505;2022-10-28 14:03:42:482
8.2645;-2.8026;-2.9946;8.8061;-3.3526;-2.7172;-0.0485;0.7743;-0.007;-0.771;0.4832;0.2513;0.0;-36.9;-12.19;11.38;180.93;19.99;-107.15;0.0;35.958298;-83.92447;775.92;NaN;0.0;17.892103;;0 / 0;10005;2022-10-28 14:03:42:982
7.3801;-4.6603;-0.4047;8.7508;-4.3456;-0.8421;-0.862;-0.2413;0.0224;1.2105;1.1143;0.5379;0.0;-32.27;-8.38;11.87;157.83;26.3;-95.5;0.0;35.958298;-83.92447;775.92;NaN;0.0;17.892103;;0 / 0;10505;2022-10-28 14:03:43:482
6.3464;-6.7869;7.0576;6.325;-4.7021;5.8357;-1.6103;-0.3245;3.016;-0.0526;-1.2644;-0.5112;0.0;-23.76;-3.06;-11.12;150.82;28.65;-47.3;0.0;35.958298;-83.92447;775.92;NaN;0.0;17.892103;;0 / 0;11006;2022-10-28 14:03:43:983
7.5745;-2.6503;2.9058;8.6365;-3.5375;3.0112;-1.7143;0.6146;0.0146;0.0451;-0.2287;-0.0998;0.0;-18.83;-6.64;-16.84;212.69;21.44;-70.57;0.0;35.958298;-83.92447;775.92;NaN;0.0;17.892103;;0 / 0;11505;2022-10-28 14:03:44:482
10.8673;-4.0896;2.4018;8.9489;-3.7268;1.4829;3.702;-0.7016;1.0119;0.6725;-0.4855;0.4239;0.0;-22.16;-6.43;-14.68;217.25;22.34;-80.59;0.0;35.958298;-83.92447;775.92;NaN;0.0;17.892103;;0 / 0;12005;2022-10-28 14:03:44:982
7.9798;-3.9832;2.1045;8.0035;-4.7015;3.1641;1.4694;0.5463;-2.4844;0.4359;1.0889;0.1722;0.0;-21.15;-3.62;-17.61;209.34;28.65;-68.43;0.0;35.958298;-83.92447;775.92;NaN;0.0;17.892103;;0 / 0;12506;2022-10-28 14:03:45:483
7.8206;-2.1589;2.5316;8.7981;-3.6346;2.3565;-0.9326;1.5285;2.0229;-0.4222;-0.8487;-0.2784;0.0;-13.88;-3.92;-24.45;240.59;21.75;-75.01;0.0;35.958298;-83.92447;775.92;NaN;0.0;17.892103;;0 / 0;13006;2022-10-28 14:03:45:983
9.507;-2.9094;0.2821;9.1296;-3.273;1.4522;0.1579;0.8812;-0.5727;-0.2904;-0.1055;0.1526;0.0;-19.72;-1.99;-21.15;241.44;19.5;-80.96;0.0;35.958298;-83.92447;775.92;NaN;0.0;17.892103;;0 / 0;13506;2022-10-28 14:03:46:483
7.06;-3.8127;2.2247;8.4558;-4.5786;1.925;-1.6076;0.9829;0.6996;0.4791;-0.6783;0.2472;0.0;-15.62;5.49;-21.92;253.97;27.83;-77.17;0.0;35.958298;-83.92447;775.92;NaN;0.0;17.892103;;0 / 0;14005;2022-10-28 14:03:46:982
6.6;-2.9016;3.751;8.5326;-4.0008;2.7126;-1.0814;1.4567;3.7059;-0.61;-1.6142;-0.34;0.0;-3.82;6.08;-30.0;270.45;24.08;-72.36;0.0;35.958298;-83.92447;775.92;NaN;0.0;17.892103;;0 / 0;14506;2022-10-28 14:03:47:483
9.4187;-2.7452;-0.3251;9.263;-3.0562;1.0134;0.0162;0.9703;-0.9297;0.0709;-0.0172;0.0083;0.0;-11.33;13.54;-29.01;287.88;18.16;-83.76;0.0;35.958298;-83.92447;775.92;NaN;0.0;17.892103;;0 / 0;15005;2022-10-28 14:03:47:982
6.9476;-3.5447;2.3686;8.4207;-4.5328;2.1716;-1.6661;0.4227;0.8326;-0.6903;-0.3357;-0.0093;0.0;-3.68;15.45;-34.01;283.37;27.53;-75.54;0.0;35.958298;-83.92447;775.92;NaN;0.0;17.892103;;0 / 0;15506;2022-10-28 14:03:48:483
8.0405;-3.4651;6.1181;8.3016;-4.1021;3.2289;0.4208;-0.5694;4.3307;-0.4966;-1.6453;-0.4522;0.0;12.43;22.35;-38.64;294.73;24.73;-68.75;0.0;35.958298;-83.92447;775.92;NaN;0.0;17.892103;;0 / 0;16006;2022-10-28 14:03:48:983
9.5677;-3.0171;2.4829;8.8349;-2.7878;3.2161;-0.3507;0.4986;-1.2067;0.046;0.395;-0.2081;0.0;5.44;21.45;-44.85;291.23;16.92;-70.71;0.0;35.958298;-83.92447;775.92;NaN;0.0;17.892103;;0 / 0;16505;2022-10-28 14:03:49:482
7.1614;-4.1025;3.0933;8.2673;-4.1982;3.1934;-1.7891;0.5466;0.573;-0.6098;0.0286;0.0867;0.0;6.73;16.29;-43.24;283.99;25.35;-68.88;0.0;35.958298;-83.92447;775.92;NaN;0.0;17.892103;;0 / 0;17005;2022-10-28 14:03:49:982
9.6329;-6.9446;7.3582;6.9484;-3.9269;5.6982;5.1985;-2.3766;-0.5426;0.0034;0.4171;-0.4383;0.0;20.14;14.91;-36.07;284.92;23.61;-50.65;0.0;35.958298;-83.92447;775.92;NaN;0.0;17.892103;;0 / 0;17505;2022-10-28 14:03:50:482
8.0719;-2.895;-0.5013;9.3299;-2.9313;-0.7282;-1.1518;0.0364;0.553;-0.7736;-0.3268;-0.0876;0.0;-13.56;18.75;-17.53;307.07;17.39;-94.46;0.0;35.958298;-83.92447;775.92;NaN;0.0;17.892103;;0 / 0;18005;2022-10-28 14:03:50:982
12.1531;-5.2424;-0.1561;9.3057;-2.9658;0.8826;3.009;-2.3001;-1.0143;0.914;0.9545;0.645;0.0;-22.48;18.77;4.43;5.46;14.52;-97.17;0.0;35.958298;-83.92447;775.92;NaN;0.0;17.892103;;0 / 0;18506;2022-10-28 14:03:51:483
8.5834;-4.7079;-4.1913;8.9596;-3.3582;-2.1489;-0.2983;-0.4396;-0.6406;-0.1634;-0.0576;-0.1639;1.3;-17.91;18.39;22.09;61.95;20.03;-103.49;0.0;35.958298;-83.92447;775.92;NaN;0.0;17.892103;;0 / 0;19005;2022-10-28 14:03:51:982
8.237;-1.7973;-4.561;8.8358;-3.4806;-2.4465;-0.578;-0.1467;3.0267;-1.7314;-0.9595;0.0596;0.0;-14.46;12.62;36.21;82.72;20.79;-105.48;0.0;35.958298;-83.92447;775.92;NaN;0.0;17.892103;;0 / 0;19507;2022-10-28 14:03:52:484
5.519;-5.0276;2.4903;8.8324;-4.1705;0.8752;-3.2975;-0.7429;0.6133;-0.4971;2.795;0.3138;0.0;-17.33;1.09;42.32;99.07;23.88;-92.14;0.0;35.958298;-83.92447;775.92;NaN;0.0;17.892103;;0 / 0;20005;2022-10-28 14:03:52:982
10.9187;-6.2689;-3.9371;9.1261;-3.3631;-1.255;2.1072;-3.0494;-2.7086;0.0354;-0.4994;-0.5576;0.0;-21.34;-4.31;42.77;109.88;20.93;-100.49;0.0;35.958298;-83.92447;775.92;NaN;0.0;17.892103;;0 / 0;20506;2022-10-28 14:03:53:483
9.2142;-2.3698;-3.4328;9.4584;-2.5091;-0.6431;-0.2938;0.6817;-4.3446;-0.5903;0.6906;0.0534;0.0;-25.5;-9.24;34.5;115.68;14.82;-93.89;0.0;35.958298;-83.92447;775.92;NaN;0.0;17.892103;;0 / 0;21005;2022-10-28 14:03:53:982
6.1968;-3.1989;3.1968;8.7014;-4.2199;1.6276;-2.1811;0.0998;2.8453;-0.182;-0.1656;0.0935;0.0;-26.27;-15.97;23.68;129.68;25.49;-79.41;0.0;35.958298;-83.92447;775.92;NaN;0.0;17.892103;;0 / 0;21506;2022-10-28 14:03:54:483
10.9011;-3.8237;5.3103;8.7771;-3.8119;2.1452;2.3504;-1.862;0.9535;-0.3401;-0.1991;-0.6241;0.0;-27.81;-9.92;9.86;139.06;22.87;-76.27;0.0;35.958298;-83.92447;775.92;NaN;0.0;17.892103;;0 / 0;22005;2022-10-28 14:03:54:982
8.5621;-2.1341;1.1118;9.085;-2.7697;2.4417;-0.3292;0.674;-1.1071;-0.3141;1.1337;-0.2138;0.0;-31.61;-19.24;5.18;155.69;16.58;-76.95;0.0;35.958298;-83.92447;775.92;NaN;0.0;17.892103;;0 / 0;22506;2022-10-28 14:03:55:483
6.2662;-3.05;3.0326;8.7549;-4.1389;1.5463;-2.003;1.2797;1.3816;0.2356;0.0027;0.2207;0.0;-37.87;-23.31;1.91;166.77;24.96;-79.98;0.0;35.958298;-83.92447;775.92;NaN;0.0;17.892103;;0 / 0;23006;2022-10-28 14:03:55:983
9.23;-4.1483;7.6104;8.005;-3.8444;4.1607;3.1495;-1.0962;0.554;-0.3247;-0.271;-0.7049;0.0;-43.39;-17.06;3.09;143.19;23.08;-62.54;0.0;35.958298;-83.92447;775.92;NaN;0.0;17.892103;;0 / 0;23505;2022-10-28 14:03:56:482
9.2782;-2.184;1.2538;9.2132;-3.03;1.451;-0.3383;-0.1538;-0.7169;-0.1009;-0.0681;-0.137;0.0;-44.57;-16.37;9.06;150.87;18.0;-81.05;0.0;35.958298;-83.92447;775.92;NaN;0.0;17.892103;;0 / 0;24006;2022-10-28 14:03:56:983
7.1046;-3.4998;2.6614;8.5828;-4.101;2.3851;-1.9227;0.3658;1.4065;0.022;-0.0677;0.1537;0.0;-43.84;-14.85;5.44;151.31;24.4;-74.27;0.0;35.958298;-83.92447;775.92;NaN;0.0;17.892103;;0 / 0;24506;2022-10-28 14:03:57:483
8.45;-2.2552;5.0279;8.8279;-3.4769;2.4799;0.4919;-0.138;4.8032;-0.4968;-2.1251;-0.3935;0.0;-40.87;-11.29;-7.07;170.11;20.77;-74.31;0.0;35.958298;-83.92447;775.92;NaN;0.0;17.892103;;0 / 0;25006;2022-10-28 14:03:57:983
9.6706;-2.3844;1.3232;9.1921;-2.7374;2.0451;0.4212;0.6542;-0.442;0.1005;0.0066;0.0902;0.0;-41.76;-17.25;-5.4;171.41;16.21;-77.46;0.0;35.958298;-83.92447;775.92;NaN;0.0;17.892103;;0 / 0;25505;2022-10-28 14:03:58:482
7.59;-3.9808;1.5446;8.5864;-3.8512;2.7591;-1.3305;-0.0209;-0.1553;0.845;0.2194;0.4449;0.0;-39.04;-19.05;-10.93;177.5;23.12;-72.19;0.0;35.958298;-83.92447;775.92;NaN;0.0;17.892103;;0 / 0;26006;2022-10-28 14:03:58:983
7.8927;-1.8069;0.379;9.2285;-3.3116;0.1947;-0.3932;1.7427;2.2878;-0.512;-1.6595;-0.2333;0.0;-39.21;-7.8;-22.41;218.72;20.6;-83.74;0.0;35.958298;-83.92447;775.92;NaN;0.0;17.892103;;0 / 0;26506;2022-10-28 14:03:59:483
8.3584;-2.1434;-3.2049;9.3374;-2.9117;-0.7107;-0.7972;0.7796;-2.5033;0.0955;-0.066;0.0962;0.0;-49.89;-20.78;-16.37;209.79;17.27;-94.35;0.0;35.958298;-83.92447;775.92;NaN;0.0;17.892103;;0 / 0;27006;2022-10-28 14:03:59:983
7.4596;-4.2464;3.0278;9.106;-3.6376;-0.1361;-1.3747;-0.9933;3.6081;-0.8793;-0.4103;0.0862;0.0;-50.34;-30.53;-14.4;197.33;21.77;-90.86;0.0;35.958298;-83.92447;775.92;NaN;0.0;17.892103;;0 / 0;27506;2022-10-28 14:04:00:483
8.9157;-3.7454;0.2952;9.059;-3.2003;-1.9652;0.7902;-2.8187;0.4043;-0.6564;-0.2961;0.1085;0.0;-47.98;-42.09;-11.47;201.09;19.05;-102.24;0.0;35.958298;-83.92447;775.92;NaN;0.0;17.892103;;0 / 0;28005;2022-10-28 14:04:00:982
8.5262;-2.6136;-3.1202;9.2581;-2.8885;-1.4544;-0.2667;-0.6995;-1.0025;-1.0295;0.6348;0.3334;0.0;-37.14;-45.82;-8.01;193.73;16.82;-98.31;0.0;35.958298;-83.92447;775.92;NaN;0.0;17.892103;;0 / 0;28505;2022-10-28 14:04:01:482
8.6847;-3.0745;-2.554;8.6915;-3.9934;-2.1637;0.2035;1.1862;3.1834;-1.8789;-1.972;0.4186;0.0;-17.98;-11.74;0.04;193.53;24.03;-103.98;0.0;35.958298;-83.92447;775.92;NaN;0.0;17.892103;;0 / 0;29006;2022-10-28 14:04:01:983
8.2576;-2.8723;2.1843;8.9951;-3.6136;-1.4831;1.5834;-3.059;0.2502;-0.1009;0.9058;0.1202;0.0;-8.83;2.94;13.09;96.34;21.62;-99.36;0.0;35.958298;-83.92447;775.92;NaN;0.0;17.892103;;0 / 0;29506;2022-10-28 14:04:02:483
9.8049;-1.8676;-2.726;9.0229;-3.3193;-1.934;-0.4676;0.955;-1.3117;-1.2477;0.841;0.3302;0.0;-7.65;-1.84;22.84;106.49;19.78;-102.1;0.0;35.958298;-83.92447;775.92;NaN;0.0;17.892103;;0 / 0;30006;2022-10-28 14:04:02:983
10.6564;-4.7719;2.0728;8.4733;-4.7286;1.419;-0.9359;-0.1077;2.5301;-0.8396;-1.2412;-0.004;0.0;-7.37;1.28;19.01;92.7;28.83;-80.49;0.0;35.958298;-83.92447;775.92;NaN;0.0;17.892103;;0 / 0;30505;2022-10-28 14:04:03:482
7.3005;-2.4796;5.4718;8.741;-4.0909;1.7407;-1.2447;1.3466;3.6843;-0.7745;0.0806;-0.4151;0.0;-2.96;10.61;10.5;49.64;24.66;-78.74;0.0;35.958298;-83.92447;775.92;NaN;0.0;17.892103;;0 / 0;31005;2022-10-28 14:04:03:982
9.8922;-2.9103;-0.0712;9.3516;-2.9059;0.5238;-0.3068;0.3773;-1.0734;0.1481;0.3581;-0.0649;0.0;-3.21;11.29;13.71;55.15;17.24;-86.79;0.0;35.958298;-83.92447;775.92;NaN;0.0;17.892103;;0 / 0;31506;2022-10-28 14:04:04:483
6.7427;-3.3281;2.0061;8.7083;-4.2598;1.4801;-1.9614;0.5303;1.6481;-0.702;-0.8303;0.121;0.0;-1.39;16.35;21.79;54.51;25.75;-80.35;0.0;35.958298;-83.92447;775.92;NaN;0.0;17.892103;;0 / 0;32005;2022-10-28 14:04:04:982
10.6397;-5.6417;1.5829;8.2783;-4.269;3.0686;3.0562;-0.9907;-2.5514;-0.082;1.4388;-0.1716;0.0;-2.18;25.28;20.19;38.2;25.81;-69.66;0.0;35.958298;-83.92447;775.92;NaN;0.0;17.892103;;0 / 0;32506;2022-10-28 14:04:05:483
8.8092;-2.5839;1.2951;9.2936;-2.7751;1.4485;-0.4221;-0.1708;-0.4166;-0.0511;0.4603;-0.2626;0.0;-7.63;27.51;17.76;36.82;16.44;-81.14;0.0;35.958298;-83.92447;775.92;NaN;0.0;17.892103;;0 / 0;33005;2022-10-28 14:04:05:982
7.5233;-3.8581;3.3039;8.8559;-3.861;1.6841;-0.314;0.4068;0.7413;0.2301;0.4385;0.4939;0.0;-11.42;23.36;14.79;42.31;21.75;-80.24;0.0;35.958298;-83.92447;775.92;NaN;0.0;17.892103;;0 / 0;33506;2022-10-28 14:04:06:483
7.8404;-3.7995;2.1667;8.0912;-4.4914;3.245;1.0542;-0.0541;-3.6216;0.4998;2.2252;0.1807;0.0;-9.99;20.36;11.81;43.66;27.26;-68.15;0.0;35.958298;-83.92447;775.92;NaN;0.0;17.892103;;0 / 0;34005;2022-10-28 14:04:06:982
7.8066;-2.5002;1.2781;9.179;-3.254;1.1525;0.0461;0.8313;0.6469;-0.688;-0.7888;-0.3057;0.0;-12.22;17.01;5.18;27.71;19.38;-82.84;0.0;35.958298;-83.92447;775.92;NaN;0.0;17.892103;;0 / 0;34507;2022-10-28 14:04:07:484
9.3482;-2.3982;-0.0921;9.4133;-2.4669;1.2144;0.1737;-0.0355;-1.3766;0.2189;0.4148;0.0615;0.0;-14.83;10.39;8.79;60.14;14.57;-82.65;0.0;35.958298;-83.92447;775.92;NaN;0.0;17.892103;;0 / 0;35006;2022-10-28 14:04:07:983
6.9682;-3.1765;2.1667;8.929;-3.8664;1.2228;-1.8591;0.6419;0.9634;-0.1555;-0.2898;0.2357;0.0;-15.41;9.73;8.29;68.08;22.29;-81.57;0.0;35.958298;-83.92447;775.92;NaN;0.0;17.892103;;0 / 0;35506;2022-10-28 14:04:08:483
12.7193;-6.3156;3.1944;8.6453;-4.0846;2.1782;3.198;-1.5355;0.083;-0.1749;-0.0964;-0.3316;0.0;-14.94;13.18;7.13;58.23;24.61;-75.86;0.0;35.958298;-83.92447;775.92;NaN;0.0;17.892103;;0 / 0;36005;2022-10-28 14:04:08:982
9.1493;-2.0545;-0.4226;9.4329;-2.629;0.5292;-0.0512;0.037;-0.1495;-0.5695;0.0873;-0.2261;0.0;-18.53;15.24;10.22;49.26;15.55;-86.79;0.0;35.958298;-83.92447;775.92;NaN;0.0;17.892103;;0 / 0;36505;2022-10-28 14:04:09:482
6.8429;-3.2671;2.5729;9.0457;-3.6156;1.1285;-1.011;-0.2263;0.0951;0.3424;1.0204;0.5177;0.0;-16.86;19.2;13.71;52.94;21.63;-82.89;0.0;35.958298;-83.92447;775.92;NaN;0.0;17.892103;;0 / 0;37005;2022-10-28 14:04:09:982
7.6451;-3.7893;2.126;8.0719;-4.4837;3.3033;-0.3154;0.6362;-0.7976;0.4244;2.0803;0.1448;0.0;-10.82;29.27;12.3;33.31;27.58;-71.28;0.0;35.958298;-83.92447;775.92;NaN;0.0;17.892103;;0 / 0;37506;2022-10-28 14:04:10:483
7.3002;-2.3665;1.7545;9.2364;-3.2295;0.6546;-1.9963;0.4191;1.8165;-0.5286;-0.3664;-0.2913;0.0;-11.83;33.49;14.23;28.27;19.23;-85.95;0.0;35.958298;-83.92447;775.92;NaN;0.0;17.892103;;0 / 0;38007;2022-10-28 14:04:10:984
10.6531;-4.7809;1.5236;9.328;-2.8273;1.0794;3.3137;-0.0405;-0.5844;0.5062;0.4568;0.3388;0.0;-13.35;33.26;24.53;42.53;16.76;-83.4;0.0;35.958298;-83.92447;775.92;NaN;0.0;17.892103;;0 / 0;38506;2022-10-28 14:04:11:483
8.4111;-3.6159;-1.9155;8.6972;-4.3868;1.134;-0.1885;-0.0484;-2.0494;0.7468;1.8045;0.2385;0.0;-17.91;36.99;20.44;40.15;26.57;-82.57;0.0;35.958298;-83.92447;775.92;NaN;0.0;17.892103;;0 / 0;39006;2022-10-28 14:04:11:983
8.2944;-1.8703;1.6851;9.1046;-3.5001;1.0126;-0.8299;1.6328;0.5345;-0.1037;-0.2647;-0.1981;0.0;-20.68;35.7;13.67;31.35;21.7;-84.42;0.0;35.958298;-83.92447;775.92;NaN;0.0;17.892103;;0 / 0;39506;2022-10-28 14:04:12:483
11.1434;-3.8827;1.6208;8.9848;-2.7694;2.7883;1.1888;0.0301;-0.5444;-1.4582;-0.5309;-0.1419;0.0;-26.7;28.11;6.53;36.07;16.4;-72.76;0.0;35.958298;-83.92447;775.92;NaN;0.0;17.892103;;0 / 0;40005;2022-10-28 14:04:12:982
7.7659;-3.4549;0.2417;8.6965;-4.4664;0.77;-1.3736;1.323;1.1326;-2.0295;-0.8495;-0.2049;0.0;-27.04;23.61;-2.48;2.47;27.09;-84.94;0.0;35.958298;-83.92447;775.92;NaN;0.0;17.892103;;0 / 0;40506;2022-10-28 14:04:13:483
8.5816;-4.3783;-0.1756;8.8361;-3.8278;-1.8549;2.4987;-2.0092;-0.5719;-0.2415;-0.2165;-0.0109;0.0;-29.12;20.91;4.29;345.56;22.98;-101.86;0.0;35.958298;-83.92447;775.92;NaN;0.0;17.892103;;0 / 0;41006;2022-10-28 14:04:13:983
9.0281;-1.689;-2.9791;9.0395;-3.3305;-1.8343;-0.3073;1.0108;-1.192;-0.476;0.3638;0.1872;0.0;-28.5;10.88;11.63;92.31;20.02;-102.03;0.0;35.958298;-83.92447;775.92;NaN;0.0;17.892103;;0 / 0;41505;2022-10-28 14:04:14:482
8.6288;-2.8493;1.8123;8.9646;-3.9758;0.012;-0.7138;1.2006;3.1231;-1.8105;-0.4552;-0.1758;0.0;-21.9;15.43;20.59;77.13;23.92;-89.92;0.0;35.958298;-83.92447;775.92;NaN;0.0;17.892103;;0 / 0;42006;2022-10-28 14:04:14:983
9.3272;-3.7756;1.7629;9.1815;-3.3771;-0.6819;0.7833;-1.0173;1.6953;-0.1007;0.4511;0.0861;0.0;-20.53;6.36;31.5;94.51;20.14;-94.25;0.0;35.958298;-83.92447;775.92;NaN;0.0;17.892103;;0 / 0;42505;2022-10-28 14:04:15:482
10.0167;-2.272;-1.817;9.5079;-2.3767;-0.3492;-0.4026;0.5475;-2.4371;-0.6422;0.4044;0.1479;0.0;-28.44;-25.29;31.43;136.27;14.03;-92.1;0.0;35.958298;-83.92447;775.92;NaN;0.0;17.892103;;0 / 0;43006;2022-10-28 14:04:15:983
8.0267;-3.3691;1.6911;8.8289;-4.2099;0.705;-1.3908;0.1851;1.9362;-1.4502;-1.0069;-0.3916;0.0;-38.96;-39.9;22.58;148.57;25.23;-77.73;0.0;35.958298;-83.92447;775.92;NaN;0.0;17.892103;;0 / 0;43505;2022-10-28 14:04:16:482
10.7695;-3.4187;2.546;8.9903;-3.7292;1.1993;3.0164;-0.9653;1.5707;-0.2805;-0.2617;-0.3868;0.0;-43.71;-43.11;22.93;152.6;22.35;-82.4;0.0;35.958298;-83.92447;775.92;NaN;0.0;17.892103;;0 / 0;44005;2022-10-28 14:04:16:982
8.8902;-1.7548;-0.0867;9.3648;-2.6809;1.1326;-0.269;0.5879;-1.1904;-0.2882;0.6893;-0.3083;0.0;-37.87;-42.22;26.25;148.65;15.87;-83.1;0.0;35.958298;-83.92447;775.92;NaN;0.0;17.892103;;0 / 0;44507;2022-10-28 14:04:17:484
6.6999;-3.3413;2.8959;8.648;-4.0561;2.2205;-1.6891;0.2248;1.4753;-0.4517;-0.2399;0.0575;0.0;-36.79;-35.23;19.54;147.37;24.43;-75.6;0.0;35.958298;-83.92447;775.92;NaN;0.0;17.892103;;0 / 0;45005;2022-10-28 14:04:17:982
8.4867;-1.6899;5.1939;8.6446;-3.9092;2.4819;2.952;-1.8752;1.8699;-0.6022;-1.1568;-0.6384;0.0;-40.05;-23.92;17.66;137.47;24.92;-67.97;0.0;35.958298;-83.92447;775.92;NaN;0.0;17.892103;;0 / 0;45505;2022-10-28 14:04:18:482
9.1511;-1.8033;2.519;8.9963;-2.4881;3.0076;0.1614;0.5253;-0.3844;0.1527;0.2585;-0.1257;0.0;-38.76;-15.51;17.23;129.51;14.7;-71.51;0.0;35.958298;-83.92447;775.92;NaN;0.0;17.892103;;0 / 0;46005;2022-10-28 14:04:18:982
7.7022;-2.8071;2.1697;8.9381;-3.8585;1.1803;-1.5445;1.0207;2.1173;-0.4363;-0.6822;0.1712;0.0;-35.31;-10.72;10.69;146.27;23.17;-82.48;0.0;35.958298;-83.92447;775.92;NaN;0.0;17.892103;;0 / 1;46505;2022-10-28 14:04:19:482
7.5323;-4.7758;4.2703;7.6805;-4.2848;4.3382;-0.4718;-0.5248;-0.1447;-0.2826;-0.2847;-0.4737;0.0;-35.49;-5.72;7.82;125.1;25.91;-60.54;0.0;35.958298;-83.92447;775.92;NaN;0.0;17.892103;;0 / 1;47006;2022-10-28 14:04:19:983
6.6742;-2.607;1.4085;9.2083;-3.102;1.3246;-1.8012;0.4247;0.3393;0.3355;-0.3393;-0.1126;0.0;-32.76;-9.99;5.1;153.78;18.44;-81.81;0.0;35.958298;-83.92447;775.92;NaN;0.0;17.892103;;0 / 2;47506;2022-10-28 14:04:20:483
12.3835;-4.5948;4.2936;8.8983;-2.9302;2.8991;4.072;-0.6535;0.6304;0.1058;0.4756;0.5762;0.0;-27.53;-12.62;4.93;145.99;17.39;-71.95;0.0;35.958298;-83.92447;775.92;NaN;0.0;17.892103;;0 / 2;48005;2022-10-28 14:04:20:982
8.2442;-3.7783;1.3753;8.2778;-4.3653;2.9313;-0.4695;0.3531;-0.8088;1.0872;0.4488;0.4733;0.0;-26.01;-9.75;0.62;159.71;26.19;-75.7;0.0;35.958298;-83.92447;775.92;NaN;0.0;17.892103;;0 / 2;48505;2022-10-28 14:04:21:482
8.2008;-1.7686;4.6223;8.4136;-3.5731;3.5517;-1.2793;0.3579;3.7562;-0.7502;-2.0524;-0.9373;0.0;-23.34;-7.13;-3.94;160.44;21.37;-67.11;0.0;35.958298;-83.92447;775.92;NaN;0.0;17.892103;;0 / 2;49005;2022-10-28 14:04:21:982
8.601;-1.5712;2.633;8.7784;-2.1522;3.8051;0.0244;0.4166;-1.213;0.0231;0.6639;-0.1342;0.0;-20.96;-6.84;-3.28;153.68;12.68;-66.57;0.0;35.958298;-83.92447;775.92;NaN;0.0;17.892103;;0 / 2;49506;2022-10-28 14:04:22:483
6.2635;-3.9799;3.8363;7.9609;-4.3101;3.7706;-1.6572;0.3507;0.3267;-1.0159;0.0811;-0.0491;0.0;-14.7;-0.54;-10.48;196.67;26.07;-64.66;0.0;35.958298;-83.92447;775.92;NaN;0.0;17.892103;;0 / 2;50006;2022-10-28 14:04:22:983
7.3819;-3.9945;7.96;7.6673;-3.8052;4.7857;2.9628;-1.9121;1.746;-0.2227;0.1425;-0.4655;0.0;-12.11;10.01;-14.34;298.15;22.9;-53.6;0.0;35.958298;-83.92447;775.92;NaN;0.0;17.892103;;0 / 3;50506;2022-10-28 14:04:23:483
8.8083;-1.8547;1.4276;9.1648;-2.9306;1.8942;-0.5305;0.1486;-0.6832;0.0194;0.3137;-0.1628;0.0;-22.93;16.39;-7.93;338.46;17.39;-78.32;0.0;35.958298;-83.92447;775.92;NaN;0.0;17.892103;;0 / 3;51007;2022-10-28 14:04:23:984
6.9461;-3.8824;3.7017;8.5302;-3.9054;2.8555;-1.2941;-0.3577;1.0948;-0.2894;0.0476;0.2979;0.0;-27.66;18.99;-6.6;20.65;23.47;-71.49;0.0;35.958298;-83.92447;775.92;NaN;0.0;17.892103;;0 / 3;51506;2022-10-28 14:04:24:483
7.3083;-5.2104;4.3382;7.3288;-4.5051;4.7078;-0.5047;-0.9885;-0.074;-0.1946;-0.5516;-0.6915;0.0;-29.06;20.14;-7.67;70.19;29.01;-53.71;0.0;35.958298;-83.92447;775.92;NaN;0.0;17.892103;;0 / 3;52006;2022-10-28 14:04:24:983
7.2757;-3.0227;1.7351;9.2576;-3.0732;1.0111;-1.8509;0.0157;0.7261;-1.2975;-0.224;-0.3637;0.0;-35.94;9.11;-8.4;212.97;18.79;-80.83;0.0;35.958298;-83.92447;775.92;NaN;0.0;17.892103;;0 / 3;52505;2022-10-28 14:04:25:482
10.5177;-2.1921;-2.648;9.2578;-2.8823;-1.4686;0.0901;1.097;-2.0186;-0.3044;-0.3516;-0.0731;0.0;-46.5;-7.5;-6.69;214.33;17.09;-99.01;0.0;35.958298;-83.92447;775.92;NaN;0.0;17.892103;;0 / 3;53006;2022-10-28 14:04:25:983
8.1036;-2.604;-3.4062;8.8397;-3.9238;-1.623;0.3474;1.5182;0.0419;-0.885;-0.8175;0.1413;0.0;-48.77;-18.73;-7.09;203.5;23.59;-100.4;0.0;35.958298;-83.92447;775.92;NaN;0.0;17.892103;;0 / 4;53506;2022-10-28 14:04:26:483
8.3692;-3.0739;2.2035;9.1598;-3.4864;-0.337;-0.5628;0.6558;2.4911;-0.4252;0.7504;0.027;0.0;-42.26;-20.89;3.17;179.56;21.03;-93.73;0.0;35.958298;-83.92447;775.92;NaN;0.0;17.892103;;0 / 4;54006;2022-10-28 14:04:26:983
9.8653;-2.6444;-2.7009;9.0959;-3.1722;-1.8361;1.0521;0.4018;-0.9156;-1.1844;0.2456;0.1028;0.0;-35.34;-19.5;-3.3;197.66;19.36;-100.42;0.0;35.958298;-83.92447;775.92;NaN;0.0;17.892103;;0 / 4;54505;2022-10-28 14:04:27:482
6.8151;-4.4626;-0.5423;7.7735;-5.3175;2.7327;0.8876;3.7571;-4.9732;0.7539;2.5417;1.0512;0.0;-29.4;-9.75;-12.69;185.91;32.84;-70.63;0.0;35.958298;-83.92447;775.92;NaN;0.0;17.892103;;0 / 4;55006;2022-10-28 14:04:27:983
8.0671;-2.3447;1.5144;8.9808;-3.6717;1.4263;-0.2232;1.5239;3.2929;-0.9465;-1.4201;-0.4356;0.0;-28.2;-6.58;-14.96;210.46;21.99;-80.98;0.0;35.958298;-83.92447;775.92;NaN;0.0;17.892103;;0 / 4;55506;2022-10-28 14:04:28:483
9.038;-2.8911;2.275;9.0699;-2.7954;2.4684;-0.1784;0.2301;-0.3879;-0.4358;0.1561;-0.0105;0.0;-39.15;-6.84;-8.57;175.09;16.56;-74.78;0.0;35.958298;-83.92447;775.92;NaN;0.0;17.892103;;0 / 4;56006;2022-10-28 14:04:28:983
8.0154;-3.4059;2.0031;8.5947;-4.4654;1.5368;-1.4559;1.3865;1.9009;-0.6376;-0.3484;0.043;0.0;-43.86;-3.43;-7.84;175.65;26.57;-77.48;0.0;35.958298;-83.92447;775.92;NaN;0.0;17.892103;;0 / 4;56506;2022-10-28 14:04:29:483
7.5643;-5.2029;4.6173;7.141;-4.2201;5.2314;3.0367;-0.4704;-2.164;0.45;1.3245;0.0379;8.7;-48.96;-0.75;-9.02;132.96;25.49;-53.77;0.0;35.958298;-83.92447;775.92;NaN;0.0;17.892103;;0 / 4;57006;2022-10-28 14:04:29:983
6.9329;-3.1421;2.1981;8.9593;-3.0258;2.5974;-1.7783;-0.2245;-0.4902;-0.0462;-0.1233;-0.1058;0.0;-50.7;-6.21;-6.06;158.42;17.97;-73.83;0.0;35.958298;-83.92447;775.92;NaN;0.0;17.892103;;0 / 4;57505;2022-10-28 14:04:30:482
11.7275;-3.0168;4.8069;8.5878;-2.7359;3.8647;2.6089;-0.9317;-0.003;-0.0569;0.0109;0.465;0.0;-53.77;-8.16;-0.94;135.38;16.2;-65.77;0.0;35.958298;-83.92447;775.92;NaN;0.0;17.892103;;0 / 4;58005;2022-10-28 14:04:30:982
8.0982;-3.5844;1.928;8.029;-4.5246;3.3516;-0.2536;0.0883;-1.403;1.1957;0.5117;0.5237;0.0;-55.67;4.59;3.66;134.35;27.24;-73.2;0.0;35.958298;-83.92447;775.92;NaN;0.0;17.892103;;0 / 4;58506;2022-10-28 14:04:31:483
8.2086;-2.7431;4.9505;8.6231;-3.5411;3.0452;-1.115;-0.048;3.5795;-0.3224;-1.5073;-0.8681;0.0;-51.94;17.18;-6.02;102.45;21.17;-70.55;0.0;35.958298;-83.92447;775.92;NaN;0.0;17.892103;;0 / 4;59006;2022-10-28 14:04:31:983
9.1271;-2.141;1.887;9.0061;-2.1552;3.2274;0.2456;0.0208;-1.057;0.2311;0.4013;-0.1422;0.0;-53.42;15.75;0.41;75.44;12.7;-70.28;0.0;35.958298;-83.92447;775.92;NaN;0.0;17.892103;;0 / 4;59505;2022-10-28 14:04:32:482
6.5707;-3.6281;3.9138;8.1144;-4.0702;3.7095;-1.5592;-0.4064;1.0609;-0.9455;-0.2207;0.0471;0.0;-46.93;20.44;-11.72;100.61;24.52;-65.43;0.0;35.958298;-83.92447;775.92;NaN;0.0;17.892103;;0 / 4;60006;2022-10-28 14:04:32:983
8.8681;-5.275;6.7522;7.2507;-4.1502;5.1356;3.3723;-0.4783;-1.9054;-0.0651;-1.015;-0.6997;0.0;-39.07;32.93;-16.97;31.75;26.26;-57.23;0.0;35.958298;-83.92447;775.92;NaN;0.0;17.892103;;0 / 4;60505;2022-10-28 14:04:33:482
8.1631;-1.698;2.4876;9.1528;-2.1167;2.8136;-0.9618;0.0885;-0.0266;0.5183;-0.0048;-0.1427;0.0;-41.81;28.89;-16.48;351.0;12.47;-72.91;0.0;35.958298;-83.92447;775.92;NaN;0.0;17.892103;;0 / 4;61006;2022-10-28 14:04:33:983
12.7849;-4.1426;5.7126;8.7457;-2.7176;3.5068;4.2322;-0.6685;1.9766;0.1799;-0.3457;0.9544;0.0;-42.02;21.66;-17.53;352.77;16.09;-68.15;0.0;35.958298;-83.92447;775.92;NaN;0.0;17.892103;;0 / 4;61505;2022-10-28 14:04:34:482
8.103;-3.8139;2.0913;8.2686;-3.9611;3.48;-0.1113;0.1405;-1.8533;0.0014;1.062;0.2216;0.0;-39.3;23.04;-13.95;27.21;23.82;-67.18;0.0;35.958405;-83.92486;;NaN;;129.03226;;0 / 4;62005;2022-10-28 14:04:34:982
7.9687;-1.2826;0.3721;9.1947;-3.2489;1.0357;-1.3309;2.5503;0.0221;-0.443;-0.0277;-0.3602;0.0;-23.1;5.31;-26.47;260.68;19.35;-83.57;0.0;35.958405;-83.92486;;NaN;;129.03226;;0 / 4;62506;2022-10-28 14:04:35:483
10.9699;-3.5049;0.7026;9.3112;-2.7604;1.3609;0.9424;-0.2075;-0.288;-0.5356;-0.8045;0.1952;0.0;-28.74;-1.91;-19.82;235.27;16.35;-81.68;0.0;35.958405;-83.92486;;NaN;;129.03226;;0 / 4;63005;2022-10-28 14:04:35:982
7.5571;-3.7603;0.2964;8.9987;-3.8679;0.482;-1.637;0.4912;1.2321;-0.648;-0.4739;0.0727;0.0;-31.86;1.73;-20.42;238.51;23.23;-86.93;0.0;35.958405;-83.92486;;NaN;;129.03226;;0 / 4;63506;2022-10-28 14:04:36:483
9.5324;-2.4811;-4.745;9.109;-3.3277;-1.4573;0.0134;1.001;-2.3146;0.5304;0.0502;-0.5233;0.0;-32.66;5.25;-16.03;255.34;19.84;-99.09;0.0;35.958405;-83.92486;;NaN;;129.03226;;0 / 4;64005;2022-10-28 14:04:36:982
9.6413;-1.6983;0.0015;9.3601;-2.8666;-0.5844;0.2755;1.6727;1.6241;-3.2912;0.114;-0.2556;0.0;-28.61;-0.71;-16.95;244.12;17.0;-93.57;0.0;35.958405;-83.92486;;NaN;;129.03226;;0 / 4;64506;2022-10-28 14:04:37:483
9.4214;-3.7938;2.2986;9.0318;-3.5047;1.521;2.0507;-0.5459;1.0437;0.6951;-0.1324;1.0264;0.0;-23.85;-1.09;-13.16;221.0;20.94;-80.44;0.0;35.958405;-83.92486;;NaN;;129.03226;;0 / 4;65005;2022-10-28 14:04:37:982
6.8085;-3.6141;4.2643;7.7632;-4.5765;3.8676;0.7193;0.9789;-5.789;0.6706;2.596;0.3964;0.0;-19.26;1.18;-16.76;229.67;26.49;-73.8;0.0;35.958405;-83.92486;;NaN;;129.03226;;0 / 4;65506;2022-10-28 14:04:38:483
7.4952;-2.1808;1.5745;9.1559;-3.2173;1.41;-1.2098;1.6431;0.3059;-0.2892;-0.5407;-0.4331;0.0;-19.91;-9.06;-17.01;220.98;19.15;-81.25;0.0;35.958405;-83.92486;;NaN;;129.03226;;0 / 4;66005;2022-10-28 14:04:38:982
7.9235;-0.9048;3.1923;8.6336;-1.859;4.2633;-0.1504;0.9615;-1.137;0.6305;1.2015;-0.0108;0.0;-26.36;-18.32;-12.47;178.13;10.93;-63.72;0.0;35.958405;-83.92486;;NaN;;129.03226;;0 / 5;66506;2022-10-28 14:04:39:483
6.8477;-4.1856;4.22;8.368;-4.1553;2.98;-1.377;-0.0924;1.8153;-1.3168;-0.5877;-0.1109;0.0;-28.89;-9.9;-14.17;188.69;25.07;-70.4;0.0;35.958405;-83.92486;;NaN;;129.03226;;0 / 5;67005;2022-10-28 14:04:39:982
8.3847;-3.673;-2.2603;8.5416;-4.6693;-1.1871;0.1532;0.7681;-0.461;-0.5317;-0.7674;-0.0492;0.0;-35.78;-8.48;-2.32;192.28;29.07;-95.26;0.0;35.958405;-83.92486;;NaN;;129.03226;;0 / 5;67506;2022-10-28 14:04:40:483
7.0181;-4.1991;1.1246;9.3199;-3.0509;0.0417;-1.26;-1.6212;1.0077;-0.568;1.4033;-0.1445;0.0;-30.73;-11.25;12.47;148.85;18.13;-89.74;0.0;35.958405;-83.92486;;NaN;;129.03226;;0 / 5;68005;2022-10-28 14:04:40:982
8.5989;-2.1293;0.3323;9.4669;-1.9764;1.6254;0.1839;0.2923;-3.1322;-0.3104;1.2392;-0.2597;0.0;-34.78;-19.07;0.68;164.86;11.63;-80.26;0.0;35.958405;-83.92486;;NaN;;129.03226;;0 / 6;68506;2022-10-28 14:04:41:483
6.7068;-4.0726;3.7956;8.5144;-4.0593;2.6827;-2.0029;-0.1369;1.5873;-0.3752;-0.8376;0.2001;0.0;-37.84;-17.38;-16.93;183.74;23.25;-68.78;0.0;35.958405;-83.92486;;NaN;;129.03226;;0 / 6;69005;2022-10-28 14:04:41:982
7.8864;-4.538;8.8534;8.6702;-3.509;2.9469;-0.7933;-0.914;5.8117;-0.7064;-2.1338;-0.9358;0.0;-57.9;6.86;-10.09;125.61;22.56;-59.8;0.0;35.958405;-83.92486;;NaN;;129.03226;;0 / 7;69506;2022-10-28 14:04:42:483
8.9982;-0.9775;2.1799;9.2201;-2.2808;2.4411;-0.3893;0.8924;-0.3626;0.3195;0.4913;-0.1024;0.0;-61.37;0.6;0.58;127.42;13.45;-75.17;0.0;35.958405;-83.92486;;NaN;;129.03226;;0 / 7;70005;2022-10-28 14:04:42:982
6.332;-3.2973;2.9417;8.6714;-4.0812;2.0788;-0.8493;0.7209;1.2713;-0.2265;-0.215;0.6189;0.0;-63.79;2.16;-2.74;153.78;24.59;-76.52;0.0;35.958405;-83.92486;;NaN;;129.03226;;0 / 7;70506;2022-10-28 14:04:43:483
7.4925;-4.8138;3.4292;7.9026;-4.7471;3.3444;0.7344;-0.0545;-4.6768;1.2161;2.3494;0.1484;0.0;-64.91;15.84;6.9;113.25;28.95;-67.06;0.0;35.958405;-83.92486;;NaN;;129.03226;;0 / 7;71005;2022-10-28 14:04:43:982
7.5835;-2.4511;1.2156;9.2127;-3.1149;1.2623;-1.5613;0.5716;-0.0963;-0.0565;-0.4323;-0.2259;0.0;-66.54;17.03;0.51;117.69;19.33;-81.31;0.0;35.958405;-83.92486;;NaN;;129.03226;;0 / 8;71505;2022-10-28 14:04:44:482
12.1567;-2.4987;1.6044;9.3837;-2.3981;1.5384;1.611;-0.532;-1.1601;0.1944;-0.2899;0.0207;0.0;-65.42;15.43;12.28;91.71;14.15;-80.69;0.0;35.958405;-83.92486;;NaN;;129.03226;;0 / 8;72006;2022-10-28 14:04:44:983
8.0859;-3.5886;-0.9885;8.8435;-4.2158;0.436;-1.3338;1.1455;1.0835;-0.5266;-0.97;0.255;0.0;-57.94;25.61;12.45;94.52;25.46;-87.18;0.0;35.958405;-83.92486;;NaN;;129.03226;;0 / 8;72505;2022-10-28 14:04:45:482
8.889;-3.2354;4.512;8.7601;-3.6869;2.416;2.9506;-3.3224;3.9957;-0.9885;-2.1235;-0.5986;0.0;-47.7;34.78;11.79;56.29;22.08;-74.58;0.0;35.958405;-83.92486;;NaN;;129.03226;;0 / 8;73005;2022-10-28 14:04:45:982
10.6367;-1.7151;0.5483;9.3492;-2.4669;1.6361;0.1668;0.3955;-1.0974;-0.5498;0.7659;-0.2725;0.0;-33.75;33.98;16.67;41.7;15.07;-81.06;0.0;35.95841;-83.92486;775.32;NaN;0.0;191.17381;;0 / 9;73506;2022-10-28 14:04:46:483
7.6316;-4.1958;2.6967;9.005;-3.1509;2.2698;-1.709;-0.3748;1.4518;0.1384;-0.0699;0.0809;0.0;-23.76;35.31;9.66;30.47;18.74;-75.85;0.0;35.95841;-83.92486;775.32;NaN;0.0;191.17381;;0 / 9;74005;2022-10-28 14:04:46:982
9.0263;-1.8972;4.3663;9.1557;-2.6305;2.3288;-0.1162;0.7446;2.3314;-0.4219;-0.6496;-0.2945;0.0;-15.26;37.91;-3.04;1.39;15.56;-75.73;0.0;35.95841;-83.92486;775.32;NaN;0.0;191.17381;;3 / 9;74506;2022-10-28 14:04:47:483
9.431;-1.6158;1.1019;9.4314;-2.2673;1.4419;-0.8476;0.5753;-0.7737;-0.0922;0.1567;0.0799;0.0;-6.39;34.05;7.89;15.41;13.37;-81.31;0.0;35.95841;-83.92486;775.32;NaN;0.0;191.17381;;3 / 9;75006;2022-10-28 14:04:47:983
8.12;-3.9864;-0.0936;9.1123;-3.6242;0.0468;-1.6934;0.3749;1.1232;-0.1658;-0.6709;0.2109;0.0;3.09;31.18;10.5;19.57;20.54;-86.27;0.0;35.95841;-83.92486;775.32;NaN;0.0;191.17381;;3 / 9;75505;2022-10-28 14:04:48:482
9.9269;-2.5558;1.5769;9.2992;-3.1036;0.2489;2.7361;-0.9607;2.124;-0.8421;-0.5796;-0.4698;0.0;15.15;30.02;2.44;2.75;18.45;-88.47;0.0;35.95841;-83.92486;775.32;NaN;0.0;191.17381;;3 / 9;76006;2022-10-28 14:04:48:983
8.4607;-1.6343;-3.0697;9.5177;-2.0602;-1.1575;-0.7568;0.0727;-2.2848;-0.4813;0.5398;-0.0563;0.0;6.39;9.86;4.61;27.55;12.13;-96.93;0.0;35.95841;-83.92486;775.32;NaN;0.0;191.17381;;3 / 9;76505;2022-10-28 14:04:49:482
7.4755;-3.8824;3.5916;9.0522;-3.6269;1.0364;-1.6285;0.0821;-0.0547;-0.8484;0.3434;0.2001;0.0;-10.01;-6.67;15.28;120.76;21.71;-83.47;0.0;35.95841;-83.92486;775.32;NaN;0.0;191.17381;;3 / 9;77006;2022-10-28 14:04:49:983
7.829;-3.3532;-4.3011;8.6561;-3.9222;-2.4203;-0.1092;1.1454;-0.9164;-0.7959;0.0305;-0.0074;0.0;-25.61;-24.79;20.72;159.41;23.58;-105.62;0.0;35.95841;-83.92486;775.32;NaN;0.0;191.17381;;3 / 9;77505;2022-10-28 14:04:50:482
8.4347;-2.3913;-2.6542;8.7208;-2.9231;-3.4019;0.2631;-0.0855;1.5079;-1.6602;0.4094;0.5655;0.0;-31.09;-44.76;13.2;179.09;17.34;-111.31;0.0;35.95841;-83.92486;775.32;NaN;0.0;191.17381;;3 / 9;78006;2022-10-28 14:04:50:983
10.7862;-6.2381;-2.1482;8.8399;-2.9375;-3.0656;1.9398;0.7223;-1.2655;-0.3199;-0.1128;0.0366;0.0;-36.54;-45.15;-4.58;197.66;17.43;-109.13;0.0;35.95841;-83.92486;775.32;NaN;0.0;191.17381;;3 / 9;78505;2022-10-28 14:04:51:482
8.9321;-2.4769;-5.0907;8.8631;-3.6036;-2.1517;-0.4541;1.6975;-0.2379;0.1512;0.1794;-0.376;0.0;-35.72;-33.17;-10.72;204.25;21.56;-103.65;0.0;35.95841;-83.92486;775.32;NaN;0.0;191.17381;;3 / 9;79005;2022-10-28 14:04:51:982
9.3099;-1.2766;-1.4177;9.3134;-2.3844;-1.9355;-0.479;0.7268;0.7612;-0.7018;0.699;-0.066;0.0;-23.81;-28.59;-0.67;189.84;14.07;-101.74;0.0;35.95841;-83.92486;775.32;NaN;0.0;191.17381;;3 / 9;79506;2022-10-28 14:04:52:483
10.4818;-4.2353;2.5104;9.1919;-3.3485;0.6829;4.0155;-2.048;2.3477;0.2812;-0.5163;0.6142;0.0;-14.04;-13.2;-4.29;189.8;19.97;-85.75;0.0;35.95841;-83.92486;775.32;NaN;0.0;191.17381;;3 / 9;80005;2022-10-28 14:04:52:982
7.9376;-4.7046;1.9373;8.3526;-4.8576;1.676;-1.5642;-0.0579;-3.02;1.3911;1.7177;0.1259;4.4;-6.69;0.79;-6.92;239.64;29.69;-78.65;0.0;35.95841;-83.92486;775.32;NaN;0.0;191.17381;;3 / 9;80506;2022-10-28 14:04:53:483
6.8348;-3.3843;1.6355;9.1544;-3.3712;1.0009;-2.5785;0.837;0.4683;0.0895;0.1339;-0.2257;10.1;-4.73;-0.9;-8.64;250.45;20.11;-83.76;0.0;35.95841;-83.92486;775.32;NaN;0.0;191.17381;;3 / 9;81005;2022-10-28 14:04:53:982
12.8118;-4.809;0.7591;9.2212;-3.3371;-0.0642;4.1147;-0.478;0.3655;1.0667;-0.4561;0.4168;5.1;-7.69;-2.03;-8.94;243.16;19.89;-90.4;0.0;35.95841;-83.92486;775.32;NaN;0.0;191.17381;;3 / 9;81505;2022-10-28 14:04:54:482
8.2235;-4.395;-1.6193;8.5744;-4.6301;1.1006;-0.041;0.2157;-2.8374;1.2593;1.134;0.2524;5.1;-11.98;3.75;-5.49;235.1;28.17;-82.69;0.0;35.95841;-83.92486;775.32;NaN;0.0;191.17381;;3 / 9;82006;2022-10-28 14:04:54:983
7.7429;-2.6925;1.049;9.2102;-3.2959;0.6924;-1.5421;0.9154;1.2501;-0.6366;-0.1603;-0.3858;1.3;-12.67;7.22;-4.61;295.87;20.77;-84.24;0.0;35.95841;-83.92486;775.32;NaN;0.0;191.17381;;3 / 9;82505;2022-10-28 14:04:55:482
12.2533;-4.2317;1.3771;9.2725;-2.849;1.44;1.0627;-0.491;-0.2307;-0.3501;-0.3996;0.2023;5.0;-12.32;8.18;-1.33;11.58;16.89;-81.17;0.0;35.95841;-83.92486;775.32;NaN;0.0;191.17381;;3 / 9;83006;2022-10-28 14:04:55:983
7.791;-3.9281;-0.9413;8.7355;-4.401;-0.7022;-1.2312;0.7254;0.4399;0.3468;-0.7794;0.2105;0.0;-7.16;12.81;0.28;356.22;26.67;-94.6;0.0;35.95841;-83.92486;775.32;NaN;0.0;191.17381;;3 / 9;83505;2022-10-28 14:04:56:482
8.4302;-2.6046;0.8157;9.0926;-3.6707;0.147;-0.4929;0.8515;0.8431;-0.5927;-0.2785;-0.3774;0.0;-1.5;14.61;-1.52;351.66;21.98;-89.07;0.0;35.95841;-83.92486;775.32;NaN;0.0;191.17381;;3 / 9;84006;2022-10-28 14:04:56:983
9.8593;-2.5005;0.9972;9.2674;-2.8414;1.4876;0.7778;0.3175;-0.4375;0.0578;0.3612;0.0221;0.0;1.63;9.39;-2.77;340.04;16.37;-80.57;0.0;35.95841;-83.92486;775.32;NaN;0.0;191.17381;;0 / 9;84505;2022-10-28 14:04:57:482
7.6848;-3.7026;-0.2495;8.8661;-4.1717;-0.4;-1.7123;0.6013;1.3365;0.036;-0.6238;0.2749;0.0;5.42;3.45;-5.87;310.66;25.18;-92.58;0.0;35.95841;-83.92486;775.32;NaN;0.0;191.17381;;0 / 9;85006;2022-10-28 14:04:57:983
8.3088;-1.7118;1.7426;8.9805;-3.7694;1.1459;0.2687;0.3648;2.5834;-0.2553;-0.9873;-0.3105;0.0;8.36;-4.29;-8.46;263.42;22.6;-82.73;0.0;35.95841;-83.92486;775.32;NaN;0.0;191.17381;;0 / 9;85505;2022-10-28 14:04:58:482
10.41;-2.6901;-0.2414;9.3578;-2.6846;1.1812;0.8841;0.4414;-1.233;-0.6992;-0.1748;0.1054;0.0;7.05;-11.4;-9.04;227.42;14.95;-80.23;0.0;35.95841;-83.92486;775.32;NaN;0.0;191.17381;;0 / 9;86006;2022-10-28 14:04:58:983
8.027;-3.4199;0.2061;8.8091;-4.2188;-0.8782;-0.6173;0.7012;1.0054;-0.8705;-1.4168;0.1841;1.3;4.91;-10.69;-10.46;231.62;24.61;-89.74;0.0;35.95841;-83.92486;775.32;NaN;0.0;191.17381;;0 / 9;86505;2022-10-28 14:04:59:482
9.3485;-3.1241;5.2914;8.9771;-3.7454;1.2466;1.4399;-3.7803;4.6209;-1.6235;-1.9165;-0.5961;1.3;6.21;-11.51;-9.26;226.34;22.45;-82.09;0.0;35.95841;-83.92486;775.32;NaN;0.0;191.17381;;0 / 9;87005;2022-10-28 14:04:59:982
8.1185;-1.9923;-3.2348;9.3928;-2.5494;-1.2029;-0.4366;0.7829;-1.2242;-0.8873;0.485;0.0929;2.0;8.72;-7.03;-8.08;238.42;15.07;-97.3;0.0;35.95841;-83.92486;775.32;NaN;0.0;191.17381;;0 / 9;87506;2022-10-28 14:05:00:483
8.2938;-3.6338;4.0959;9.1241;-3.4703;0.9373;-0.3907;-1.2797;0.4192;1.0011;1.7591;0.4348;0.0;17.79;-2.53;-1.91;312.09;20.72;-84.13;0.0;35.95841;-83.92486;775.32;NaN;0.0;191.17381;;0 / 9;88005;2022-10-28 14:05:00:982
11.2687;-4.3379;-3.9341;9.2186;-2.6902;-1.9877;2.5077;-2.0998;-1.8309;-1.2396;0.0973;-0.0522;0.0;23.98;6.34;9.09;49.46;16.98;-102.63;0.0;35.95841;-83.92486;775.32;NaN;0.0;191.17381;;0 / 9;88505;2022-10-28 14:05:01:482
9.052;-2.1233;-3.0449;9.365;-2.2177;-1.8837;-0.0334;1.0022;-0.1703;-0.955;-0.0418;0.027;0.0;22.18;12.62;20.23;55.19;13.07;-101.37;0.0;35.95841;-83.92486;775.32;NaN;0.0;191.17381;;0 / 9;89005;2022-10-28 14:05:01:982
8.3483;-2.9228;-0.5261;8.9729;-3.3868;-2.0461;-0.1757;0.5053;1.5046;-0.8314;-0.1167;0.3824;0.0;20.94;4.89;28.58;73.85;20.2;-102.85;0.0;35.95841;-83.92486;775.32;NaN;0.0;191.17381;;0 / 9;89505;2022-10-28 14:05:02:482
8.3919;-4.3552;1.0044;8.4215;-4.8003;1.4852;0.2693;-0.1348;-2.7953;-0.0079;0.5649;-0.3374;0.0;12.17;0.24;32.36;73.88;29.31;-80.0;0.0;35.95841;-83.92486;775.32;NaN;0.0;191.17381;;0 / 9;90006;2022-10-28 14:05:02:983
8.1347;-2.7308;0.4262;9.009;-3.4626;-1.7373;-1.2766;0.0711;2.5301;-1.2138;-0.2113;-0.0495;2.0;-1.05;-5.25;29.57;102.6;21.47;-98.32;0.0;35.95841;-83.92486;775.32;NaN;0.0;191.17381;;0 / 9;90506;2022-10-28 14:05:03:483
10.5987;-3.2587;-3.3042;9.0907;-2.4144;-2.775;-0.1891;0.1369;-1.5005;-0.8544;-0.3744;0.0459;0.0;-8.12;-20.89;23.66;139.29;14.25;-106.98;2.0;35.95841;-83.92486;775.32;NaN;0.0;191.17381;;0 / 9;91005;2022-10-28 14:05:03:982
9.3544;-2.2989;-3.4636;8.7337;-4.0961;-1.7651;1.0706;1.7886;-1.6823;-0.0357;0.1875;0.6634;0.0;-20.7;-21.43;10.07;168.8;24.69;-101.43;0.0;35.95841;-83.92486;775.32;NaN;0.0;191.17381;;0 / 9;91506;2022-10-28 14:05:04:483
8.1305;-1.8682;3.7083;9.3088;-2.9895;0.7608;-0.5415;0.7563;2.9826;0.5286;0.5868;-0.2064;0.0;-30.64;-20.47;1.74;170.96;17.75;-85.33;0.0;35.95841;-83.92486;775.32;NaN;0.0;191.17381;;0 / 9;92005;2022-10-28 14:05:04:982
9.4603;-2.3695;3.5788;8.8224;-2.0434;3.763;0.3276;0.1865;-1.4714;0.5233;2.8901;0.1079;0.0;-33.54;-28.8;1.03;163.75;12.25;-74.12;0.0;35.95841;-83.92486;775.32;NaN;0.0;191.17381;;3 / 9;92506;2022-10-28 14:05:05:483
6.7654;-3.7747;3.2536;8.7716;-3.7255;2.3128;-1.9401;0.653;1.7338;-0.0102;-0.2502;0.2934;0.0;-35.53;-22.52;-8.66;179.23;22.33;-75.23;0.0;35.95841;-83.92486;775.32;NaN;0.0;191.17381;;3 / 9;93005;2022-10-28 14:05:05:982
11.3572;-4.6271;3.6981;8.0614;-3.681;4.1993;3.101;-0.8314;-0.7944;0.0954;0.6469;-0.4077;0.0;-38.81;-11.59;-0.99;144.79;22.05;-62.48;0.0;35.95841;-83.92486;775.32;NaN;0.0;191.17381;;3 / 9;93506;2022-10-28 14:05:06:483
8.9818;-1.3164;0.9335;9.5164;-2.2169;0.8335;-0.592;0.0253;0.4698;-0.3148;-0.2274;0.0034;0.0;-35.03;-14.68;7.84;153.73;13.07;-84.99;0.0;35.95841;-83.92486;775.32;NaN;0.0;191.17381;;3 / 9;94006;2022-10-28 14:05:06:983
7.2075;-3.1358;1.7964;9.1636;-3.2298;1.3292;-1.2103;-0.2293;2.6769;-0.2829;-0.5441;0.1952;0.0;-33.13;-12.83;10.39;143.3;18.55;-78.5;0.0;35.95841;-83.92486;775.32;NaN;0.0;191.17381;;3 / 9;94506;2022-10-28 14:05:07:483
7.7913;-3.9784;2.4275;8.5138;-3.7586;3.0917;-0.577;-0.4465;-0.4524;-0.0597;0.7787;0.0629;2.6;-30.3;-6.41;8.76;129.05;22.54;-70.04;0.0;35.95841;-83.92486;775.32;NaN;0.0;191.17381;;3 / 9;95006;2022-10-28 14:05:07:983
7.418;-1.3214;1.4375;9.448;-2.0962;1.585;-2.5104;-1.2152;0.3255;-0.1384;-0.2105;-0.2201;8.4;-26.7;-5.7;4.13;143.6;12.34;-80.48;0.0;35.95841;-83.92486;775.32;NaN;0.0;191.17381;;3 / 9;95505;2022-10-28 14:05:08:482
13.5858;-3.3604;1.2727;9.2001;-2.9196;1.7331;1.7004;-0.7826;-1.8028;-1.6982;0.7751;0.6647;7.3;-22.01;-8.85;5.38;148.65;17.32;-79.33;0.0;35.95841;-83.92486;775.32;NaN;0.0;191.17381;;3 / 9;96005;2022-10-28 14:05:08:982
6.76;-4.4237;-1.1154;8.2932;-5.2292;-0.2206;-1.4339;-0.1859;-0.4862;0.4455;0.3354;0.7397;2.4;-18.21;-0.19;3.88;159.96;32.22;-91.52;0.0;35.95841;-83.92486;775.32;NaN;0.0;191.17381;;3 / 9;96506;2022-10-28 14:05:09:483
7.1871;-3.8539;2.3731;8.3802;-4.8682;1.4975;-1.4036;1.2656;1.0017;0.3099;-0.2051;-0.3258;2.3;-9.88;5.36;-3.64;247.65;29.76;-79.87;0.0;35.95841;-83.92486;775.32;NaN;0.0;191.17381;;3 / 9;97005;2022-10-28 14:05:09:982
9.9227;-4.2126;0.7624;8.7499;-3.9288;2.0431;0.687;0.4099;-0.0371;0.2463;0.0429;0.0736;4.9;-10.16;-8.19;-8.94;208.31;23.62;-76.86;0.0;35.95841;-83.92486;775.32;NaN;0.0;191.17381;;3 / 9;97506;2022-10-28 14:05:10:483
6.0805;-4.759;-0.0317;8.3649;-5.1185;-9.0E-4;-1.8619;0.7515;0.8023;-0.3618;-0.317;0.2656;6.6;-18.32;-6.77;-3.34;191.05;31.46;-90.01;0.0;35.95841;-83.92486;775.32;NaN;0.0;191.17381;;3 / 9;98005;2022-10-28 14:05:10:982
10.5356;-9.7232;1.5622;7.2081;-6.1907;2.4267;2.9322;-1.1029;-2.195;0.2531;1.0479;0.1178;2.5;-19.11;0.43;-5.04;173.89;39.14;-71.39;0.0;35.95841;-83.92486;775.32;NaN;0.0;191.17381;;3 / 9;98506;2022-10-28 14:05:11:483
7.9944;-3.9634;-0.367;8.9253;-4.023;0.5695;-0.732;0.5318;-1.0437;0.6092;0.4435;-0.0318;2.2;-21.88;-6.64;-8.91;205.88;24.22;-86.35;0.0;35.95841;-83.92486;775.32;NaN;0.0;191.17381;;3 / 9;99005;2022-10-28 14:05:11:982
6.5103;-5.4263;1.587;8.5358;-4.7658;0.7728;-1.1424;-0.4387;1.0513;-0.3615;-0.1241;0.4077;0.4;-24.51;-8.94;-9.54;199.97;27.3;-83.77;0.0;35.95841;-83.92486;775.32;NaN;0.0;191.17381;;3 / 9;99505;2022-10-28 14:05:12:482
6.8934;-6.5563;0.3975;7.4141;-6.2353;1.524;0.1093;-0.0385;-1.5129;-0.4164;0.5159;-0.0293;0.0;-32.38;-3.79;-16.54;202.06;39.48;-78.38;0.0;35.95841;-83.92486;775.32;NaN;0.0;191.17381;;3 / 9;100006;2022-10-28 14:05:12:983
7.1767;-4.398;1.4943;8.1616;-5.3384;1.0297;-1.6751;0.7559;1.2975;-1.0019;0.2213;-0.3286;0.8;-35.04;-10.58;-31.11;221.09;32.98;-82.81;0.0;35.95841;-83.92486;775.32;NaN;0.0;191.17381;;3 / 9;100505;2022-10-28 14:05:13:482
8.1802;-4.9947;-2.5271;8.5093;-4.7842;-0.9348;0.0312;-0.0316;-1.3471;-0.9767;-0.5021;-0.2081;3.1;-48.09;-21.09;-39.62;225.5;30.38;-92.64;0.0;35.95841;-83.92486;775.32;NaN;0.0;191.17381;;3 / 9;101005;2022-10-28 14:05:13:982
7.3352;-5.4915;-1.3654;8.2413;-5.1922;-1.1368;-0.7678;-0.4126;-0.1964;-0.5926;0.722;0.2749;1.3;-53.81;-15.97;-25.05;219.33;31.38;-98.22;0.0;35.95841;-83.92486;775.32;NaN;0.0;191.17381;;3 / 6;101506;2022-10-28 14:05:14:483
8.7329;-5.1206;1.4354;8.2405;-5.2748;-0.6645;1.7489;-2.0836;1.2682;-1.0875;-0.2546;-0.3974;0.0;-48.06;-6.71;-20.33;217.71;32.54;-94.61;0.0;35.95841;-83.92486;775.32;NaN;0.0;191.17381;;3 / 6;102005;2022-10-28 14:05:14:982
9.5928;-3.947;-3.1672;8.3678;-4.9106;-1.4269;-0.0532;1.4851;-0.752;-0.5319;0.598;0.2659;0.0;-46.03;-5.85;-2.16;199.29;30.05;-99.68;0.0;35.958435;-83.92474;769.23;NaN;0.0;712.2393;;0 / 6;102506;2022-10-28 14:05:15:483
7.3783;-6.5294;-0.8764;7.6479;-6.0411;-1.0886;-0.3438;-0.4268;0.4115;-1.431;0.5454;0.5775;0.0;-41.08;-4.82;3.0;183.12;36.25;-96.33;0.0;35.958435;-83.92474;769.23;NaN;0.0;712.2393;;0 / 6;103005;2022-10-28 14:05:15:982
7.1635;-7.2915;-0.3182;7.2994;-6.3917;1.4268;0.1195;-1.1512;-1.7046;0.1632;0.0891;-0.6211;9.2;-39.73;-2.19;-9.62;189.7;41.27;-82.75;0.0;35.958435;-83.92474;769.23;NaN;0.0;712.2393;;0 / 6;103506;2022-10-28 14:05:16:483
7.6014;-3.2841;1.2727;8.5082;-4.8456;0.5478;-0.8883;1.7736;1.4058;-0.2091;0.1558;-0.3493;4.9;-30.19;2.72;-1.41;175.65;29.61;-86.32;0.0;35.958435;-83.92474;769.23;NaN;0.0;712.2393;;0 / 6;104005;2022-10-28 14:05:16:982
6.3852;-6.1026;1.7327;8.3977;-5.0634;-0.1025;1.3592;-1.4896;1.0538;-0.2065;0.02;0.3333;8.3;-23.17;13.8;-0.54;275.4;31.09;-90.7;0.0;35.958435;-83.92474;769.23;NaN;0.0;712.2393;;0 / 6;104506;2022-10-28 14:05:17:483
6.553;-6.4346;0.5441;7.3194;-6.4223;1.162;-0.179;0.4886;-1.1481;0.3402;0.4677;0.352;14.1;-15.17;28.03;0.45;11.6;40.91;-80.98;0.0;35.958435;-83.92474;769.23;NaN;0.0;712.2393;;0 / 6;105005;2022-10-28 14:05:17:982
7.1943;-4.0391;0.7433;8.3844;-4.9622;1.1173;-1.2799;0.3621;0.3065;0.2653;-0.505;-0.572;18.4;-9.99;35.59;-2.4;358.85;32.45;-81.49;0.0;35.958435;-83.92474;769.23;NaN;0.0;712.2393;;0 / 6;105506;2022-10-28 14:05:18:483
11.5837;-7.1228;3.1594;8.4105;-4.8045;1.533;2.7779;-0.4898;0.4718;-0.1435;-0.0519;0.2369;19.0;-14.27;34.67;-7.5;346.92;29.34;-79.67;0.0;35.958435;-83.92474;769.23;NaN;0.0;712.2393;;0 / 6;106006;2022-10-28 14:05:18:983
5.6498;-4.9214;1.4922;7.0665;-6.4304;2.2101;-1.0214;1.8394;-0.444;0.1689;0.5669;0.4806;13.6;-8.55;37.88;-11.74;337.06;40.97;-72.63;0.0;35.958435;-83.92474;769.23;NaN;0.0;712.2393;;0 / 6;106506;2022-10-28 14:05:19:483
6.513;-3.8638;1.6947;8.3548;-4.9975;1.1798;-1.4526;0.7178;2.0433;0.0418;-0.3982;-0.5949;4.0;-5.1;39.64;-12.02;340.19;30.64;-81.96;0.0;35.958435;-83.92474;769.23;NaN;0.0;712.2393;;0 / 6;107005;2022-10-28 14:05:19:982
8.7048;-5.6964;2.1685;8.5269;-4.7251;1.0657;2.4164;-3.4564;1.5566;-0.4445;-0.0967;0.376;2.7;-10.91;32.4;-12.13;335.6;27.85;-81.01;0.0;35.958435;-83.92474;769.23;NaN;0.0;712.2393;;0 / 6;107506;2022-10-28 14:05:20:483
6.8785;-6.5584;0.2922;7.2634;-6.4344;1.4184;0.0653;0.9087;-0.8148;0.2755;0.5189;0.4982;3.2;-3.86;34.58;-8.16;342.76;41.01;-78.95;0.0;35.958435;-83.92474;769.23;NaN;0.0;712.2393;;0 / 6;108005;2022-10-28 14:05:20:982
7.0502;-3.9362;3.1406;8.3482;-5.0208;1.1268;-1.1144;1.3056;1.9291;0.3977;-0.6402;-0.4329;5.3;-12.66;45.81;-6.56;350.9;30.8;-82.31;0.0;35.958435;-83.92474;769.23;NaN;0.0;712.2393;;0 / 6;108506;2022-10-28 14:05:21:483
9.7908;-5.6644;0.4872;8.6485;-4.2125;1.9048;0.9642;0.1306;-0.3258;-0.6186;-0.4701;0.0215;0.9;-20.4;42.06;-8.76;351.12;25.44;-77.58;0.0;35.958435;-83.92474;769.23;NaN;0.0;712.2393;;0 / 6;109005;2022-10-28 14:05:21:982
7.9385;-4.7587;0.4044;7.488;-6.1113;1.6591;-0.2275;1.3155;-0.8615;0.3655;0.7392;0.6595;0.2;-19.28;43.14;-8.98;345.03;36.56;-81.31;0.0;35.958435;-83.92474;769.23;NaN;0.0;712.2393;;0 / 6;109505;2022-10-28 14:05:22:482
6.1672;-4.3092;2.0716;8.5679;-4.7362;0.5742;-1.8816;1.11;1.3845;0.1735;-0.9284;-0.8269;3.5;-13.52;42.94;-10.86;341.81;28.88;-86.17;0.0;35.958435;-83.92474;769.23;NaN;0.0;712.2393;;0 / 6;110005;2022-10-28 14:05:22:982
10.5715;-3.5228;0.5518;8.6665;-4.0479;2.1625;1.8694;0.4412;-1.2301;-0.3962;-0.2186;0.0464;1.9;-28.95;31.43;-14.23;336.68;24.38;-75.99;0.0;35.958435;-83.92474;769.23;NaN;0.0;712.2393;;2 / 6;110505;2022-10-28 14:05:23:482
6.6823;-5.3836;-0.0637;8.3999;-5.0546;0.2516;-1.3508;0.0732;0.2175;-0.5057;0.1671;0.0434;1.9;-33.86;29.4;-13.33;300.78;31.03;-88.28;0.0;35.958435;-83.92474;769.23;NaN;0.0;712.2393;;2 / 6;111007;2022-10-28 14:05:23:984
9.4825;-4.2009;2.3982;8.8035;-4.2719;-0.6469;1.2579;-2.9539;2.7396;-1.3629;-0.4086;0.1429;1.3;-39.82;26.81;-2.51;319.85;25.82;-94.2;0.0;35.958435;-83.92474;769.23;NaN;0.0;712.2393;;0 / 6;111505;2022-10-28 14:05:24:482
9.0673;-4.509;-1.0487;8.7902;-4.3388;0.2779;-0.2626;0.1307;-0.9074;-1.3175;0.2049;0.1524;4.3;-39.41;11.51;2.63;146.71;26.26;-88.19;0.0;35.958435;-83.92474;769.23;NaN;0.0;712.2393;;0 / 6;112005;2022-10-28 14:05:24:982
7.5416;-4.5673;-0.5282;8.0092;-5.6239;-0.6285;-1.2651;0.6191;0.0489;-0.2807;0.3422;0.3137;0.0;-38.36;0.69;10.59;159.52;34.99;-94.49;0.0;35.958435;-83.92474;769.23;NaN;0.0;712.2393;;0 / 5;112505;2022-10-28 14:05:25:482
9.3341;-6.0748;3.1298;7.8065;-5.8545;0.9766;3.2009;-3.986;1.7263;-0.3893;-0.2148;-0.9118;0.0;-43.11;3.69;12.62;139.43;36.65;-82.87;0.0;35.958435;-83.92474;769.23;NaN;0.0;712.2393;;0 / 5;113006;2022-10-28 14:05:25:983
7.456;-3.1199;-0.166;9.0276;-3.7962;0.5107;-0.4571;0.596;-1.4123;0.3547;0.3182;-0.3205;0.0;-49.27;-1.05;14.74;137.75;22.77;-86.76;0.0;35.958435;-83.92474;769.23;NaN;0.0;712.2393;;0 / 6;113506;2022-10-28 14:05:26:483
11.4281;-4.398;2.3946;8.3536;-4.5387;2.4059;2.8389;0.1845;-0.1523;-0.5233;0.7749;0.1487;0.0;-52.07;-5.81;13.05;134.89;27.57;-73.93;0.0;35.958435;-83.92474;769.23;NaN;0.0;712.2393;;0 / 6;114006;2022-10-28 14:05:26:983
5.2292;-5.991;2.2301;6.9567;-6.7682;1.402;-1.5168;0.8056;0.0245;-0.5047;0.1291;0.3048;0.0;-60.04;-5.81;11.33;151.06;42.36;-77.79;0.0;35.958435;-83.92474;769.23;NaN;0.0;712.2393;;0 / 6;114505;2022-10-28 14:05:27:482
6.4762;-6.8228;-0.7259;6.6244;-7.1677;0.955;-1.1512;0.1069;-1.1226;0.1635;-0.009;-4.0E-4;0.0;-73.67;-5.51;8.61;161.05;46.96;-81.8;0.0;35.958435;-83.92474;769.23;NaN;0.0;712.2393;;0 / 6;115006;2022-10-28 14:05:27:983
6.5198;-5.6186;2.4691;7.9957;-5.4357;1.6406;-1.3567;-0.5638;0.7607;-1.0821;0.0566;-0.672;0.0;-70.18;-5.31;18.92;140.79;33.66;-78.4;0.0;35.958435;-83.92474;769.23;NaN;0.0;712.2393;;0 / 6;115505;2022-10-28 14:05:28:482
8.9498;-5.4179;1.0627;8.3062;-4.9924;1.501;0.6955;-0.2108;-0.1612;-0.3469;0.4901;0.0515;0.0;-61.91;-18.68;9.49;156.89;30.6;-79.76;0.0;35.958435;-83.92474;769.23;NaN;0.0;712.2393;;0 / 6;116006;2022-10-28 14:05:28:983
7.153;-4.3205;1.657;8.2112;-5.3615;-0.0146;-0.9409;-0.1466;0.3332;-0.0335;-0.4735;0.2921;0.0;-59.57;-19.87;8.63;168.14;31.95;-88.85;0.0;35.958435;-83.92474;769.23;NaN;0.0;712.2393;;0 / 6;116505;2022-10-28 14:05:29:482
5.8083;-5.7066;1.6504;7.3267;-6.376;1.3551;-2.5643;1.7936;-0.4594;-0.5886;0.1232;0.0195;0.0;-59.1;-7.09;17.51;145.2;40.55;-79.52;0.0;35.958435;-83.92474;769.23;NaN;0.0;712.2393;;0 / 6;117006;2022-10-28 14:05:29:983
5.3839;-3.1971;0.9224;8.5861;-4.7375;-0.0769;-1.4888;1.3625;1.2572;-0.4319;-0.8781;-0.885;0.0;-57.62;-3.38;14.08;156.3;28.89;-90.51;0.0;35.958435;-83.92474;769.23;NaN;0.0;712.2393;;0 / 6;117506;2022-10-28 14:05:30:483
13.4704;-5.7532;0.2109;8.8767;-4.1683;-0.0191;4.4867;-0.892;-0.0064;0.1095;-0.1799;0.215;0.0;-48.86;-5.87;17.16;144.16;24.36;-88.36;0.0;35.958435;-83.92474;769.23;NaN;0.0;712.2393;;0 / 6;118005;2022-10-28 14:05:30:982
8.0925;-4.6932;-0.5668;7.89;-5.7783;0.7282;0.3239;1.0403;-1.2282;0.8902;0.6982;0.5096;1.0;-45.22;2.94;17.27;142.44;34.43;-89.27;0.0;35.958435;-83.92474;769.23;NaN;0.0;712.2393;;0 / 6;118506;2022-10-28 14:05:31:483
7.2885;-4.1486;3.3308;8.0714;-5.3243;1.6355;-0.8598;1.1;1.4177;0.0787;-0.1997;-0.4008;0.0;-47.98;8.55;9.49;132.83;32.88;-78.55;0.0;35.958435;-83.92474;769.23;NaN;0.0;712.2393;;0 / 6;119005;2022-10-28 14:05:31:982
9.4301;-5.0629;2.1832;8.3357;-4.4716;2.5867;-0.3345;0.4723;-1.2351;0.1237;0.4685;0.1435;5.3;-48.64;8.74;9.21;117.65;27.13;-72.76;0.0;35.958435;-83.92474;769.23;NaN;0.0;712.2393;;3 / 6;119506;2022-10-28 14:05:32:483
5.3013;-5.0318;0.6763;7.8508;-5.7405;1.2575;-1.5908;0.566;1.2406;0.1258;0.0373;0.255;4.2;-44.53;18.26;11.21;120.04;35.83;-80.9;0.0;35.958435;-83.92474;769.23;NaN;0.0;712.2393;;3 / 6;120005;2022-10-28 14:05:32:982
6.4277;-4.1393;9.5273;4.0557;-3.3251;8.2865;2.6686;-0.8457;1.5843;0.5666;0.8436;-0.1006;1.9;-40.16;27.58;-2.87;61.66;21.38;-26.64;0.0;35.958435;-83.92474;769.23;NaN;0.0;712.2393;;3 / 6;120505;2022-10-28 14:05:33:482
7.3478;-2.8472;3.2566;8.3163;-3.258;4.049;-0.8111;0.5633;-0.533;-0.8334;-0.6085;-0.3093;2.2;-39.21;28.63;-4.91;40.02;19.4;-64.04;0.0;35.958435;-83.92474;769.23;NaN;0.0;712.2393;;3 / 6;121005;2022-10-28 14:05:33:982
6.1298;-4.1806;5.9521;8.0324;-3.8028;4.146;2.5889;-1.2364;0.4316;0.6814;0.8775;0.8684;0.9;-37.89;31.99;4.09;50.8;22.82;-62.7;0.0;35.958435;-83.92474;769.23;NaN;0.0;712.2393;;3 / 6;121505;2022-10-28 14:05:34:482
7.8203;-4.7076;2.924;7.5621;-4.7616;4.0388;-0.1002;0.1453;-3.0007;0.8306;2.4209;0.483;9.8;-27.49;39.92;1.11;29.92;29.05;-61.89;0.0;35.958435;-83.92474;769.23;NaN;0.0;712.2393;;3 / 6;122006;2022-10-28 14:05:34:983
6.32;-2.7395;2.0007;9.0443;-3.5624;1.2963;-1.5493;1.0219;0.3714;-0.4572;-0.793;-0.1888;0.8;-24.79;35.68;-6.34;354.44;21.85;-81.69;0.0;35.958435;-83.92474;769.23;NaN;0.0;712.2393;;3 / 6;122506;2022-10-28 14:05:35:483
13.2413;-3.6126;1.5939;9.2393;-3.1231;1.0261;3.7714;-1.8267;-0.6431;0.4117;0.2678;0.2019;3.2;-34.69;23.93;0.21;18.31;18.57;-83.66;0.0;35.958435;-83.92474;769.23;NaN;0.0;712.2393;;3 / 6;123005;2022-10-28 14:05:35:982
8.7724;-4.0845;-3.1436;8.6457;-4.62;-0.28;0.4795;0.4589;-1.9644;1.2663;-0.4664;0.5579;1.3;-41.47;17.46;0.86;184.33;28.11;-91.86;0.0;35.958435;-83.92474;769.23;NaN;0.0;712.2393;;3 / 6;123505;2022-10-28 14:05:36:482
7.9208;-2.6904;1.3286;9.2073;-3.3092;0.6672;-0.2956;0.1583;2.1539;-1.7401;-0.927;-0.306;0.4;-46.67;1.71;-7.37;194.26;19.72;-85.86;0.0;35.958435;-83.92474;769.23;NaN;0.0;712.2393;;3 / 6;124006;2022-10-28 14:05:36:983
9.1639;-1.4459;-3.411;9.195;-3.0726;-1.4767;-0.2751;0.61;-1.5817;-0.4587;0.1946;0.2318;0.0;-58.41;-19.18;-2.72;198.02;18.16;-98.6;0.0;35.958435;-83.92474;769.23;NaN;0.0;712.2393;;3 / 6;124505;2022-10-28 14:05:37:482
8.8514;-3.6876;-0.4941;8.8129;-4.079;-1.3659;-0.1416;0.6579;1.9231;-3.0442;0.0851;0.1922;0.0;-58.27;-8.81;-2.29;198.8;24.58;-98.81;0.0;35.958435;-83.92474;769.23;NaN;0.0;712.2393;;3 / 6;125007;2022-10-28 14:05:37:984
11.715;-5.4458;-1.7991;8.7891;-3.8574;-2.0106;3.0382;-2.8372;-0.4793;-0.6133;-0.2629;-0.2008;0.0;-52.5;0.92;-4.22;219.52;23.16;-102.89;0.0;35.958435;-83.92474;769.23;NaN;0.0;712.2393;;3 / 6;125505;2022-10-28 14:05:38:482
9.4935;-3.2937;-2.9136;8.8817;-3.6258;-2.0343;-0.7558;-0.0531;0.0607;-1.1682;0.5233;0.4128;0.0;-43.72;6.81;-1.99;232.03;21.7;-102.9;0.0;35.958435;-83.92474;769.23;NaN;0.0;712.2393;;3 / 6;126006;2022-10-28 14:05:38:983
9.2883;-3.489;-5.0115;8.3719;-4.5458;-2.3275;-0.7517;-0.9648;1.8303;-1.4854;-0.5724;0.2622;0.0;-35.08;10.63;-13.39;251.24;26.36;-94.03;0.0;35.958435;-83.92474;769.23;NaN;0.0;712.2393;;3 / 6;126505;2022-10-28 14:05:39:482
7.8221;-2.8235;-2.7691;8.3025;-3.4138;-3.9478;1.6455;-1.8958;2.3337;-1.974;-0.4031;0.139;0.0;-28.22;4.71;-12.38;264.2;20.37;-115.43;2.0;35.958435;-83.92474;769.23;NaN;0.0;712.2393;;3 / 6;127006;2022-10-28 14:05:39:983
8.9614;-3.4666;-3.3514;8.6345;-4.0583;-2.2684;1.8772;0.6499;-0.1861;-2.5108;0.8366;1.0543;1.3;-16.09;5.53;0.49;256.96;24.45;-104.72;2.0;35.958435;-83.92474;769.23;NaN;0.0;712.2393;;3 / 6;127506;2022-10-28 14:05:40:483
6.7893;-4.9944;-0.5079;8.2028;-4.6297;-2.7294;-1.2985;-0.4964;2.3532;-0.3685;0.26;-0.0252;1.8;-10.37;8.08;13.71;87.25;28.17;-108.4;2.0;35.958435;-83.92474;769.23;NaN;0.0;712.2393;;3 / 6;128005;2022-10-28 14:05:40:982
9.5237;-5.8008;-0.8713;8.6906;-4.1965;-1.7414;2.4415;-3.5867;-0.668;-0.3993;1.5725;-0.0119;1.0;-6.79;11.57;22.2;73.3;25.34;-101.33;0.0;35.958435;-83.92474;769.23;NaN;0.0;712.2393;;0 / 5;128506;2022-10-28 14:05:41:483
8.1386;-3.8025;-1.663;8.4598;-4.3242;-2.4295;-0.2795;0.5399;0.8001;1.1337;-0.0295;-0.0289;2.2;-12.6;8.33;29.89;94.49;26.16;-106.02;0.0;35.958435;-83.92474;769.23;NaN;0.0;712.2393;;0 / 5;129006;2022-10-28 14:05:41:983
6.6191;-5.0118;-0.6817;8.2687;-4.9044;-1.9355;-1.5849;-0.1808;0.8749;-1.1561;-0.0858;0.1873;3.6;-7.05;24.54;29.33;60.73;30.01;-103.17;0.0;35.958435;-83.92474;769.23;NaN;0.0;712.2393;;0 / 5;129506;2022-10-28 14:05:42:483
11.8582;-2.9315;-2.2158;9.0441;-3.4895;-1.4824;1.0664;2.2089;-0.0377;-0.0212;0.274;0.8382;1.0;-4.65;35.18;31.78;46.59;20.84;-99.31;0.0;35.958435;-83.92474;769.23;NaN;0.0;712.2393;;0 / 5;130006;2022-10-28 14:05:42:983
7.424;-3.166;-1.7279;8.415;-4.2204;-2.7469;-0.7639;0.919;1.2811;0.2977;-0.3673;0.1135;2.0;-2.34;40.78;23.68;33.94;25.49;-108.08;0.0;35.958435;-83.92474;769.23;NaN;0.0;712.2393;;0 / 5;130505;2022-10-28 14:05:43:482
5.4817;-4.6355;-1.6956;7.7072;-5.3676;-2.821;-2.0243;0.0857;1.4817;-0.2234;-0.1552;0.2706;0.7;-0.84;32.96;18.9;36.64;33.19;-110.1;0.0;35.958435;-83.92474;769.23;NaN;0.0;712.2393;;0 / 5;131005;2022-10-28 14:05:43:982
10.3388;-5.9952;-1.5586;7.9101;-5.4132;-2.0733;1.1445;0.8143;2.8781;-0.6108;-1.172;-0.0344;0.8;-10.93;25.69;17.44;47.8;34.66;-98.53;0.0;35.958443;-83.92456;867.99;NaN;0.0;437.15866;;0 / 8;131506;2022-10-28 14:05:44:483
7.2108;-4.0436;-2.4673;7.9843;-5.1106;-2.5106;-0.7664;0.8796;0.7676;0.1706;-0.6009;-0.0773;1.3;-22.72;19.41;11.34;49.57;31.41;-107.46;0.0;35.958443;-83.92456;867.99;NaN;0.0;437.15866;;0 / 8;132006;2022-10-28 14:05:44:983
7.6783;-6.8779;-0.7184;7.7775;-5.6667;-1.8894;2.5841;-1.9467;0.4202;1.5893;-1.0064;-0.1242;2.4;-27.84;16.61;12.11;124.6;35.3;-103.65;0.0;35.958443;-83.92456;867.99;NaN;0.0;437.15866;;0 / 8;132505;2022-10-28 14:05:45:482
7.3505;-4.168;0.4531;8.3758;-5.0483;-0.7289;-0.8251;0.7862;0.8395;0.0281;0.5229;0.0067;2.4;-33.24;16.58;13.59;105.59;30.76;-95.98;0.0;35.958443;-83.92456;867.99;NaN;0.0;437.15866;;0 / 8;133006;2022-10-28 14:05:45:983
6.6188;-4.3101;-0.8444;7.9691;-5.1249;-2.5299;-0.8486;0.3151;2.5708;0.1843;-0.405;-0.0266;0.2;-38.29;15.6;11.66;166.63;31.49;-105.08;0.0;35.958443;-83.92456;867.99;NaN;0.0;437.15866;;0 / 8;133505;2022-10-28 14:05:46:482
11.4885;-7.0062;-2.4374;7.9671;-5.2959;-2.1563;2.4669;-0.5761;-0.73;0.088;-0.2022;0.0821;1.8;-33.32;18.88;18.6;111.82;32.69;-105.14;0.0;35.958443;-83.92456;867.99;NaN;0.0;437.15866;;0 / 8;134005;2022-10-28 14:05:46:982
7.3606;-4.3424;-3.3066;8.1378;-4.4566;-3.1757;-1.7998;-0.6204;0.0487;-1.9747;1.1801;0.5378;0.9;-23.1;27.17;21.81;48.65;27.03;-111.32;0.0;35.958443;-83.92456;867.99;NaN;0.0;437.15866;;0 / 8;134505;2022-10-28 14:05:47:482
7.1276;-5.7386;-1.9507;8.2475;-3.8876;-3.6106;-0.4324;-2.0624;0.8067;-0.0534;-0.6454;-0.0965;0.8;-20.59;29.57;24.43;41.84;23.23;-111.39;0.0;35.958443;-83.92456;867.99;NaN;0.0;437.15866;;0 / 8;135005;2022-10-28 14:05:47:982
7.6552;-3.5222;-3.1816;8.5652;-3.8519;-2.8231;-0.6469;0.2351;-0.428;-0.5193;0.1698;0.1253;2.9;-23.62;34.82;18.54;24.48;23.44;-110.6;0.0;35.958443;-83.92456;867.99;NaN;0.0;437.15866;;0 / 8;135506;2022-10-28 14:05:48:483
8.4891;-1.8823;-6.239;8.2571;-4.0573;-3.3954;0.3815;1.13;-2.7216;-1.9565;0.5976;1.0274;3.1;-33.11;27.83;21.0;35.71;24.44;-112.35;0.0;35.958443;-83.92456;867.99;NaN;0.0;437.15866;;0 / 8;136006;2022-10-28 14:05:48:983
7.3651;-4.2389;-1.1249;8.3556;-4.0684;-3.1308;0.929;-1.7219;-0.0934;-1.2254;0.6557;0.071;3.1;-42.6;19.11;21.39;118.39;24.51;-110.54;0.0;35.958443;-83.92456;867.99;NaN;0.0;437.15866;;0 / 8;136505;2022-10-28 14:05:49:482
8.8316;-2.9007;-3.3933;8.2872;-4.1739;-3.1734;0.3837;2.3293;-2.0307;0.2217;0.7374;0.2175;3.1;-55.59;8.1;13.69;202.07;25.19;-110.95;0.0;35.958443;-83.92456;867.99;NaN;0.0;437.15866;;0 / 8;137005;2022-10-28 14:05:49:982
7.5365;-2.8651;-7.0798;8.0947;-4.4931;-3.234;-0.4034;1.7994;-3.9326;-0.864;0.3292;0.2208;0.8;-60.36;4.76;12.73;199.99;27.2;-110.18;0.0;35.958443;-83.92456;867.99;NaN;0.0;437.15866;;4 / 9;137506;2022-10-28 14:05:50:483
8.4488;-4.9741;-0.6745;8.4233;-4.1353;-2.8493;-0.8546;-2.227;2.1557;-1.3914;-0.097;0.3826;0.8;-64.65;0.23;13.61;195.2;24.94;-108.69;0.0;35.958443;-83.92456;867.99;NaN;0.0;437.15866;;4 / 9;138005;2022-10-28 14:05:50:982
11.6674;-8.0845;-3.1415;7.9092;-5.284;-2.3861;3.2517;0.0815;-0.5426;0.6797;-0.1318;0.038;0.8;-64.89;4.52;7.35;201.65;32.6;-106.79;0.0;35.958443;-83.92456;867.99;NaN;0.0;437.15866;;4 / 9;138506;2022-10-28 14:05:51:483
7.4937;-4.628;0.9625;8.182;-5.2674;-1.2164;-1.8139;-0.5062;2.223;-0.6877;1.1434;0.1238;1.3;-66.06;8.76;0.15;199.46;32.49;-98.46;0.0;35.958443;-83.92456;867.99;NaN;0.0;437.15866;;4 / 9;139006;2022-10-28 14:05:51:983
5.6076;-5.3632;-0.2668;7.9386;-5.4671;-1.8056;-1.5202;-0.7898;1.2197;0.7707;-0.0047;-0.0572;0.8;-67.26;10.39;-8.61;226.69;33.07;-105.88;0.0;35.958443;-83.92456;867.99;NaN;0.0;437.15866;;4 / 9;139505;2022-10-28 14:05:52:482
10.625;-6.5073;-2.9806;7.7296;-5.8113;-1.6285;2.0564;-0.0366;-1.2041;-0.0594;-0.2068;0.0101;0.8;-70.2;9.56;1.26;202.39;36.34;-101.9;0.0;35.958443;-83.92456;867.99;NaN;0.0;437.15866;;4 / 9;140006;2022-10-28 14:05:52:983
5.4212;-4.8855;0.6236;7.8684;-5.8515;0.1361;-1.619;0.397;-0.1007;-1.3253;0.9625;0.0379;0.8;-69.17;16.78;5.51;165.32;36.63;-89.01;0.0;35.958443;-83.92456;867.99;NaN;0.0;437.15866;;4 / 9;140505;2022-10-28 14:05:53:482
6.2435;-6.434;0.6159;7.6578;-5.93;-1.5377;-0.3537;-0.8884;-0.5863;0.6976;0.5794;-0.1381;2.4;-65.06;29.03;15.66;170.54;37.21;-101.35;0.0;35.958443;-83.92456;867.99;NaN;0.0;437.15866;;4 / 9;141006;2022-10-28 14:05:53:983
9.7346;-6.1415;-1.6564;7.5847;-6.1482;-0.9183;1.2596;0.5954;-1.123;0.2475;0.4476;0.1768;3.6;-47.29;44.06;20.08;75.25;38.63;-96.85;0.0;35.958443;-83.92456;867.99;NaN;0.0;437.15866;;4 / 9;141506;2022-10-28 14:05:54:483
5.9665;-5.9886;0.7935;7.5675;-6.2234;0.4151;-2.0364;-0.0097;-0.5944;-1.641;0.8229;-0.3572;0.8;-31.33;43.18;1.07;11.19;39.39;-86.86;0.0;35.958443;-83.92456;867.99;NaN;0.0;437.15866;;4 / 9;142006;2022-10-28 14:05:54:983
7.9388;-7.305;-1.1384;7.5809;-6.1545;-0.9069;0.8614;-1.3118;-0.2038;-0.0519;-0.5012;-0.1238;0.8;-21.22;41.08;-19.56;312.28;38.87;-96.82;0.0;35.958443;-83.92456;867.99;NaN;0.0;437.15866;;4 / 9;142506;2022-10-28 14:05:55:483
7.4336;-5.327;-1.4007;7.6198;-6.1022;-0.9344;-0.0717;0.7368;-0.3321;1.021;-0.3367;9.0E-4;2.2;-34.87;31.91;-33.39;279.11;38.48;-96.99;0.0;35.958443;-83.92456;867.99;NaN;0.0;437.15866;;4 / 9;143005;2022-10-28 14:05:55:982
4.3965;-6.8596;-0.0664;7.8926;-5.8205;3.0E-4;-2.0406;-0.8279;-1.2698;-1.1702;0.8021;-0.5442;2.2;-45.84;12.94;-22.61;229.41;37.32;-87.68;0.0;35.958443;-83.92456;867.99;NaN;0.0;437.15866;;4 / 9;143506;2022-10-28 14:05:56:483
10.4339;-3.8943;-2.394;8.1567;-5.1146;-1.8654;1.3014;0.0513;2.6286;-1.6914;-1.2354;-0.2;0.8;-45.06;3.13;-24.53;243.15;31.44;-102.88;0.0;35.958443;-83.92456;867.99;NaN;0.0;437.15866;;4 / 9;144005;2022-10-28 14:05:56:982
7.5733;-4.5191;-2.0028;8.0713;-5.3301;-1.6169;-0.7516;0.5976;-0.0292;0.4463;-0.6017;0.0212;2.2;-50.32;-2.81;-19.28;226.36;32.92;-101.33;0.0;35.958443;-83.92456;867.99;NaN;0.0;437.15866;;4 / 9;144505;2022-10-28 14:05:57:482
6.3715;-6.2357;1.1339;8.0156;-5.6203;0.5764;-1.9792;-2.3856;1.8915;2.4619;-0.427;-0.2247;2.4;-55.72;-6.26;-12.49;192.0;34.97;-85.89;0.0;35.958443;-83.92456;867.99;NaN;0.0;437.15866;;4 / 9;145005;2022-10-28 14:05:57:982
5.7903;-1.7375;4.9134;7.8376;-4.5757;3.7157;-2.7346;3.4146;3.2534;-2.131;-1.2911;0.7694;2.4;-53.87;-12.38;-23.27;176.46;27.81;-64.64;0.0;35.958443;-83.92456;867.99;NaN;0.0;437.15866;;4 / 9;145505;2022-10-28 14:05:58:482
7.1916;-4.8697;-0.786;8.027;-5.284;-1.9537;-0.8051;0.1972;1.7294;-1.9326;0.3358;0.3593;1.3;-59.61;0.04;-31.52;238.88;32.6;-103.68;0.0;35.958443;-83.92456;867.99;NaN;0.0;437.15866;;4 / 9;146006;2022-10-28 14:05:58:983
6.6245;-5.5687;-1.727;8.0296;-5.3015;-1.8949;3.4717;-0.7963;-0.989;1.2983;-1.237;-0.6305;4.7;-53.98;14.85;-40.12;258.09;32.72;-103.28;2.0;35.958298;-83.924515;714.88;NaN;0.0;27.446749;;2 / 9;146505;2022-10-28 14:05:59:482
7.3992;-3.615;-1.9857;8.0382;-4.9943;-2.5718;-0.7357;0.5604;0.5842;-0.6832;0.2579;0.2912;4.7;-60.84;1.2;-35.87;246.36;30.62;-107.74;0.0;35.958298;-83.924515;714.88;NaN;0.0;27.446749;;2 / 9;147006;2022-10-28 14:05:59:983
8.1168;-5.4239;-1.4145;8.4515;-4.2983;-2.5034;0.7019;-1.7397;-0.3193;-0.9902;0.4222;-0.0158;4.6;-59.14;4.37;-36.64;252.38;26.0;-106.5;0.0;35.958298;-83.924515;714.88;NaN;0.0;27.446749;;2 / 9;147506;2022-10-28 14:06:00:483
8.467;-3.5548;-3.4842;8.1698;-4.9195;-2.2854;0.3808;1.0612;-0.9145;-0.3493;0.6086;0.4444;3.5;-51.45;10.26;-27.58;253.31;30.11;-105.63;0.0;35.958298;-83.924515;714.88;NaN;0.0;27.446749;;2 / 9;148006;2022-10-28 14:06:00:983
5.959;-5.8101;1.6427;7.7709;-5.9422;0.6887;-1.6484;-0.3189;-1.5273;1.635;1.7695;-0.0918;4.7;-41.61;27.06;-25.72;263.63;37.64;-93.68;0.0;35.958298;-83.924515;714.88;NaN;0.0;27.446749;;2 / 9;148505;2022-10-28 14:06:01:482
7.8951;-5.3922;-5.7422;6.6768;-6.1002;-3.7918;-1.4107;0.8859;-2.5589;0.2453;1.0702;0.0288;3.1;-38.91;43.84;-17.04;298.62;38.47;-119.59;0.0;35.958298;-83.924515;714.88;NaN;0.0;27.446749;;2 / 9;149006;2022-10-28 14:06:01:983
6.0437;-5.9097;-3.1869;7.5179;-5.759;-2.5468;-0.3578;1.2097;-1.5901;1.3478;0.4925;-0.5087;3.8;-39.54;52.89;-11.4;314.34;35.96;-108.71;0.0;35.958298;-83.924515;714.88;NaN;0.0;27.446749;;2 / 9;149506;2022-10-28 14:06:02:483
7.8583;-3.8243;-2.8499;8.0866;-5.019;-2.3635;0.2404;1.0897;-0.1222;0.566;-1.7562;-0.2046;3.3;-45.11;52.56;-15.36;313.89;31.39;-103.8;0.0;35.958298;-83.924515;714.88;NaN;0.0;27.446749;;2 / 9;150006;2022-10-28 14:06:02:983
7.1094;-7.448;-3.9254;8.3712;-4.9136;-1.3966;-1.1355;-2.5838;-2.5478;1.827;1.6494;-1.6597;3.3;-60.82;39.06;-8.68;274.13;33.6;-108.3;0.0;35.958298;-83.924515;714.88;NaN;0.0;27.446749;;2 / 9;150506;2022-10-28 14:06:03:483
9.7905;1.2209;5.2128;9.5313;1.4811;1.7696;0.419;-0.0789;3.3312;-0.5869;0.4873;-4.0953;5.9;-59.91;7.2;-16.69;340.53;-8.69;-79.48;0.0;35.958298;-83.924515;714.88;NaN;0.0;27.446749;;2 / 9;151005;2022-10-28 14:06:03:982
0.2154;7.4809;5.9384;-0.9443;7.2572;6.5277;1.1995;-0.8059;-0.5112;-0.1339;1.1005;0.1992;159.6;-10.78;-28.93;-9.94;137.29;-47.73;8.23;0.0;35.958298;-83.924515;714.88;NaN;0.0;27.446749;;2 / 9;151506;2022-10-28 14:06:04:483
-1.051;7.8957;6.1367;-0.9001;7.404;6.3672;-0.2;0.7999;-0.2468;-0.2341;-0.1542;-0.127;138.5;9.39;-26.25;-4.14;213.0;-49.65;8.33;0.0;35.958298;-83.924515;714.88;NaN;0.0;27.446749;;2 / 9;152005;2022-10-28 14:06:04:982
-0.8536;7.1976;6.0942;-0.2622;7.1722;6.6829;-0.6129;0.2133;-0.4348;-0.068;-0.2459;-0.0782;138.5;9.96;-26.12;-7.16;218.37;-47.26;3.51;0.0;35.958298;-83.924515;714.88;NaN;0.0;27.446749;;2 / 9;152505;2022-10-28 14:06:05:482
0.9233;7.477;6.2895;1.2356;7.4224;6.2891;-0.5748;0.0158;0.383;0.1411;-0.314;-0.0463;138.5;6.83;-26.46;-12.51;228.28;-49.19;-11.12;0.0;35.958298;-83.924515;714.88;NaN;0.0;27.446749;;2 / 9;153005;2022-10-28 14:06:05:982
-1.0582;6.7038;6.8865;-0.5916;6.753;7.0864;-0.2089;0.0236;0.4807;-0.1416;0.5792;0.0681;138.5;7.52;-26.53;-12.9;214.04;-43.52;4.77;2.0;35.958298;-83.924515;714.88;NaN;0.0;27.446749;;2 / 9;153506;2022-10-28 14:06:06:483