sep=;
ACCELEROMETER X (m/s²);ACCELEROMETER Y (m/s²);ACCELEROMETER Z (m/s²);GRAVITY X (m/s²);GRAVITY Y (m/s²);GRAVITY Z (m/s²);LINEAR ACCELERATION X (m/s²);LINEAR ACCELERATION Y (m/s²);LINEAR ACCELERATION Z (m/s²);GYROSCOPE X (rad/s);GYROSCOPE Y (rad/s);GYROSCOPE Z (rad/s);LIGHT (lux);MAGNETIC FIELD X (μT);MAGNETIC FIELD Y (μT);MAGNETIC FIELD Z (μT);ORIENTATION Z (azimuth °);ORIENTATION X (pitch °);ORIENTATION Y (roll °);PROXIMITY (i);LOCATION Latitude : ;LOCATION Longitude : ;LOCATION Altitude ( m);LOCATION Altitude-google ( m);LOCATION Speed ( Kmh);LOCATION Accuracy ( m);LOCATION ORIENTATION (°);Satellites in range;Time since start in ms ;YYYY-MO-DD HH-MI-SS_SSS
-1.7414;5.0294;8.2511;-1.5403;4.7102;8.4624;-0.2982;0.2846;-0.1506;-0.2185;-0.2659;0.3196;23.8;3.23;1.22;-38.51;15.92;-29.5;12.76;5.0;35.958256;-83.92442;829.17;NaN;0.0;33.570072;;0 / 0;9;2022-09-09 16:21:24:424
-0.3802;3.8922;8.4126;-1.2897;4.2779;8.7296;0.208;0.218;-0.1153;-0.2584;0.0657;0.1297;23.8;0.15;-0.96;-41.72;19.61;-25.86;8.4;5.0;35.958256;-83.92442;829.17;NaN;0.0;33.570072;;0 / 0;509;2022-09-09 16:21:24:924
2.8519;4.031;8.6653;0.8128;1.9073;9.585;0.7703;1.1403;-0.9605;-0.1439;-0.2409;-1.1509;23.8;-4.18;-1.12;-46.95;13.92;-12.05;-2.2;5.0;35.958256;-83.92442;829.17;NaN;0.0;33.570072;;0 / 0;1009;2022-09-09 16:21:25:424
2.913;0.8913;10.9373;1.8458;1.7145;9.4775;0.6762;-1.7674;-2.5758;-0.2036;0.2012;0.575;26.8;-4.37;-8.92;-49.01;266.64;-10.07;-11.02;5.0;35.958256;-83.92442;829.17;NaN;0.0;33.570072;;0 / 0;1510;2022-09-09 16:21:25:925
4.3373;0.8112;5.0967;4.4511;2.0192;8.5019;-1.3443;-2.544;-0.5855;0.3956;-0.5849;-0.2367;14.0;-7.82;-15.69;-56.96;234.06;-6.38;-21.4;5.0;35.958256;-83.92442;829.17;NaN;0.0;33.570072;;0 / 0;2009;2022-09-09 16:21:26:424
2.1742;0.5955;9.2243;3.648;2.4138;8.777;2.1124;0.3954;1.5047;0.0131;0.7246;0.0833;11.6;24.71;-37.26;-27.0;226.62;-14.56;-26.81;5.0;35.958256;-83.92442;829.17;NaN;0.0;33.570072;;0 / 0;2509;2022-09-09 16:21:26:924
5.0438;1.0325;10.3615;3.9421;1.7195;8.8132;1.0913;0.3643;2.748;-0.7823;-0.2145;-0.0351;9.7;21.9;-20.4;-47.68;251.1;-10.1;-24.1;5.0;35.958256;-83.92442;829.17;NaN;0.0;33.570072;;0 / 0;3010;2022-09-09 16:21:27:425
7.7058;-0.7714;6.2088;7.229;-1.4205;6.4726;-0.2115;-0.3632;2.062;-0.9092;-2.2499;-1.5341;13.5;7.82;23.18;-75.11;284.98;8.33;-48.16;5.0;35.958256;-83.92442;829.17;NaN;0.0;33.570072;;0 / 0;3509;2022-09-09 16:21:27:924
8.9701;-4.9875;-0.8249;9.3623;-2.6427;-1.2387;-1.6887;-0.6416;1.8427;2.0541;-2.263;1.5212;13.5;-50.25;35.94;-53.76;300.0;5.21;-90.34;5.0;35.958256;-83.92442;829.17;NaN;0.0;33.570072;;0 / 0;4009;2022-09-09 16:21:28:424
5.7799;-0.9006;-2.2424;9.2557;-1.6206;-2.8064;-1.9228;-0.3804;0.7249;-0.8697;0.0135;-1.2908;4.3;-67.37;40.88;-24.62;305.59;9.51;-106.87;5.0;35.958256;-83.92442;829.17;NaN;0.0;33.570072;;0 / 0;4510;2022-09-09 16:21:28:925
9.3039;0.3909;-2.5475;9.151;-1.5508;-3.1661;0.1119;1.7264;2.0253;0.9336;-0.6654;-0.2849;1.3;-59.94;43.65;-40.2;302.48;9.1;-109.08;5.0;35.958256;-83.92442;829.17;NaN;0.0;33.570072;;0 / 0;5010;2022-09-09 16:21:29:425
9.5889;-2.6677;-0.9987;9.7478;-0.4566;-0.9711;1.2554;-2.729;-1.5844;1.5883;-0.2284;-0.5933;5.9;-60.3;51.41;-64.29;304.84;2.67;-95.69;5.0;35.958256;-83.92442;829.17;NaN;0.0;33.570072;;0 / 0;5509;2022-09-09 16:21:29:924
10.1169;3.21;-13.3173;9.2551;-0.0605;-3.2418;-1.0729;-0.9168;1.4509;-0.5955;2.2156;0.6879;7.3;-67.07;16.44;-66.13;280.57;-1.47;-117.79;5.0;35.958256;-83.92442;829.17;NaN;0.0;33.570072;;0 / 0;6009;2022-09-09 16:21:30:424
10.1862;1.5808;-1.3875;9.5494;2.145;-0.6156;0.6188;-0.0379;-0.8969;-0.3452;0.4886;-0.533;9.6;-60.52;1.26;-63.79;281.17;-12.63;-93.69;5.0;35.958256;-83.92442;829.17;NaN;0.0;33.570072;;0 / 0;6509;2022-09-09 16:21:30:924
6.3915;-1.9552;0.0763;9.443;0.2199;-2.6365;-2.4437;-0.3149;1.1642;-4.5304;1.1364;2.6995;9.6;-53.93;8.29;-48.36;278.31;-1.28;-105.6;5.0;35.958256;-83.92442;829.17;NaN;0.0;33.570072;;0 / 0;7009;2022-09-09 16:21:31:424
5.368;-3.1271;-5.9219;8.5058;-4.5411;-1.7888;2.1056;1.1445;-1.5406;-1.8238;2.3381;-0.1856;4.4;-36.79;89.98;-44.59;322.49;27.59;-101.88;0.0;35.958256;-83.92442;829.17;NaN;0.0;33.570072;;0 / 0;7509;2022-09-09 16:21:31:924
10.0328;-3.7077;-3.5913;8.3998;-3.6073;-3.5498;0.6495;1.3916;-0.5314;-2.3544;0.9007;0.3238;1.3;-24.81;100.13;-35.72;333.57;25.58;-112.19;0.0;35.958256;-83.92442;829.17;NaN;0.0;33.570072;;0 / 0;8009;2022-09-09 16:21:32:424
9.4128;-1.4225;-5.0315;8.6067;-3.6807;-2.9237;-0.973;3.4297;0.9597;-0.8539;1.1567;1.5166;3.0;-28.67;93.53;-20.85;339.79;22.04;-108.76;2.0;35.958256;-83.92442;829.17;NaN;0.0;33.570072;;0 / 0;8510;2022-09-09 16:21:32:925
7.9059;-2.2941;-2.8995;8.771;-3.7049;-2.3483;-1.0105;0.8783;0.982;1.2475;-0.8282;-0.1203;0.0;-26.16;88.26;-16.39;343.22;22.2;-104.99;0.0;35.958256;-83.92442;829.17;NaN;0.0;33.570072;;0 / 0;9010;2022-09-09 16:21:33:425
6.3425;-3.2925;-0.5749;8.969;-2.9237;-2.6795;-3.9124;-4.477;-4.1495;-0.311;-1.4097;-0.8401;0.0;-37.26;82.37;-9.24;344.32;17.35;-106.63;0.0;35.958256;-83.92442;829.17;NaN;0.0;33.570072;;0 / 0;9509;2022-09-09 16:21:33:924
8.9868;-4.5924;-2.2663;8.9402;-3.567;-1.8762;2.3627;-1.2634;-0.9458;-2.2457;1.3086;-1.0603;0.0;-42.69;78.47;0.24;348.65;27.55;-103.45;0.0;35.958256;-83.92442;829.17;NaN;0.0;33.570072;;0 / 0;10010;2022-09-09 16:21:34:425
10.6878;-5.4015;-0.8405;8.8292;-3.5584;-2.3566;-0.1798;0.1661;-1.6221;-2.1704;1.5698;2.3759;3.6;-49.14;63.62;0.69;344.6;21.28;-104.94;0.0;35.958256;-83.92442;829.17;NaN;0.0;33.570072;;0 / 0;10510;2022-09-09 16:21:34:925
11.6309;-5.7643;-3.4825;8.1786;-5.1393;-1.6937;2.1938;0.788;-0.4046;0.7102;0.1668;0.2035;0.0;-43.74;67.5;2.57;350.3;31.61;-101.7;0.0;35.958256;-83.92442;829.17;NaN;0.0;33.570072;;0 / 0;11009;2022-09-09 16:21:35:424
9.0957;-6.9326;1.3848;9.2474;-2.9836;-1.3245;-0.6543;-3.4951;2.6179;0.2375;1.1611;0.5097;0.0;-39.92;61.99;-0.36;353.12;17.71;-98.15;0.0;35.958256;-83.92442;829.17;NaN;0.0;33.570072;;0 / 0;11509;2022-09-09 16:21:35:924
8.5522;0.1672;-5.6444;9.0565;-1.8709;3.2633;-1.1398;0.0767;-7.9586;3.1234;0.2892;-2.6998;3.6;-37.11;68.55;-6.36;0.57;33.0;-80.22;0.0;35.958256;-83.92442;829.17;NaN;0.0;33.570072;;0 / 0;12010;2022-09-09 16:21:36:425
7.8449;4.8105;0.8294;9.6588;1.624;0.4902;-1.6509;2.1221;-0.4537;-1.2851;0.2779;0.2831;52.4;-49.69;46.61;-27.6;335.13;-9.53;-87.09;0.0;35.958256;-83.92442;829.17;NaN;0.0;33.570072;;0 / 0;12509;2022-09-09 16:21:36:924
10.8601;7.9083;-2.9617;9.2885;2.3758;-2.0614;0.3459;1.3389;-0.1584;1.0478;-1.3409;-0.619;52.4;-54.26;26.51;-20.62;319.06;-14.95;-103.77;0.0;35.958256;-83.92442;829.17;NaN;0.0;33.570072;;0 / 0;13009;2022-09-09 16:21:37:424
10.197;2.2379;-0.4322;9.5543;1.4704;1.6503;1.3123;1.5256;-1.8252;-0.5438;-0.0836;0.2108;39.9;-50.18;28.73;-44.29;316.86;-8.62;-80.2;0.0;35.958256;-83.92442;829.17;NaN;0.0;33.570072;;0 / 0;13510;2022-09-09 16:21:37:925
7.6328;2.6629;0.1484;9.3936;2.8133;-0.13;-0.73;-0.2812;1.0781;0.6033;-0.1646;-0.6169;39.9;-49.99;36.75;-49.91;316.03;-14.2;-86.75;0.0;35.958256;-83.92442;829.17;NaN;0.0;33.570072;;0 / 0;14010;2022-09-09 16:21:38:425
7.4605;1.5054;-0.358;9.4018;2.7856;0.133;-2.3813;-1.8857;1.5679;0.8697;-0.2827;-0.3299;39.9;-46.43;38.79;-48.02;317.71;-15.16;-87.22;0.0;35.958256;-83.92442;829.17;NaN;0.0;33.570072;;0 / 0;14509;2022-09-09 16:21:38:924
4.5685;2.7981;0.4331;9.1707;3.3423;0.9478;-0.8873;0.025;-0.308;-0.6196;0.8518;-0.1251;34.2;-40.44;53.66;-47.93;326.53;-19.93;-84.1;0.0;35.958256;-83.92442;829.17;NaN;0.0;33.570072;;0 / 0;15009;2022-09-09 16:21:39:424
8.8274;6.3679;-2.0782;8.2433;5.2191;-0.9897;0.6261;-0.0734;-2.4808;0.7076;-0.2188;-0.7064;30.2;-40.22;52.71;-47.77;320.22;-32.15;-96.85;0.0;35.958256;-83.92442;829.17;NaN;0.0;33.570072;;0 / 0;15510;2022-09-09 16:21:39:925
7.6567;2.5947;0.6018;9.2863;3.0992;0.5741;-1.22;0.5185;-0.3452;-0.3412;0.3915;0.3822;30.2;-37.46;53.76;-52.18;322.18;-18.42;-86.46;2.0;35.958256;-83.92442;829.17;NaN;0.0;33.570072;;0 / 0;16010;2022-09-09 16:21:40:425
6.4274;3.2028;-0.0051;9.1647;3.445;0.557;-1.6724;-0.7576;1.0632;-0.0551;-0.2744;0.2117;30.2;-35.14;71.25;-53.27;327.56;-20.57;-86.52;2.0;35.958256;-83.92442;829.17;NaN;0.0;33.570072;;0 / 0;16509;2022-09-09 16:21:40:924
11.1162;4.1474;2.4467;9.0438;3.6825;-0.9056;1.8133;0.7401;3.1867;-0.3618;0.6344;0.496;27.3;-40.93;75.84;-49.5;327.73;-24.29;-94.8;2.0;35.958256;-83.92442;829.17;NaN;0.0;33.570072;;0 / 0;17009;2022-09-09 16:21:41:424
8.3198;2.8077;-2.8481;9.3786;2.8102;-0.5607;0.0432;-0.1272;-0.8669;-0.3268;0.1808;0.0863;24.6;-32.78;86.4;-45.79;332.26;-16.65;-93.42;2.0;35.958256;-83.92442;829.17;NaN;0.0;33.570072;;0 / 0;17510;2022-09-09 16:21:41:925
8.4171;4.1174;-1.0872;8.9982;3.4379;-1.8393;-0.601;0.7141;0.3944;-0.6849;0.1458;0.1558;21.2;-38.31;82.8;-29.78;338.69;-20.98;-97.87;2.0;35.958256;-83.92442;829.17;NaN;0.0;33.570072;;0 / 0;18010;2022-09-09 16:21:42:425
11.8968;4.4871;-3.6763;8.7397;2.907;-3.3671;4.5038;0.2042;2.5811;-0.2845;-2.1534;0.1978;18.9;-51.77;72.58;-17.23;341.27;-17.79;-103.18;2.0;35.958256;-83.92442;829.17;NaN;0.0;33.570072;;0 / 0;18510;2022-09-09 16:21:42:925
12.7226;2.822;-1.1004;9.575;1.9661;0.7894;0.6616;-2.1435;-2.1684;0.1342;0.4676;-0.3666;12.0;-75.77;95.06;3.51;5.4;-11.57;-85.29;0.0;35.958256;-83.92442;829.17;NaN;0.0;33.570072;;0 / 0;19009;2022-09-09 16:21:43:424
7.9298;2.5481;-3.6476;9.0938;3.1882;-1.819;-0.408;-1.0167;-0.2403;-0.3228;-0.0101;-0.1862;7.7;-78.73;100.37;27.98;5.62;-18.97;-101.31;0.0;35.958256;-83.92442;829.17;NaN;0.0;33.570072;;0 / 0;19509;2022-09-09 16:21:43:924
6.5423;0.7358;-1.7539;9.4801;2.4993;-0.2287;-2.846;-0.8311;-3.1865;-1.0617;-0.2771;0.4752;12.0;-69.04;89.68;50.59;15.6;-18.56;-105.33;0.0;35.958256;-83.92442;829.17;NaN;0.0;33.570072;;0 / 0;20009;2022-09-09 16:21:44:424
10.136;3.332;3.1098;8.7942;3.8972;-1.9088;2.1841;2.2297;2.0886;-0.8312;-1.8357;0.2112;20.1;-66.88;47.83;45.39;21.95;-23.42;-102.25;0.0;35.958256;-83.92442;829.17;NaN;0.0;33.570072;;0 / 0;20509;2022-09-09 16:21:44:924
8.9207;4.6597;-2.7667;8.9003;3.4339;-2.2724;-0.551;1.0982;-0.7584;-0.7301;-1.6702;0.3502;20.1;-55.74;51.54;22.78;13.07;-22.33;-96.71;0.0;35.958256;-83.92442;829.17;NaN;0.0;33.570072;;0 / 0;21009;2022-09-09 16:21:45:424
8.7209;1.4874;-1.0525;9.5003;2.4155;0.2831;0.8831;-0.4966;-0.7594;-0.4384;0.8121;-0.015;17.9;-55.5;46.33;27.86;27.02;-14.26;-88.29;0.0;35.958256;-83.92442;829.17;NaN;0.0;33.570072;;0 / 0;21509;2022-09-09 16:21:45:924
8.6097;4.8547;-0.9003;8.9231;4.028;-0.5702;-0.8835;0.8058;0.9665;-1.4476;-0.0614;0.2229;35.2;-55.93;35.85;25.01;19.78;-25.05;-94.51;0.0;35.958256;-83.92442;829.17;NaN;0.0;33.570072;;0 / 0;22009;2022-09-09 16:21:46:424
7.8281;0.5812;4.4611;9.2361;3.2185;-0.7112;4.5695;2.339;0.6561;-0.7032;0.6183;1.2045;47.8;-47.04;22.86;16.28;18.22;-19.16;-94.4;0.0;35.958256;-83.92442;829.17;NaN;0.0;33.570072;;0 / 0;22509;2022-09-09 16:21:46:924
8.5116;4.1713;-1.8485;9.4313;2.6848;-0.1106;-0.8861;0.7218;-0.5497;0.1055;-1.032;-0.0382;55.1;-48.88;30.28;10.22;12.56;-15.89;-90.67;0.0;35.958256;-83.92442;829.17;NaN;0.0;33.570072;;0 / 0;23010;2022-09-09 16:21:47:425
10.5823;-1.0493;3.7059;9.1735;3.4482;0.3565;-1.205;0.1794;-0.1161;-0.1233;0.3302;-0.1083;68.9;-53.53;35.76;10.18;12.96;-20.59;-87.77;0.0;35.958256;-83.92442;829.17;NaN;0.0;33.570072;;0 / 0;23509;2022-09-09 16:21:47:924
8.5869;2.0429;-0.1546;9.0289;3.7042;-0.963;-2.5525;3.903;-4.0128;0.5256;0.1647;-0.0841;78.9;-56.66;38.1;13.05;6.59;-22.31;-96.36;0.0;35.958256;-83.92442;829.17;NaN;0.0;33.570072;;0 / 0;24010;2022-09-09 16:21:48:425
9.5447;4.4824;1.5308;8.8305;4.1734;-0.8808;5.7666;0.2982;1.5669;-0.7407;-1.5632;-0.0841;78.9;-64.76;37.2;14.16;6.32;-22.24;-96.49;0.0;35.958256;-83.92442;829.17;NaN;0.0;33.570072;;0 / 0;24509;2022-09-09 16:21:48:924
6.8536;5.9201;-2.8409;8.1051;5.4464;-0.9018;0.4083;-0.9405;0.9736;0.4987;0.3297;-0.5605;71.2;-68.61;27.6;14.03;5.77;-33.74;-96.35;0.0;35.958256;-83.92442;829.17;NaN;0.0;33.570072;;0 / 0;25009;2022-09-09 16:21:49:424
6.7448;1.7889;0.6497;9.0312;3.8217;0.0519;-2.2317;-2.3598;1.8614;2.195;-1.9111;-0.1238;71.2;-74.21;25.44;8.76;10.3;-22.94;-89.67;0.0;35.958256;-83.92442;829.17;NaN;0.0;33.570072;;0 / 0;25509;2022-09-09 16:21:49:924
7.4569;4.3747;0.4834;8.5263;4.567;-1.6172;4.8698;1.3863;1.5665;-0.7406;0.306;-0.0343;63.2;-77.38;26.44;10.56;356.58;-27.76;-100.74;0.0;35.958256;-83.92442;829.17;NaN;0.0;33.570072;;0 / 0;26009;2022-09-09 16:21:50:424
7.2365;4.1318;-3.8034;8.7298;4.4412;-0.4871;1.1581;0.9084;-1.4079;0.1917;0.3644;-0.2074;56.9;-79.22;18.99;3.84;352.34;-26.53;-97.99;0.0;35.958256;-83.92442;829.17;NaN;0.0;33.570072;;0 / 0;26510;2022-09-09 16:21:50:925
8.5846;2.9477;-1.5012;9.3505;2.8503;-0.7835;-0.6586;-1.1242;2.1384;0.161;0.3824;0.0635;56.9;-84.24;22.91;-0.54;350.19;-16.9;-94.79;0.0;35.958256;-83.92442;829.17;NaN;0.0;33.570072;;0 / 0;27009;2022-09-09 16:21:51:424
10.0893;5.5071;2.0013;9.0652;3.5361;-1.2201;3.0141;-0.088;1.2445;-0.2879;-1.1716;-0.403;51.2;-83.08;23.03;-5.19;342.51;-21.14;-97.67;0.0;35.958256;-83.92442;829.17;NaN;0.0;33.570072;;0 / 0;27510;2022-09-09 16:21:51:925
8.1715;4.0083;-0.5091;8.6375;4.329;-1.6805;0.0942;-0.2542;0.4703;-0.9434;0.0547;0.0155;44.3;-76.31;14.72;-4.27;338.18;-26.2;-101.01;0.0;35.958256;-83.92442;829.17;NaN;0.0;33.570072;;0 / 0;28012;2022-09-09 16:21:52:427
10.3681;1.4862;1.5835;9.1484;3.1563;-1.5856;2.5518;0.3451;2.4802;0.2964;-0.6255;0.4119;31.6;-70.67;18.45;-10.87;329.48;-18.78;-99.83;0.0;35.958256;-83.92442;829.17;NaN;0.0;33.570072;;0 / 0;28509;2022-09-09 16:21:52:924
13.0866;7.8425;-3.699;9.3319;3.0;-0.2948;-0.5466;-1.2365;-2.7257;1.4355;-1.7102;-1.1304;31.6;-56.74;14.53;-6.34;346.16;-17.81;-91.81;0.0;35.958256;-83.92442;829.17;NaN;0.0;33.570072;;0 / 0;29009;2022-09-09 16:21:53:424
7.7776;3.5524;-1.6475;9.1396;3.5199;0.4985;-0.5905;-0.9009;-0.9163;-0.637;-0.3266;0.1161;23.6;-49.97;27.62;-31.71;326.81;-21.03;-86.88;0.0;35.958256;-83.92442;829.17;NaN;0.0;33.570072;;0 / 0;29510;2022-09-09 16:21:53:925
7.5467;-0.2327;0.0021;9.6351;1.8238;0.0977;-2.5108;-0.6883;-1.2332;-2.8724;1.3703;1.3492;18.6;-49.84;46.44;-31.03;318.59;-14.16;-111.19;0.0;35.958256;-83.92442;829.17;NaN;0.0;33.570072;;0 / 0;30010;2022-09-09 16:21:54:425
9.6272;5.889;3.7059;8.6317;3.761;-2.7423;3.3768;1.06;0.3033;-1.6221;-0.6196;0.6328;12.2;-41.04;69.94;-29.51;331.7;-22.55;-107.62;0.0;35.958256;-83.92442;829.17;NaN;0.0;33.570072;;0 / 0;30510;2022-09-09 16:21:54:925
10.634;3.0927;-1.8305;9.0403;3.7677;-0.4984;-1.4251;-0.6198;-2.6244;-2.2421;0.2093;0.7785;10.9;-56.04;94.95;-0.73;357.14;-27.16;-94.62;0.0;35.958256;-83.92442;829.17;NaN;0.0;33.570072;;0 / 0;31010;2022-09-09 16:21:55:425
8.6468;1.121;-1.8042;9.2495;3.043;-1.165;-0.6384;0.1765;0.7193;0.0523;0.7652;-0.3249;10.7;-38.03;91.33;43.65;21.28;-18.08;-97.18;0.0;35.958256;-83.92442;829.17;NaN;0.0;33.570072;;0 / 0;31510;2022-09-09 16:21:55:925
8.5618;4.6789;-1.858;8.5058;4.4868;-1.9211;-1.6604;0.3989;1.1276;-0.6622;-0.5915;0.5818;13.5;-36.51;66.84;33.02;17.15;-28.88;-102.09;0.0;35.958256;-83.92442;829.17;NaN;0.0;33.570072;;0 / 0;32010;2022-09-09 16:21:56:425
11.1497;6.8728;5.8845;8.5652;2.9127;-3.7847;1.1972;1.9311;4.7867;-0.5976;-1.5987;0.244;12.9;-30.38;45.06;8.29;0.28;-20.57;-104.45;0.0;35.958256;-83.92442;829.17;NaN;0.0;33.570072;;0 / 0;32510;2022-09-09 16:21:56:925
12.2725;2.3492;-1.0513;9.5496;2.1793;-0.4763;-0.049;-3.1128;-1.0603;1.0146;-0.6552;-0.2462;12.9;-29.46;62.51;-6.71;352.91;-12.84;-92.86;0.0;35.958256;-83.92442;829.17;NaN;0.0;33.570072;;0 / 0;33009;2022-09-09 16:21:57:424
8.3115;4.7997;-1.7958;8.9246;4.0263;0.5577;-2.1986;-0.9915;-0.1501;-0.9974;-1.0227;-0.318;28.2;-23.47;91.88;-4.73;357.82;-24.24;-86.42;0.0;35.958256;-83.92442;829.17;NaN;0.0;33.570072;;0 / 0;33509;2022-09-09 16:21:57:924
8.4458;1.9304;0.093;9.3793;2.6496;1.0855;-0.0469;0.4778;-0.4828;0.0847;-0.7487;0.164;36.7;-17.98;111.15;13.11;7.34;-17.48;-85.73;0.0;35.958256;-83.92442;829.17;NaN;0.0;33.570072;;0 / 0;34009;2022-09-09 16:21:58:424
6.9458;3.7331;0.2967;8.9268;3.9816;-0.7934;-1.6418;0.7342;0.7654;-0.1184;-0.1171;0.0638;43.0;-26.85;111.56;34.26;14.7;-21.84;-97.27;0.0;35.958256;-83.92442;829.17;NaN;0.0;33.570072;;0 / 0;34509;2022-09-09 16:21:58:924
11.8573;6.0111;-1.305;8.7548;4.4081;-0.3055;0.5921;-0.4083;-1.7786;0.3021;0.3156;0.0335;38.7;-44.16;94.14;37.61;19.25;-26.71;-92.0;0.0;35.958256;-83.92442;829.17;NaN;0.0;33.570072;;0 / 0;35009;2022-09-09 16:21:59:424
9.2489;3.1741;-0.303;9.1226;3.589;-0.2598;-0.5318;-0.412;-0.1962;0.1975;-0.0354;-0.301;44.2;-47.83;79.95;31.33;17.79;-21.47;-91.63;0.0;35.958256;-83.92442;829.17;NaN;0.0;33.570072;;0 / 0;35509;2022-09-09 16:21:59:924
6.7244;2.6904;2.3028;8.7155;4.4822;0.3475;-2.6318;-1.0737;-0.2342;-0.4371;0.8482;0.3276;44.2;-45.79;69.75;28.41;22.23;-26.59;-83.11;0.0;35.958256;-83.92442;829.17;NaN;0.0;33.570072;;0 / 0;36009;2022-09-09 16:22:00:424
6.8489;1.0457;0.8163;8.69;4.2128;-1.7047;3.2157;5.4453;0.7595;-1.712;1.8804;1.5227;51.2;-36.86;64.18;24.17;12.3;-25.44;-101.1;0.0;35.958256;-83.92442;829.17;NaN;0.0;33.570072;;0 / 0;36509;2022-09-09 16:22:00:924
9.6763;2.8316;-1.1471;9.4495;2.4493;0.9369;-0.3069;0.3452;-1.0541;-0.4905;0.3528;0.383;51.2;-29.27;64.65;13.82;13.53;-14.46;-84.34;0.0;35.958256;-83.92442;829.17;NaN;0.0;33.570072;;0 / 0;37009;2022-09-09 16:22:01:424
8.004;3.2172;0.0763;8.8797;4.1598;0.1339;-0.6555;-0.4054;0.2722;-0.1187;0.396;0.027;51.2;-36.39;72.23;6.02;4.65;-25.1;-89.14;0.0;35.958256;-83.92442;829.17;NaN;0.0;33.570072;;0 / 0;37509;2022-09-09 16:22:01:924
7.9693;2.7897;1.453;9.2789;3.0814;0.7595;-2.3657;-1.1348;1.5257;0.1734;-0.3367;0.0069;51.2;-41.18;78.19;5.49;6.02;-19.29;-84.13;0.0;35.958256;-83.92442;829.17;NaN;0.0;33.570072;;0 / 0;38009;2022-09-09 16:22:02:424
13.6517;3.5177;0.0117;8.7095;4.4096;-0.9333;1.1338;-1.1875;1.8508;1.2713;-1.72;-1.0667;51.2;-43.61;84.66;4.71;5.5;-18.46;-84.64;0.0;35.958256;-83.92442;829.17;NaN;0.0;33.570072;;0 / 0;38509;2022-09-09 16:22:02:924
9.1938;4.5039;-1.4809;8.8471;4.2178;-0.331;0.9185;-0.2957;-0.6243;0.3741;0.362;-0.0997;42.2;-60.21;92.36;0.6;357.88;-25.5;-94.81;0.0;35.958256;-83.92442;829.17;NaN;0.0;33.570072;;0 / 0;39009;2022-09-09 16:22:03:424
8.1368;2.3719;-1.1124;9.2965;3.0837;-0.4855;-1.2604;-0.9294;0.929;-0.2104;0.0929;0.1129;42.2;-64.59;100.91;5.4;0.79;-18.33;-92.99;0.0;35.958256;-83.92442;829.17;NaN;0.0;33.570072;;0 / 0;39509;2022-09-09 16:22:03:924
6.8548;3.7199;0.9072;8.7189;4.2912;-1.318;-0.6747;-0.1615;1.5766;-0.1023;0.0182;-0.0914;36.7;-67.63;101.06;10.56;358.62;-23.41;-101.59;0.0;35.958256;-83.92442;829.17;NaN;0.0;33.570072;;0 / 0;40010;2022-09-09 16:22:04:425
8.7185;4.4118;-3.2611;9.0634;3.6068;-1.0082;0.0834;1.0826;-2.4394;-0.691;0.2143;0.432;31.9;-70.78;93.34;25.09;5.04;-24.05;-101.64;0.0;35.958256;-83.92442;829.17;NaN;0.0;33.570072;;0 / 0;40510;2022-09-09 16:22:04:925
8.6707;2.3551;-0.2946;9.3754;2.8212;-0.5605;-1.5581;-0.3039;0.2057;-0.5002;-0.258;0.4861;28.7;-67.12;78.13;35.06;18.12;-16.72;-93.42;0.0;35.958256;-83.92442;829.17;NaN;0.0;33.570072;;0 / 0;41009;2022-09-09 16:22:05:424
7.6854;3.4122;-1.2284;9.1285;3.1814;-1.6494;2.5425;1.7596;0.0782;-0.4519;-1.2173;-0.2725;25.8;-61.88;59.14;25.2;9.99;-18.93;-100.24;0.0;35.958256;-83.92442;829.17;NaN;0.0;33.570072;;0 / 0;41509;2022-09-09 16:22:05:924
10.0846;4.3292;-2.6599;9.0365;3.7331;-0.7591;-0.5677;-0.9135;-2.293;0.1515;-1.0987;-0.2308;13.1;-62.44;56.16;15.13;7.34;-22.38;-94.8;0.0;35.958256;-83.92442;829.17;NaN;0.0;33.570072;;0 / 0;42009;2022-09-09 16:22:06:424
8.4948;2.1194;-1.5685;9.3213;3.0093;-0.4781;0.3581;-0.9745;-1.1803;0.6721;-0.1495;-0.3825;8.4;-64.05;60.02;10.31;4.99;-17.87;-92.94;0.0;35.958256;-83.92442;829.17;NaN;0.0;33.570072;;0 / 0;42510;2022-09-09 16:22:06:925
7.6292;4.4668;-0.5988;8.9834;3.851;-0.7992;0.0131;-1.5267;0.8219;-0.8697;-0.2508;0.5882;11.9;-61.18;61.05;6.69;1.12;-23.12;-95.08;0.0;35.958256;-83.92442;829.17;NaN;0.0;33.570072;;0 / 0;43010;2022-09-09 16:22:07:425
10.2018;3.4624;-1.791;9.2443;2.9243;-1.4703;0.2845;0.0238;6.2431;0.1544;-1.9607;0.2504;20.1;-57.39;73.88;12.71;2.53;-17.35;-99.04;0.0;35.958256;-83.92442;829.17;NaN;0.0;33.570072;;0 / 0;43509;2022-09-09 16:22:07:924
11.54;4.1127;-0.8584;9.2802;3.1466;0.3832;-0.3656;-1.7238;-1.5689;1.0575;-1.8504;-0.8384;18.4;-57.28;72.71;28.37;19.21;-18.71;-87.64;0.0;35.958256;-83.92442;829.17;NaN;0.0;33.570072;;0 / 0;44010;2022-09-09 16:22:08:425
8.5618;3.6613;-2.9964;9.1856;3.3274;-0.8502;-0.2014;-0.0881;-0.5536;-1.9588;0.7045;0.44;18.4;-44.72;45.21;31.56;17.87;-19.74;-104.97;0.0;35.958256;-83.92442;829.17;NaN;0.0;33.570072;;0 / 0;44509;2022-09-09 16:22:08:924
8.1356;-1.9792;2.5316;9.5783;2.0471;0.4857;-0.7949;-0.6208;-1.3731;-0.026;-0.4729;-0.203;39.8;-41.34;21.36;25.76;44.23;-12.05;-87.1;0.0;35.958256;-83.92442;829.17;NaN;0.0;33.570072;;0 / 0;45011;2022-09-09 16:22:09:426
10.398;0.4854;1.1883;9.2302;2.4956;-2.1782;3.3627;0.7702;2.2282;0.389;-1.8293;-0.0273;59.7;-32.31;13.89;25.01;36.53;-14.74;-103.28;0.0;35.958256;-83.92442;829.17;NaN;0.0;33.570072;;0 / 0;45510;2022-09-09 16:22:09:925
9.0826;2.4775;0.7756;8.7931;3.8512;2.0048;0.6138;-0.4705;-0.7615;-1.3162;0.8162;0.1636;50.3;-28.46;21.71;29.14;45.7;-28.95;-83.62;0.0;35.958256;-83.92442;829.17;NaN;0.0;33.570072;;0 / 0;46010;2022-09-09 16:22:10:425
7.5275;3.6278;0.7349;8.8748;3.682;1.9623;-0.6949;0.2315;-2.3389;-0.5806;-0.7695;-0.1977;72.4;-34.57;19.97;18.28;40.04;-22.05;-77.53;0.0;35.958256;-83.92442;829.17;NaN;0.0;33.570072;;0 / 0;46509;2022-09-09 16:22:10:924
7.2858;4.4166;1.3992;8.3468;5.14;0.2867;-1.176;-0.9828;0.6378;0.6122;-0.512;-0.4067;72.4;-31.42;19.59;10.2;18.48;-31.61;-88.03;2.0;35.958256;-83.92442;829.17;NaN;0.0;33.570072;;0 / 0;47009;2022-09-09 16:22:11:424
9.1807;4.3795;-0.1439;8.761;4.4018;0.1971;1.883;3.9121;0.7136;-0.1304;0.8172;0.5252;72.4;-31.89;24.15;15.43;23.79;-26.67;-88.71;2.0;35.958256;-83.92442;829.17;NaN;0.0;33.570072;;0 / 0;47509;2022-09-09 16:22:11:924
10.6508;4.1318;2.8678;8.998;3.8989;-0.0643;3.3571;0.1867;1.5916;-0.4387;-1.1847;-0.0109;61.6;-37.05;24.3;13.56;24.03;-24.14;-86.34;2.0;35.958256;-83.92442;829.17;NaN;0.0;33.570072;;0 / 0;48010;2022-09-09 16:22:12:425
9.0311;5.33;-0.9987;8.5396;4.8203;0.1003;-0.0212;-0.2161;-0.1122;-0.0824;0.2183;0.3629;61.6;-32.91;24.24;8.96;13.44;-30.17;-90.13;2.0;35.958256;-83.92442;829.17;NaN;0.0;33.570072;;0 / 0;48510;2022-09-09 16:22:12:925
7.7429;2.7335;0.1086;8.9427;3.8763;1.0828;-0.9998;-0.8684;-0.943;-0.5153;0.5464;0.1284;54.4;-32.21;25.73;2.33;4.61;-24.24;-88.26;2.0;35.958256;-83.92442;829.17;NaN;0.0;33.570072;;0 / 0;49009;2022-09-09 16:22:13:424
6.1149;4.3316;-0.0182;8.0458;5.5582;0.7358;-1.1685;-0.9901;1.6349;0.2718;-0.1215;-0.1678;49.0;-32.25;29.36;-6.21;355.86;-34.53;-84.77;2.0;35.958256;-83.92442;829.17;NaN;0.0;33.570072;;0 / 0;49509;2022-09-09 16:22:13:924
11.6142;10.2114;0.1292;8.5196;4.7716;-0.9054;4.4372;3.5983;3.6346;2.167;-1.5109;-0.1284;42.8;-32.27;30.88;-8.25;348.06;-31.0;-91.93;2.0;35.958256;-83.92442;829.17;NaN;0.0;33.570072;;0 / 0;50009;2022-09-09 16:22:14:424
11.1317;5.3839;6.6565;8.4786;4.8291;0.9818;2.6042;-0.8756;-1.2961;0.8351;-1.906;-0.885;42.8;-38.66;35.16;-13.54;349.4;-29.5;-83.39;2.0;35.958256;-83.92442;829.17;NaN;0.0;33.570072;;0 / 0;50510;2022-09-09 16:22:14:925
6.9003;6.297;-0.8536;8.3031;5.2078;0.3273;-1.4025;1.2119;-0.895;0.8663;-0.0741;-0.1891;42.8;-44.98;39.84;-16.56;345.33;-32.08;-87.74;2.0;35.958256;-83.92442;829.17;NaN;0.0;33.570072;;0 / 0;51009;2022-09-09 16:22:15:424
6.9757;2.8256;-0.7543;9.0636;3.7244;0.3872;-2.2336;-1.3767;-0.732;-0.0939;-0.1616;0.1279;38.9;-56.96;47.38;-15.02;349.13;-22.32;-87.55;2.0;35.958256;-83.92442;829.17;NaN;0.0;33.570072;;0 / 0;51509;2022-09-09 16:22:15:924
6.2145;5.2295;-0.539;8.6067;4.5825;-1.0465;-0.0381;0.1445;0.6198;-0.0276;-0.1969;-0.6816;38.9;-64.99;54.77;-7.2;348.58;-24.78;-97.53;2.0;35.958256;-83.92442;829.17;NaN;0.0;33.570072;;0 / 0;52009;2022-09-09 16:22:16:424
7.1133;2.0572;-4.0211;8.7515;4.2086;-1.367;-0.2676;-0.584;-1.7787;-0.9696;0.3646;0.86;46.2;-69.84;45.94;11.18;0.05;-25.41;-98.88;2.0;35.958256;-83.92442;829.17;NaN;0.0;33.570072;;0 / 0;52510;2022-09-09 16:22:16:925
9.985;1.7399;-3.1101;9.4835;2.4952;-0.0919;0.793;-0.9312;-1.7182;-0.2617;0.078;-0.1142;104.6;-69.24;31.35;13.74;15.65;-14.74;-90.56;2.0;35.958256;-83.92442;829.17;NaN;0.0;33.570072;;0 / 0;53010;2022-09-09 16:22:17:425
8.4924;5.0773;-3.2381;8.8146;3.9876;-1.6038;-0.2798;1.0258;-0.4097;-1.1455;0.3141;0.1814;535.6;-66.06;17.94;1.43;345.84;-23.99;-100.31;2.0;35.958256;-83.92442;829.17;NaN;0.0;33.570072;;0 / 0;53510;2022-09-09 16:22:17:925
10.8972;3.7307;0.3039;9.1872;2.9638;-1.7269;2.3572;1.1438;-1.9516;-0.6962;-1.6533;0.5019;478.9;-65.59;22.26;-5.06;332.55;-18.7;-104.4;2.0;35.958256;-83.92442;829.17;NaN;0.0;33.570072;;0 / 0;54010;2022-09-09 16:22:18:425
11.1389;2.712;-2.2017;9.4773;2.4703;0.4981;0.3586;-2.6606;0.2015;1.5888;-0.6184;-1.2802;347.9;-62.31;30.77;-5.57;356.57;-14.59;-86.99;2.0;35.958256;-83.92442;829.17;NaN;0.0;33.570072;;0 / 0;54509;2022-09-09 16:22:18:924
7.7931;2.5923;-1.4976;9.266;2.946;-1.2776;-0.235;0.8782;0.2405;-0.8929;0.2686;0.2622;290.3;-50.68;27.6;-10.31;337.86;-17.48;-97.85;2.0;35.958256;-83.92442;829.17;NaN;0.0;33.570072;;0 / 0;55010;2022-09-09 16:22:19:425
6.6954;1.3738;0.0846;9.5935;2.0252;0.1825;-1.6043;0.1639;-3.0728;-0.8882;-1.1486;1.0399;228.9;-52.35;44.18;-18.37;342.47;-11.92;-88.91;2.0;35.958256;-83.92442;829.17;NaN;0.0;33.570072;;0 / 0;55510;2022-09-09 16:22:19:925
7.1719;1.0253;2.9351;9.077;3.7107;-0.0925;0.0144;1.9939;-0.9539;-0.129;0.9277;-0.7495;65.1;-55.39;62.03;-19.72;347.24;-11.41;-86.17;2.0;35.958256;-83.92442;829.17;NaN;0.0;33.570072;;0 / 0;56010;2022-09-09 16:22:20:425
16.0313;7.9478;1.9546;8.4213;4.8937;-1.1423;0.8452;1.5362;-1.1838;0.2166;-1.6614;0.2956;97.0;-70.78;47.91;-11.04;344.94;-29.93;-97.72;2.0;35.958256;-83.92442;829.17;NaN;0.0;33.570072;;0 / 0;56510;2022-09-09 16:22:20:925
10.252;3.1071;-0.6826;9.152;3.4479;0.724;-0.2077;-0.7507;-0.5402;-0.3999;0.1355;-0.0967;83.0;-79.26;40.86;1.5;5.14;-18.9;-87.25;2.0;35.958256;-83.92442;829.17;NaN;0.0;33.570072;;0 / 0;57009;2022-09-09 16:22:21:424
6.0359;4.9193;-0.5462;8.3051;5.2113;-0.1943;-1.0115;-0.2839;1.0653;0.576;0.0844;-0.231;73.9;-72.45;23.33;-0.84;357.34;-32.1;-91.34;2.0;35.958256;-83.92442;829.17;NaN;0.0;33.570072;;0 / 0;57509;2022-09-09 16:22:21:924
7.6328;-0.015;2.3892;9.0792;3.6344;0.7282;-0.2104;-0.6086;1.3542;-1.5653;0.9716;1.4818;107.9;-66.64;17.18;2.83;5.38;-30.88;-88.62;2.0;35.958256;-83.92442;829.17;NaN;0.0;33.570072;;0 / 0;58009;2022-09-09 16:22:22:424
12.8231;3.7714;1.1441;9.0776;3.703;-0.2339;1.0109;1.0127;-1.0002;-0.2216;-1.2385;-0.1501;85.6;-70.89;25.29;-5.1;359.48;-21.38;-86.33;2.0;35.958256;-83.92442;829.17;NaN;0.0;33.570072;;0 / 0;58510;2022-09-09 16:22:22:925
9.0299;6.5845;-1.1841;8.5648;4.7661;0.3147;0.131;-0.0858;-0.2491;0.7318;-0.301;-0.4757;85.6;-67.46;27.51;-4.2;358.46;-29.08;-87.9;2.0;35.958256;-83.92442;829.17;NaN;0.0;33.570072;;0 / 0;59009;2022-09-09 16:22:23:424
7.9322;2.3169;0.9586;9.1358;3.3979;1.0779;-1.3241;-1.094;0.5937;-0.3936;0.4746;0.1685;97.6;-68.44;35.23;-9.34;359.02;-20.27;-83.27;2.0;35.958256;-83.92442;829.17;NaN;0.0;33.570072;;0 / 0;59509;2022-09-09 16:22:23:924
6.3485;3.7558;0.9419;8.4987;4.8117;0.8889;-0.3439;-0.177;1.2067;-0.5411;0.4939;-0.4261;87.9;-71.57;45.39;-15.13;349.9;-27.84;-88.5;2.0;35.958256;-83.92442;829.17;NaN;0.0;33.570072;;0 / 0;60009;2022-09-09 16:22:24:424
11.3294;7.1495;2.473;8.2517;5.2855;0.3777;0.5171;0.2391;-0.7093;0.6338;-0.3626;-0.0538;87.9;-76.84;50.31;-17.85;353.03;-31.54;-84.27;2.0;35.958256;-83.92442;829.17;NaN;0.0;33.570072;;0 / 0;60510;2022-09-09 16:22:24:925
8.9303;4.2838;0.1146;8.8579;4.1022;0.9384;-1.3512;-0.5862;-0.2285;-0.3155;0.2408;0.3195;102.4;-81.19;59.89;-19.67;352.73;-24.73;-83.95;2.0;35.958256;-83.92442;829.17;NaN;0.0;33.570072;;0 / 0;61009;2022-09-09 16:22:25:424
6.9099;3.9556;0.1663;8.6377;4.6353;-0.2727;-1.2679;-1.4202;2.7639;-0.169;-0.1058;0.0121;102.4;-87.56;69.68;-7.27;354.59;-28.21;-91.81;2.0;35.958256;-83.92442;829.17;NaN;0.0;33.570072;;0 / 0;61509;2022-09-09 16:22:25:924
10.5643;6.6981;-1.098;8.378;5.0733;-0.4905;0.0552;0.4081;-1.792;-0.0127;0.2501;-0.1975;70.1;-93.56;68.16;9.15;3.58;-30.06;-91.44;2.0;35.958256;-83.92442;829.17;NaN;0.0;33.570072;;0 / 0;62010;2022-09-09 16:22:26:425
8.7879;3.2734;-1.1734;9.0647;3.7295;-0.3046;-0.7831;0.4021;-0.4676;-0.2827;0.193;0.2866;70.1;-90.37;52.05;18.51;9.0;-24.03;-93.55;2.0;35.958256;-83.92442;829.17;NaN;0.0;33.570072;;0 / 0;62510;2022-09-09 16:22:26:925
8.211;1.1545;2.5352;9.1596;3.4433;-0.6451;3.8894;1.3352;6.1196;-0.0691;-0.8417;0.1574;70.1;-84.28;42.26;-5.27;350.98;-20.56;-94.03;2.0;35.958256;-83.92442;829.17;NaN;0.0;33.570072;;0 / 1;63009;2022-09-09 16:22:27:424
9.9694;4.643;-3.0634;9.2179;3.2817;-0.6561;-1.5331;-0.7501;-1.5415;-0.3768;-0.4937;0.0467;34.0;-83.85;55.95;-3.71;352.97;-19.55;-94.07;2.0;35.958256;-83.92442;829.17;NaN;0.0;33.570072;;0 / 1;63510;2022-09-09 16:22:27:925
8.6444;3.4433;-2.3919;9.2235;2.9373;-1.5716;3.5833;-0.9845;5.2936;-0.0173;-0.2632;0.2954;23.2;-81.06;57.83;-0.3;350.26;-17.43;-99.67;2.0;35.958256;-83.92442;829.17;NaN;0.0;33.570072;;0 / 1;64010;2022-09-09 16:22:28:425
8.6444;3.4433;-2.3919;9.2235;2.9373;-1.5716;3.5833;-0.9845;5.2936;-0.0173;-0.2632;0.2954;13.9;-81.06;57.83;-0.3;350.26;-17.43;-99.67;2.0;35.958256;-83.92442;829.17;NaN;0.0;33.570072;;0 / 1;64509;2022-09-09 16:22:28:924
8.6444;3.4433;-2.3919;9.2235;2.9373;-1.5716;3.5833;-0.9845;5.2936;-0.0173;-0.2632;0.2954;13.1;-81.06;57.83;-0.3;350.26;-17.43;-99.67;2.0;35.958256;-83.92442;829.17;NaN;0.0;33.570072;;0 / 1;65010;2022-09-09 16:22:29:425
9.1723;-0.2255;0.5037;9.2235;2.9373;-1.5716;3.5833;-0.9845;5.2936;-0.0173;-0.2632;0.2954;15.2;-81.06;57.83;-0.3;350.26;-17.43;-99.67;2.0;35.958256;-83.92442;829.17;NaN;0.0;33.570072;;0 / 1;65510;2022-09-09 16:22:29:925
9.1723;-0.2255;0.5037;9.2235;2.9373;-1.5716;3.5833;-0.9845;5.2936;-0.0173;-0.2632;0.2954;18.7;-81.06;57.83;-0.3;350.26;-17.43;-99.67;2.0;35.958256;-83.92442;829.17;NaN;0.0;33.570072;;0 / 1;66009;2022-09-09 16:22:30:424
8.1715;2.645;0.8342;9.2235;2.9373;-1.5716;3.5833;-0.9845;5.2936;-0.0173;-0.2632;0.2954;18.7;-81.06;57.83;-0.3;350.26;-17.43;-99.67;2.0;35.958256;-83.92442;829.17;NaN;0.0;33.570072;;0 / 1;66509;2022-09-09 16:22:30:924
8.1715;2.645;0.8342;9.2235;2.9373;-1.5716;3.5833;-0.9845;5.2936;-0.0173;-0.2632;0.2954;18.7;-81.06;57.83;-0.3;350.26;-17.43;-99.67;2.0;35.958256;-83.92442;829.17;NaN;0.0;33.570072;;0 / 1;67012;2022-09-09 16:22:31:427
9.3087;2.6474;-0.4875;9.2235;2.9373;-1.5716;3.5833;-0.9845;5.2936;-0.0173;-0.2632;0.2954;32.4;-81.06;57.83;-0.3;350.26;-17.43;-99.67;2.0;35.958256;-83.92442;829.17;NaN;0.0;33.570072;;0 / 1;67509;2022-09-09 16:22:31:924
9.3087;2.6474;-0.4875;9.2235;2.9373;-1.5716;3.5833;-0.9845;5.2936;-0.0173;-0.2632;0.2954;35.3;-81.06;57.83;-0.3;350.26;-17.43;-99.67;2.0;35.958256;-83.92442;829.17;NaN;0.0;33.570072;;0 / 1;68012;2022-09-09 16:22:32:427
9.3087;2.6474;-0.4875;9.2235;2.9373;-1.5716;3.5833;-0.9845;5.2936;-0.0173;-0.2632;0.2954;35.3;-81.06;57.83;-0.3;350.26;-17.43;-99.67;2.0;35.958256;-83.92442;829.17;NaN;0.0;33.570072;;0 / 1;68509;2022-09-09 16:22:32:924
10.0822;2.8412;-1.4258;9.2235;2.9373;-1.5716;3.5833;-0.9845;5.2936;-0.0173;-0.2632;0.2954;47.5;-81.06;57.83;-0.3;350.26;-17.43;-99.67;2.0;35.958256;-83.92442;829.17;NaN;0.0;33.570072;;0 / 1;69011;2022-09-09 16:22:33:426
10.0822;2.8412;-1.4258;9.2235;2.9373;-1.5716;3.5833;-0.9845;5.2936;-0.0173;-0.2632;0.2954;52.9;-81.06;57.83;-0.3;350.26;-17.43;-99.67;2.0;35.958256;-83.92442;829.17;NaN;0.0;33.570072;;0 / 1;69509;2022-09-09 16:22:33:924
8.8944;3.1645;0.0464;9.2235;2.9373;-1.5716;3.5833;-0.9845;5.2936;-0.0173;-0.2632;0.2954;52.9;-81.06;57.83;-0.3;350.26;-17.43;-99.67;2.0;35.958256;-83.92442;829.17;NaN;0.0;33.570072;;0 / 1;70010;2022-09-09 16:22:34:425
8.8944;3.1645;0.0464;9.2235;2.9373;-1.5716;3.5833;-0.9845;5.2936;-0.0173;-0.2632;0.2954;60.2;-81.06;57.83;-0.3;350.26;-17.43;-99.67;2.0;35.958256;-83.92442;829.17;NaN;0.0;33.570072;;0 / 1;70509;2022-09-09 16:22:34:924
8.2768;4.771;-0.7388;9.2235;2.9373;-1.5716;3.5833;-0.9845;5.2936;-0.0173;-0.2632;0.2954;60.2;-81.06;57.83;-0.3;350.26;-17.43;-99.67;2.0;35.958256;-83.92442;829.17;NaN;0.0;33.570072;;0 / 1;71009;2022-09-09 16:22:35:424
8.2768;4.771;-0.7388;9.2235;2.9373;-1.5716;3.5833;-0.9845;5.2936;-0.0173;-0.2632;0.2954;60.2;-81.06;57.83;-0.3;350.26;-17.43;-99.67;2.0;35.958256;-83.92442;829.17;NaN;0.0;33.570072;;0 / 1;71509;2022-09-09 16:22:35:924
15.0592;4.5936;-1.1578;9.2235;2.9373;-1.5716;3.5833;-0.9845;5.2936;-0.0173;-0.2632;0.2954;60.2;-81.06;57.83;-0.3;350.26;-17.43;-99.67;2.0;35.958256;-83.92442;829.17;NaN;0.0;33.570072;;0 / 1;72009;2022-09-09 16:22:36:424
15.0592;4.5936;-1.1578;9.2235;2.9373;-1.5716;3.5833;-0.9845;5.2936;-0.0173;-0.2632;0.2954;60.2;-81.06;57.83;-0.3;350.26;-17.43;-99.67;2.0;35.958256;-83.92442;829.17;NaN;0.0;33.570072;;0 / 1;72510;2022-09-09 16:22:36:925
8.3079;2.5516;0.6978;9.2235;2.9373;-1.5716;3.5833;-0.9845;5.2936;-0.0173;-0.2632;0.2954;53.0;-81.06;57.83;-0.3;350.26;-17.43;-99.67;2.0;35.958256;-83.92442;829.17;NaN;0.0;33.570072;;0 / 1;73010;2022-09-09 16:22:37:425
8.3079;2.5516;0.6978;9.2235;2.9373;-1.5716;3.5833;-0.9845;5.2936;-0.0173;-0.2632;0.2954;53.0;-81.06;57.83;-0.3;350.26;-17.43;-99.67;2.0;35.958256;-83.92442;829.17;NaN;0.0;33.570072;;0 / 1;73510;2022-09-09 16:22:37:925
8.9713;6.5139;-1.943;9.2235;2.9373;-1.5716;3.5833;-0.9845;5.2936;-0.0173;-0.2632;0.2954;46.8;-81.06;57.83;-0.3;350.26;-17.43;-99.67;2.0;35.958256;-83.92442;829.17;NaN;0.0;33.570072;;0 / 1;74010;2022-09-09 16:22:38:425
8.9713;6.5139;-1.943;9.2235;2.9373;-1.5716;3.5833;-0.9845;5.2936;-0.0173;-0.2632;0.2954;46.8;-81.06;57.83;-0.3;350.26;-17.43;-99.67;2.0;35.958256;-83.92442;829.17;NaN;0.0;33.570072;;0 / 1;74510;2022-09-09 16:22:38:925
7.4629;5.8531;1.1429;9.2235;2.9373;-1.5716;3.5833;-0.9845;5.2936;-0.0173;-0.2632;0.2954;46.8;-81.06;57.83;-0.3;350.26;-17.43;-99.67;2.0;35.958256;-83.92442;829.17;NaN;0.0;33.570072;;0 / 1;75010;2022-09-09 16:22:39:425
7.4629;5.8531;1.1429;9.2235;2.9373;-1.5716;3.5833;-0.9845;5.2936;-0.0173;-0.2632;0.2954;96.7;-81.06;57.83;-0.3;350.26;-17.43;-99.67;2.0;35.958256;-83.92442;829.17;NaN;0.0;33.570072;;0 / 1;75510;2022-09-09 16:22:39:925
9.979;6.1187;-1.0621;9.2235;2.9373;-1.5716;3.5833;-0.9845;5.2936;-0.0173;-0.2632;0.2954;229.6;-81.06;57.83;-0.3;350.26;-17.43;-99.67;2.0;35.958256;-83.92442;829.17;NaN;0.0;33.570072;;0 / 1;76010;2022-09-09 16:22:40:425
9.979;6.1187;-1.0621;9.2235;2.9373;-1.5716;3.5833;-0.9845;5.2936;-0.0173;-0.2632;0.2954;479.1;-81.06;57.83;-0.3;350.26;-17.43;-99.67;2.0;35.958256;-83.92442;829.17;NaN;0.0;33.570072;;0 / 1;76510;2022-09-09 16:22:40:925
7.1492;4.2778;-0.0135;9.2235;2.9373;-1.5716;3.5833;-0.9845;5.2936;-0.0173;-0.2632;0.2954;646.9;-81.06;57.83;-0.3;350.26;-17.43;-99.67;2.0;35.958256;-83.92442;829.17;NaN;0.0;33.570072;;0 / 1;77010;2022-09-09 16:22:41:425
7.1492;4.2778;-0.0135;9.2235;2.9373;-1.5716;3.5833;-0.9845;5.2936;-0.0173;-0.2632;0.2954;693.0;-81.06;57.83;-0.3;350.26;-17.43;-99.67;2.0;35.958256;-83.92442;829.17;NaN;0.0;33.570072;;0 / 1;77509;2022-09-09 16:22:41:924
9.1316;2.324;-3.1448;9.2235;2.9373;-1.5716;3.5833;-0.9845;5.2936;-0.0173;-0.2632;0.2954;693.0;-81.06;57.83;-0.3;350.26;-17.43;-99.67;2.0;35.958256;-83.92442;829.17;NaN;0.0;33.570072;;0 / 1;78009;2022-09-09 16:22:42:424
9.1316;2.324;-3.1448;9.2235;2.9373;-1.5716;3.5833;-0.9845;5.2936;-0.0173;-0.2632;0.2954;409.2;-81.06;57.83;-0.3;350.26;-17.43;-99.67;2.0;35.958256;-83.92442;829.17;NaN;0.0;33.570072;;0 / 1;78510;2022-09-09 16:22:42:925
8.1045;3.6649;1.4614;9.2235;2.9373;-1.5716;3.5833;-0.9845;5.2936;-0.0173;-0.2632;0.2954;250.1;-81.06;57.83;-0.3;350.26;-17.43;-99.67;2.0;35.958256;-83.92442;829.17;NaN;0.0;33.570072;;0 / 1;79012;2022-09-09 16:22:43:427
8.1045;3.6649;1.4614;9.2235;2.9373;-1.5716;3.5833;-0.9845;5.2936;-0.0173;-0.2632;0.2954;149.2;-81.06;57.83;-0.3;350.26;-17.43;-99.67;2.0;35.958256;-83.92442;829.17;NaN;0.0;33.570072;;0 / 1;79510;2022-09-09 16:22:43:925
11.7676;7.0047;-1.4904;9.2235;2.9373;-1.5716;3.5833;-0.9845;5.2936;-0.0173;-0.2632;0.2954;112.8;-81.06;57.83;-0.3;350.26;-17.43;-99.67;2.0;35.958256;-83.92442;829.17;NaN;0.0;33.570072;;0 / 1;80010;2022-09-09 16:22:44:425
11.7676;7.0047;-1.4904;9.2235;2.9373;-1.5716;3.5833;-0.9845;5.2936;-0.0173;-0.2632;0.2954;93.4;-81.06;57.83;-0.3;350.26;-17.43;-99.67;2.0;35.958256;-83.92442;829.17;NaN;0.0;33.570072;;0 / 1;80510;2022-09-09 16:22:44:925
11.7676;7.0047;-1.4904;9.2235;2.9373;-1.5716;3.5833;-0.9845;5.2936;-0.0173;-0.2632;0.2954;116.8;-81.06;57.83;-0.3;350.26;-17.43;-99.67;2.0;35.958256;-83.92442;829.17;NaN;0.0;33.570072;;0 / 1;81009;2022-09-09 16:22:45:424
8.7724;2.2164;0.3338;9.2235;2.9373;-1.5716;3.5833;-0.9845;5.2936;-0.0173;-0.2632;0.2954;116.8;-81.06;57.83;-0.3;350.26;-17.43;-99.67;2.0;35.958256;-83.92442;829.17;NaN;0.0;33.570072;;0 / 1;81512;2022-09-09 16:22:45:927
8.7724;2.2164;0.3338;9.2235;2.9373;-1.5716;3.5833;-0.9845;5.2936;-0.0173;-0.2632;0.2954;116.8;-81.06;57.83;-0.3;350.26;-17.43;-99.67;2.0;35.958256;-83.92442;829.17;NaN;0.0;33.570072;;0 / 1;82009;2022-09-09 16:22:46:424
5.7918;2.8579;0.4558;9.2235;2.9373;-1.5716;3.5833;-0.9845;5.2936;-0.0173;-0.2632;0.2954;104.3;-81.06;57.83;-0.3;350.26;-17.43;-99.67;2.0;35.958256;-83.92442;829.17;NaN;0.0;33.570072;;0 / 1;82509;2022-09-09 16:22:46:924
8.3581;5.1371;-0.6981;9.2235;2.9373;-1.5716;3.5833;-0.9845;5.2936;-0.0173;-0.2632;0.2954;93.9;-81.06;57.83;-0.3;350.26;-17.43;-99.67;2.0;35.958256;-83.92442;829.17;NaN;0.0;33.570072;;0 / 1;83009;2022-09-09 16:22:47:424
8.3581;5.1371;-0.6981;9.2235;2.9373;-1.5716;3.5833;-0.9845;5.2936;-0.0173;-0.2632;0.2954;112.3;-81.06;57.83;-0.3;350.26;-17.43;-99.67;2.0;35.958256;-83.92442;829.17;NaN;0.0;33.570072;;0 / 1;83509;2022-09-09 16:22:47:924
8.3581;5.1371;-0.6981;9.2235;2.9373;-1.5716;3.5833;-0.9845;5.2936;-0.0173;-0.2632;0.2954;112.3;-81.06;57.83;-0.3;350.26;-17.43;-99.67;2.0;35.958256;-83.92442;829.17;NaN;0.0;33.570072;;0 / 1;84010;2022-09-09 16:22:48:425
8.3581;5.1371;-0.6981;9.2235;2.9373;-1.5716;3.5833;-0.9845;5.2936;-0.0173;-0.2632;0.2954;112.3;-81.06;57.83;-0.3;350.26;-17.43;-99.67;2.0;35.958256;-83.92442;829.17;NaN;0.0;33.570072;;0 / 1;84510;2022-09-09 16:22:48:925
5.4326;6.9616;-1.1148;9.2235;2.9373;-1.5716;3.5833;-0.9845;5.2936;-0.0173;-0.2632;0.2954;101.9;-81.06;57.83;-0.3;350.26;-17.43;-99.67;2.0;35.958256;-83.92442;829.17;NaN;0.0;33.570072;;0 / 1;85009;2022-09-09 16:22:49:424
11.2648;4.7327;-0.6909;9.2235;2.9373;-1.5716;3.5833;-0.9845;5.2936;-0.0173;-0.2632;0.2954;90.2;-81.06;57.83;-0.3;350.26;-17.43;-99.67;2.0;35.958256;-83.92442;829.17;NaN;0.0;33.570072;;0 / 1;85509;2022-09-09 16:22:49:924
11.2648;4.7327;-0.6909;9.2235;2.9373;-1.5716;3.5833;-0.9845;5.2936;-0.0173;-0.2632;0.2954;77.3;-81.06;57.83;-0.3;350.26;-17.43;-99.67;2.0;35.958256;-83.92442;829.17;NaN;0.0;33.570072;;0 / 1;86009;2022-09-09 16:22:50:424
7.5562;1.3881;1.9379;9.2235;2.9373;-1.5716;3.5833;-0.9845;5.2936;-0.0173;-0.2632;0.2954;58.5;-81.06;57.83;-0.3;350.26;-17.43;-99.67;2.0;35.958256;-83.92442;829.17;NaN;0.0;33.570072;;0 / 1;86509;2022-09-09 16:22:50:924
7.5562;1.3881;1.9379;9.2235;2.9373;-1.5716;3.5833;-0.9845;5.2936;-0.0173;-0.2632;0.2954;58.5;-81.06;57.83;-0.3;350.26;-17.43;-99.67;2.0;35.958256;-83.92442;829.17;NaN;0.0;33.570072;;0 / 1;87011;2022-09-09 16:22:51:426
8.3557;4.139;-1.8281;9.2235;2.9373;-1.5716;3.5833;-0.9845;5.2936;-0.0173;-0.2632;0.2954;57.4;-81.06;57.83;-0.3;350.26;-17.43;-99.67;2.0;35.958256;-83.92442;829.17;NaN;0.0;33.570072;;0 / 1;87509;2022-09-09 16:22:51:924
8.3557;4.139;-1.8281;9.2235;2.9373;-1.5716;3.5833;-0.9845;5.2936;-0.0173;-0.2632;0.2954;29.8;-81.06;57.83;-0.3;350.26;-17.43;-99.67;2.0;35.958256;-83.92442;829.17;NaN;0.0;33.570072;;0 / 1;88009;2022-09-09 16:22:52:424
8.6839;5.5729;1.8446;9.2235;2.9373;-1.5716;3.5833;-0.9845;5.2936;-0.0173;-0.2632;0.2954;19.6;-81.06;57.83;-0.3;350.26;-17.43;-99.67;2.0;35.958256;-83.92442;829.17;NaN;0.0;33.570072;;0 / 1;88509;2022-09-09 16:22:52:924
8.6839;5.5729;1.8446;9.2235;2.9373;-1.5716;3.5833;-0.9845;5.2936;-0.0173;-0.2632;0.2954;19.6;-81.06;57.83;-0.3;350.26;-17.43;-99.67;2.0;35.958256;-83.92442;829.17;NaN;0.0;33.570072;;0 / 1;89009;2022-09-09 16:22:53:424
8.6839;5.5729;1.8446;9.2235;2.9373;-1.5716;3.5833;-0.9845;5.2936;-0.0173;-0.2632;0.2954;22.3;-81.06;57.83;-0.3;350.26;-17.43;-99.67;2.0;35.958256;-83.92442;829.17;NaN;0.0;33.570072;;0 / 1;89510;2022-09-09 16:22:53:925
9.7158;1.704;-0.868;9.2235;2.9373;-1.5716;3.5833;-0.9845;5.2936;-0.0173;-0.2632;0.2954;25.3;-81.06;57.83;-0.3;350.26;-17.43;-99.67;2.0;35.958256;-83.92442;829.17;NaN;0.0;33.570072;;0 / 1;90010;2022-09-09 16:22:54:425
9.7158;1.704;-0.868;9.2235;2.9373;-1.5716;3.5833;-0.9845;5.2936;-0.0173;-0.2632;0.2954;25.3;-81.06;57.83;-0.3;350.26;-17.43;-99.67;2.0;35.958256;-83.92442;829.17;NaN;0.0;33.570072;;0 / 1;90509;2022-09-09 16:22:54:924
9.3183;3.3775;0.53;9.2235;2.9373;-1.5716;3.5833;-0.9845;5.2936;-0.0173;-0.2632;0.2954;25.3;-81.06;57.83;-0.3;350.26;-17.43;-99.67;2.0;35.958256;-83.92442;829.17;NaN;0.0;33.570072;;0 / 1;91010;2022-09-09 16:22:55:425
9.3183;3.3775;0.53;9.2235;2.9373;-1.5716;3.5833;-0.9845;5.2936;-0.0173;-0.2632;0.2954;31.5;-81.06;57.83;-0.3;350.26;-17.43;-99.67;2.0;35.958256;-83.92442;829.17;NaN;0.0;33.570072;;0 / 1;91511;2022-09-09 16:22:55:926
7.4725;3.7582;-2.5606;9.2235;2.9373;-1.5716;3.5833;-0.9845;5.2936;-0.0173;-0.2632;0.2954;31.5;-81.06;57.83;-0.3;350.26;-17.43;-99.67;2.0;35.958256;-83.92442;829.17;NaN;0.0;33.570072;;0 / 1;92010;2022-09-09 16:22:56:425
7.4725;3.7582;-2.5606;9.2235;2.9373;-1.5716;3.5833;-0.9845;5.2936;-0.0173;-0.2632;0.2954;35.8;-81.06;57.83;-0.3;350.26;-17.43;-99.67;2.0;35.958256;-83.92442;829.17;NaN;0.0;33.570072;;0 / 1;92509;2022-09-09 16:22:56:924
8.7963;3.4804;0.9012;9.2235;2.9373;-1.5716;3.5833;-0.9845;5.2936;-0.0173;-0.2632;0.2954;42.0;-81.06;57.83;-0.3;350.26;-17.43;-99.67;2.0;35.958256;-83.92442;829.17;NaN;0.0;33.570072;;0 / 1;93011;2022-09-09 16:22:57:426
8.7963;3.4804;0.9012;9.2235;2.9373;-1.5716;3.5833;-0.9845;5.2936;-0.0173;-0.2632;0.2954;49.1;-81.06;57.83;-0.3;350.26;-17.43;-99.67;2.0;35.958256;-83.92442;829.17;NaN;0.0;33.570072;;0 / 1;93510;2022-09-09 16:22:57:925
10.4004;2.779;-0.5665;9.2235;2.9373;-1.5716;3.5833;-0.9845;5.2936;-0.0173;-0.2632;0.2954;49.1;-81.06;57.83;-0.3;350.26;-17.43;-99.67;2.0;35.958256;-83.92442;829.17;NaN;0.0;33.570072;;0 / 1;94012;2022-09-09 16:22:58:427
10.4004;2.779;-0.5665;9.2235;2.9373;-1.5716;3.5833;-0.9845;5.2936;-0.0173;-0.2632;0.2954;49.2;-81.06;57.83;-0.3;350.26;-17.43;-99.67;2.0;35.958256;-83.92442;829.17;NaN;0.0;33.570072;;0 / 1;94510;2022-09-09 16:22:58:925
8.3342;3.1406;0.8701;9.2235;2.9373;-1.5716;3.5833;-0.9845;5.2936;-0.0173;-0.2632;0.2954;49.2;-81.06;57.83;-0.3;350.26;-17.43;-99.67;2.0;35.958256;-83.92442;829.17;NaN;0.0;33.570072;;0 / 1;95009;2022-09-09 16:22:59:424
8.3342;3.1406;0.8701;9.2235;2.9373;-1.5716;3.5833;-0.9845;5.2936;-0.0173;-0.2632;0.2954;55.9;-81.06;57.83;-0.3;350.26;-17.43;-99.67;2.0;35.958256;-83.92442;829.17;NaN;0.0;33.570072;;0 / 1;95509;2022-09-09 16:22:59:924
8.3342;3.1406;0.8701;9.2235;2.9373;-1.5716;3.5833;-0.9845;5.2936;-0.0173;-0.2632;0.2954;55.9;-81.06;57.83;-0.3;350.26;-17.43;-99.67;2.0;35.958256;-83.92442;829.17;NaN;0.0;33.570072;;0 / 1;96009;2022-09-09 16:23:00:424
7.8556;5.2546;-2.5319;9.2235;2.9373;-1.5716;3.5833;-0.9845;5.2936;-0.0173;-0.2632;0.2954;50.1;-81.06;57.83;-0.3;350.26;-17.43;-99.67;2.0;35.958256;-83.92442;829.17;NaN;0.0;33.570072;;0 / 1;96509;2022-09-09 16:23:00:924
7.8556;5.2546;-2.5319;9.2235;2.9373;-1.5716;3.5833;-0.9845;5.2936;-0.0173;-0.2632;0.2954;50.1;-81.06;57.83;-0.3;350.26;-17.43;-99.67;2.0;35.958256;-83.92442;829.17;NaN;0.0;33.570072;;0 / 1;97009;2022-09-09 16:23:01:424
8.502;4.1174;2.3761;9.2235;2.9373;-1.5716;3.5833;-0.9845;5.2936;-0.0173;-0.2632;0.2954;44.9;-81.06;57.83;-0.3;350.26;-17.43;-99.67;2.0;35.958256;-83.92442;829.17;NaN;0.0;33.570072;;0 / 1;97510;2022-09-09 16:23:01:925
7.4916;3.0449;-0.4564;9.2235;2.9373;-1.5716;3.5833;-0.9845;5.2936;-0.0173;-0.2632;0.2954;44.9;-81.06;57.83;-0.3;350.26;-17.43;-99.67;2.0;35.958256;-83.92442;829.17;NaN;0.0;33.570072;;0 / 1;98009;2022-09-09 16:23:02:424
7.4916;3.0449;-0.4564;9.2235;2.9373;-1.5716;3.5833;-0.9845;5.2936;-0.0173;-0.2632;0.2954;44.9;-81.06;57.83;-0.3;350.26;-17.43;-99.67;2.0;35.958256;-83.92442;829.17;NaN;0.0;33.570072;;0 / 1;98509;2022-09-09 16:23:02:924
8.6288;5.391;-2.726;9.2235;2.9373;-1.5716;3.5833;-0.9845;5.2936;-0.0173;-0.2632;0.2954;44.9;-81.06;57.83;-0.3;350.26;-17.43;-99.67;2.0;35.958256;-83.92442;829.17;NaN;0.0;33.570072;;0 / 1;99009;2022-09-09 16:23:03:424
8.6288;5.391;-2.726;9.2235;2.9373;-1.5716;3.5833;-0.9845;5.2936;-0.0173;-0.2632;0.2954;75.3;-81.06;57.83;-0.3;350.26;-17.43;-99.67;2.0;35.958256;-83.92442;829.17;NaN;0.0;33.570072;;0 / 1;99512;2022-09-09 16:23:03:927
7.0056;4.2108;-0.9975;9.2235;2.9373;-1.5716;3.5833;-0.9845;5.2936;-0.0173;-0.2632;0.2954;142.1;-81.06;57.83;-0.3;350.26;-17.43;-99.67;2.0;35.958256;-83.92442;829.17;NaN;0.0;33.570072;;0 / 1;100009;2022-09-09 16:23:04:424
7.0056;4.2108;-0.9975;9.2235;2.9373;-1.5716;3.5833;-0.9845;5.2936;-0.0173;-0.2632;0.2954;539.5;-81.06;57.83;-0.3;350.26;-17.43;-99.67;2.0;35.958256;-83.92442;829.17;NaN;0.0;33.570072;;0 / 1;100509;2022-09-09 16:23:04:924
7.0056;4.2108;-0.9975;9.2235;2.9373;-1.5716;3.5833;-0.9845;5.2936;-0.0173;-0.2632;0.2954;650.0;-81.06;57.83;-0.3;350.26;-17.43;-99.67;2.0;35.958256;-83.92442;829.17;NaN;0.0;33.570072;;0 / 1;101010;2022-09-09 16:23:05:425
8.5307;2.6498;-1.3062;9.2235;2.9373;-1.5716;3.5833;-0.9845;5.2936;-0.0173;-0.2632;0.2954;908.3;-81.06;57.83;-0.3;350.26;-17.43;-99.67;2.0;35.958256;-83.92442;829.17;NaN;0.0;33.570072;;0 / 1;101510;2022-09-09 16:23:05:925
8.5307;2.6498;-1.3062;9.2235;2.9373;-1.5716;3.5833;-0.9845;5.2936;-0.0173;-0.2632;0.2954;1406.2999;-81.06;57.83;-0.3;350.26;-17.43;-99.67;2.0;35.958256;-83.92442;829.17;NaN;0.0;33.570072;;0 / 1;102010;2022-09-09 16:23:06:425
10.9319;4.9481;-1.5817;9.2235;2.9373;-1.5716;3.5833;-0.9845;5.2936;-0.0173;-0.2632;0.2954;986.6;-81.06;57.83;-0.3;350.26;-17.43;-99.67;2.0;35.958256;-83.92442;829.17;NaN;0.0;33.570072;;0 / 1;102509;2022-09-09 16:23:06:924
10.9319;4.9481;-1.5817;9.2235;2.9373;-1.5716;3.5833;-0.9845;5.2936;-0.0173;-0.2632;0.2954;683.2;-81.06;57.83;-0.3;350.26;-17.43;-99.67;2.0;35.958256;-83.92442;829.17;NaN;0.0;33.570072;;0 / 1;103012;2022-09-09 16:23:07:427
7.6161;3.9066;-2.0554;9.2235;2.9373;-1.5716;3.5833;-0.9845;5.2936;-0.0173;-0.2632;0.2954;664.6;-81.06;57.83;-0.3;350.26;-17.43;-99.67;2.0;35.958256;-83.92442;829.17;NaN;0.0;33.570072;;0 / 1;103510;2022-09-09 16:23:07:925
7.6161;3.9066;-2.0554;9.2235;2.9373;-1.5716;3.5833;-0.9845;5.2936;-0.0173;-0.2632;0.2954;338.5;-81.06;57.83;-0.3;350.26;-17.43;-99.67;2.0;35.958256;-83.92442;829.17;NaN;0.0;33.570072;;0 / 1;104010;2022-09-09 16:23:08:425
11.3605;3.3248;-2.0435;9.2235;2.9373;-1.5716;3.5833;-0.9845;5.2936;-0.0173;-0.2632;0.2954;193.8;-81.06;57.83;-0.3;350.26;-17.43;-99.67;2.0;35.958256;-83.92442;829.17;NaN;0.0;33.570072;;0 / 1;104512;2022-09-09 16:23:08:927
11.3605;3.3248;-2.0435;9.2235;2.9373;-1.5716;3.5833;-0.9845;5.2936;-0.0173;-0.2632;0.2954;149.7;-81.06;57.83;-0.3;350.26;-17.43;-99.67;2.0;35.958256;-83.92442;829.17;NaN;0.0;33.570072;;0 / 1;105011;2022-09-09 16:23:09:426
7.5562;0.4663;1.89;9.2235;2.9373;-1.5716;3.5833;-0.9845;5.2936;-0.0173;-0.2632;0.2954;133.2;-81.06;57.83;-0.3;350.26;-17.43;-99.67;2.0;35.958256;-83.92442;829.17;NaN;0.0;33.570072;;0 / 1;105510;2022-09-09 16:23:09:925
7.5562;0.4663;1.89;9.2235;2.9373;-1.5716;3.5833;-0.9845;5.2936;-0.0173;-0.2632;0.2954;133.2;-81.06;57.83;-0.3;350.26;-17.43;-99.67;2.0;35.958256;-83.92442;829.17;NaN;0.0;33.570072;;0 / 1;106009;2022-09-09 16:23:10:424
9.5387;4.0573;-0.1905;9.2235;2.9373;-1.5716;3.5833;-0.9845;5.2936;-0.0173;-0.2632;0.2954;133.2;-81.06;57.83;-0.3;350.26;-17.43;-99.67;2.0;35.958256;-83.92442;829.17;NaN;0.0;33.570072;;0 / 1;106509;2022-09-09 16:23:10:924
9.5387;4.0573;-0.1905;9.2235;2.9373;-1.5716;3.5833;-0.9845;5.2936;-0.0173;-0.2632;0.2954;166.7;-81.06;57.83;-0.3;350.26;-17.43;-99.67;2.0;35.958256;-83.92442;829.17;NaN;0.0;33.570072;;0 / 1;107009;2022-09-09 16:23:11:424
7.0319;5.0892;0.2883;9.2235;2.9373;-1.5716;3.5833;-0.9845;5.2936;-0.0173;-0.2632;0.2954;117.3;-81.06;57.83;-0.3;350.26;-17.43;-99.67;2.0;35.958256;-83.92442;829.17;NaN;0.0;33.570072;;0 / 1;107511;2022-09-09 16:23:11:926
7.0319;5.0892;0.2883;9.2235;2.9373;-1.5716;3.5833;-0.9845;5.2936;-0.0173;-0.2632;0.2954;104.8;-81.06;57.83;-0.3;350.26;-17.43;-99.67;2.0;35.958256;-83.92442;829.17;NaN;0.0;33.570072;;0 / 1;108010;2022-09-09 16:23:12:425
7.0319;5.0892;0.2883;9.2235;2.9373;-1.5716;3.5833;-0.9845;5.2936;-0.0173;-0.2632;0.2954;104.8;-81.06;57.83;-0.3;350.26;-17.43;-99.67;2.0;35.958256;-83.92442;829.17;NaN;0.0;33.570072;;0 / 1;108510;2022-09-09 16:23:12:925
9.912;3.143;-1.1195;9.2235;2.9373;-1.5716;3.5833;-0.9845;5.2936;-0.0173;-0.2632;0.2954;92.6;-81.06;57.83;-0.3;350.26;-17.43;-99.67;2.0;35.958256;-83.92442;829.17;NaN;0.0;33.570072;;0 / 1;109009;2022-09-09 16:23:13:424
8.0495;2.7646;0.7744;9.2235;2.9373;-1.5716;3.5833;-0.9845;5.2936;-0.0173;-0.2632;0.2954;92.6;-81.06;57.83;-0.3;350.26;-17.43;-99.67;2.0;35.958256;-83.92442;829.17;NaN;0.0;33.570072;;0 / 1;109510;2022-09-09 16:23:13:925
8.0495;2.7646;0.7744;9.2235;2.9373;-1.5716;3.5833;-0.9845;5.2936;-0.0173;-0.2632;0.2954;92.6;-81.06;57.83;-0.3;350.26;-17.43;-99.67;2.0;35.958256;-83.92442;829.17;NaN;0.0;33.570072;;0 / 1;110012;2022-09-09 16:23:14:427
8.0495;2.7646;0.7744;9.2235;2.9373;-1.5716;3.5833;-0.9845;5.2936;-0.0173;-0.2632;0.2954;115.1;-81.06;57.83;-0.3;350.26;-17.43;-99.67;2.0;35.958256;-83.92442;829.17;NaN;0.0;33.570072;;0 / 1;110511;2022-09-09 16:23:14:926
8.3871;5.1132;0.5396;9.2235;2.9373;-1.5716;3.5833;-0.9845;5.2936;-0.0173;-0.2632;0.2954;92.3;-81.06;57.83;-0.3;350.26;-17.43;-99.67;2.0;35.958256;-83.92442;829.17;NaN;0.0;33.570072;;0 / 1;111010;2022-09-09 16:23:15:425
8.3871;5.1132;0.5396;9.2235;2.9373;-1.5716;3.5833;-0.9845;5.2936;-0.0173;-0.2632;0.2954;80.3;-81.06;57.83;-0.3;350.26;-17.43;-99.67;2.0;35.958256;-83.92442;829.17;NaN;0.0;33.570072;;0 / 1;111509;2022-09-09 16:23:15:924
6.8309;3.5788;1.5069;9.2235;2.9373;-1.5716;3.5833;-0.9845;5.2936;-0.0173;-0.2632;0.2954;49.4;-81.06;57.83;-0.3;350.26;-17.43;-99.67;2.0;35.958256;-83.92442;829.17;NaN;0.0;33.570072;;0 / 1;112011;2022-09-09 16:23:16:426
6.8309;3.5788;1.5069;9.2235;2.9373;-1.5716;3.5833;-0.9845;5.2936;-0.0173;-0.2632;0.2954;30.3;-81.06;57.83;-0.3;350.26;-17.43;-99.67;2.0;35.958256;-83.92442;829.17;NaN;0.0;33.570072;;0 / 1;112510;2022-09-09 16:23:16:925
9.6535;2.1015;-0.7986;9.2235;2.9373;-1.5716;3.5833;-0.9845;5.2936;-0.0173;-0.2632;0.2954;20.9;-81.06;57.83;-0.3;350.26;-17.43;-99.67;2.0;35.958256;-83.92442;829.17;NaN;0.0;33.570072;;0 / 1;113010;2022-09-09 16:23:17:425
9.6535;2.1015;-0.7986;9.2235;2.9373;-1.5716;3.5833;-0.9845;5.2936;-0.0173;-0.2632;0.2954;20.6;-81.06;57.83;-0.3;350.26;-17.43;-99.67;2.0;35.958256;-83.92442;829.17;NaN;0.0;33.570072;;0 / 1;113509;2022-09-09 16:23:17:924
9.6535;2.1015;-0.7986;9.2235;2.9373;-1.5716;3.5833;-0.9845;5.2936;-0.0173;-0.2632;0.2954;20.6;-81.06;57.83;-0.3;350.26;-17.43;-99.67;2.0;35.958256;-83.92442;829.17;NaN;0.0;33.570072;;0 / 1;114010;2022-09-09 16:23:18:425
8.8585;5.4843;-0.9302;9.2235;2.9373;-1.5716;3.5833;-0.9845;5.2936;-0.0173;-0.2632;0.2954;24.1;-81.06;57.83;-0.3;350.26;-17.43;-99.67;2.0;35.958256;-83.92442;829.17;NaN;0.0;33.570072;;0 / 1;114511;2022-09-09 16:23:18:926
8.8585;5.4843;-0.9302;9.2235;2.9373;-1.5716;3.5833;-0.9845;5.2936;-0.0173;-0.2632;0.2954;24.1;-81.06;57.83;-0.3;350.26;-17.43;-99.67;2.0;35.958256;-83.92442;829.17;NaN;0.0;33.570072;;0 / 1;115010;2022-09-09 16:23:19:425
6.3449;4.1294;0.5109;9.2235;2.9373;-1.5716;3.5833;-0.9845;5.2936;-0.0173;-0.2632;0.2954;24.1;-81.06;57.83;-0.3;350.26;-17.43;-99.67;2.0;35.958256;-83.92442;829.17;NaN;0.0;33.570072;;0 / 1;115731;2022-09-09 16:23:20:146
6.3449;4.1294;0.5109;9.2235;2.9373;-1.5716;3.5833;-0.9845;5.2936;-0.0173;-0.2632;0.2954;24.1;-81.06;57.83;-0.3;350.26;-17.43;-99.67;2.0;35.958256;-83.92442;829.17;NaN;0.0;33.570072;;0 / 1;115732;2022-09-09 16:23:20:147
6.3449;4.1294;0.5109;9.2235;2.9373;-1.5716;3.5833;-0.9845;5.2936;-0.0173;-0.2632;0.2954;24.1;-81.06;57.83;-0.3;350.26;-17.43;-99.67;2.0;35.958256;-83.92442;829.17;NaN;0.0;33.570072;;0 / 1;115732;2022-09-09 16:23:20:147
6.3449;4.1294;0.5109;9.2235;2.9373;-1.5716;3.5833;-0.9845;5.2936;-0.0173;-0.2632;0.2954;24.1;-81.06;57.83;-0.3;350.26;-17.43;-99.67;2.0;35.958256;-83.92442;829.17;NaN;0.0;33.570072;;0 / 1;115732;2022-09-09 16:23:20:147
6.3449;4.1294;0.5109;9.2235;2.9373;-1.5716;3.5833;-0.9845;5.2936;-0.0173;-0.2632;0.2954;24.1;-81.06;57.83;-0.3;350.26;-17.43;-99.67;2.0;35.958256;-83.92442;829.17;NaN;0.0;33.570072;;0 / 1;115732;2022-09-09 16:23:20:147
6.3449;4.1294;0.5109;9.2235;2.9373;-1.5716;3.5833;-0.9845;5.2936;-0.0173;-0.2632;0.2954;24.1;-81.06;57.83;-0.3;350.26;-17.43;-99.67;2.0;35.958256;-83.92442;829.17;NaN;0.0;33.570072;;0 / 1;115732;2022-09-09 16:23:20:147
6.3449;4.1294;0.5109;9.2235;2.9373;-1.5716;3.5833;-0.9845;5.2936;-0.0173;-0.2632;0.2954;24.1;-81.06;57.83;-0.3;350.26;-17.43;-99.67;2.0;35.958256;-83.92442;829.17;NaN;0.0;33.570072;;0 / 1;115732;2022-09-09 16:23:20:147
6.3449;4.1294;0.5109;9.2235;2.9373;-1.5716;3.5833;-0.9845;5.2936;-0.0173;-0.2632;0.2954;24.1;-81.06;57.83;-0.3;350.26;-17.43;-99.67;2.0;35.958256;-83.92442;829.17;NaN;0.0;33.570072;;0 / 1;115733;2022-09-09 16:23:20:148
6.3449;4.1294;0.5109;9.2235;2.9373;-1.5716;3.5833;-0.9845;5.2936;-0.0173;-0.2632;0.2954;24.1;-81.06;57.83;-0.3;350.26;-17.43;-99.67;2.0;35.958256;-83.92442;829.17;NaN;0.0;33.570072;;0 / 1;115733;2022-09-09 16:23:20:148
6.3449;4.1294;0.5109;9.2235;2.9373;-1.5716;3.5833;-0.9845;5.2936;-0.0173;-0.2632;0.2954;24.1;-81.06;57.83;-0.3;350.26;-17.43;-99.67;2.0;35.958256;-83.92442;829.17;NaN;0.0;33.570072;;0 / 1;115733;2022-09-09 16:23:20:148
6.3449;4.1294;0.5109;9.2235;2.9373;-1.5716;3.5833;-0.9845;5.2936;-0.0173;-0.2632;0.2954;24.1;-81.06;57.83;-0.3;350.26;-17.43;-99.67;2.0;35.958256;-83.92442;829.17;NaN;0.0;33.570072;;0 / 1;115733;2022-09-09 16:23:20:148
6.3449;4.1294;0.5109;9.2235;2.9373;-1.5716;3.5833;-0.9845;5.2936;-0.0173;-0.2632;0.2954;24.1;-81.06;57.83;-0.3;350.26;-17.43;-99.67;2.0;35.958256;-83.92442;829.17;NaN;0.0;33.570072;;0 / 1;115733;2022-09-09 16:23:20:148
6.3449;4.1294;0.5109;9.2235;2.9373;-1.5716;3.5833;-0.9845;5.2936;-0.0173;-0.2632;0.2954;24.1;-81.06;57.83;-0.3;350.26;-17.43;-99.67;2.0;35.958256;-83.92442;829.17;NaN;0.0;33.570072;;0 / 1;115733;2022-09-09 16:23:20:148
6.3449;4.1294;0.5109;9.2235;2.9373;-1.5716;3.5833;-0.9845;5.2936;-0.0173;-0.2632;0.2954;24.1;-81.06;57.83;-0.3;350.26;-17.43;-99.67;2.0;35.958256;-83.92442;829.17;NaN;0.0;33.570072;;0 / 1;115733;2022-09-09 16:23:20:148
6.3449;4.1294;0.5109;9.2235;2.9373;-1.5716;3.5833;-0.9845;5.2936;-0.0173;-0.2632;0.2954;24.1;-81.06;57.83;-0.3;350.26;-17.43;-99.67;2.0;35.958256;-83.92442;829.17;NaN;0.0;33.570072;;0 / 1;115733;2022-09-09 16:23:20:148
6.3449;4.1294;0.5109;9.2235;2.9373;-1.5716;3.5833;-0.9845;5.2936;-0.0173;-0.2632;0.2954;24.1;-81.06;57.83;-0.3;350.26;-17.43;-99.67;2.0;35.958256;-83.92442;829.17;NaN;0.0;33.570072;;0 / 1;115733;2022-09-09 16:23:20:148
6.3449;4.1294;0.5109;9.2235;2.9373;-1.5716;3.5833;-0.9845;5.2936;-0.0173;-0.2632;0.2954;24.1;-81.06;57.83;-0.3;350.26;-17.43;-99.67;2.0;35.958256;-83.92442;829.17;NaN;0.0;33.570072;;0 / 1;115733;2022-09-09 16:23:20:148
6.3449;4.1294;0.5109;9.2235;2.9373;-1.5716;3.5833;-0.9845;5.2936;-0.0173;-0.2632;0.2954;24.1;-81.06;57.83;-0.3;350.26;-17.43;-99.67;2.0;35.958256;-83.92442;829.17;NaN;0.0;33.570072;;0 / 1;115733;2022-09-09 16:23:20:148
6.3449;4.1294;0.5109;9.2235;2.9373;-1.5716;3.5833;-0.9845;5.2936;-0.0173;-0.2632;0.2954;24.1;-81.06;57.83;-0.3;350.26;-17.43;-99.67;2.0;35.958256;-83.92442;829.17;NaN;0.0;33.570072;;0 / 1;115733;2022-09-09 16:23:20:148
6.3449;4.1294;0.5109;9.2235;2.9373;-1.5716;3.5833;-0.9845;5.2936;-0.0173;-0.2632;0.2954;24.1;-81.06;57.83;-0.3;350.26;-17.43;-99.67;2.0;35.958256;-83.92442;829.17;NaN;0.0;33.570072;;0 / 1;115733;2022-09-09 16:23:20:148
6.3449;4.1294;0.5109;9.2235;2.9373;-1.5716;3.5833;-0.9845;5.2936;-0.0173;-0.2632;0.2954;24.1;-81.06;57.83;-0.3;350.26;-17.43;-99.67;2.0;35.958256;-83.92442;829.17;NaN;0.0;33.570072;;0 / 1;115733;2022-09-09 16:23:20:148
6.3449;4.1294;0.5109;9.2235;2.9373;-1.5716;3.5833;-0.9845;5.2936;-0.0173;-0.2632;0.2954;24.1;-81.06;57.83;-0.3;350.26;-17.43;-99.67;2.0;35.958256;-83.92442;829.17;NaN;0.0;33.570072;;0 / 1;115733;2022-09-09 16:23:20:148
6.3449;4.1294;0.5109;9.2235;2.9373;-1.5716;3.5833;-0.9845;5.2936;-0.0173;-0.2632;0.2954;24.1;-81.06;57.83;-0.3;350.26;-17.43;-99.67;2.0;35.958256;-83.92442;829.17;NaN;0.0;33.570072;;0 / 1;115734;2022-09-09 16:23:20:149
6.3449;4.1294;0.5109;9.2235;2.9373;-1.5716;3.5833;-0.9845;5.2936;-0.0173;-0.2632;0.2954;24.1;-81.06;57.83;-0.3;350.26;-17.43;-99.67;2.0;35.958256;-83.92442;829.17;NaN;0.0;33.570072;;0 / 1;115734;2022-09-09 16:23:20:149
6.3449;4.1294;0.5109;9.2235;2.9373;-1.5716;3.5833;-0.9845;5.2936;-0.0173;-0.2632;0.2954;24.1;-81.06;57.83;-0.3;350.26;-17.43;-99.67;2.0;35.958256;-83.92442;829.17;NaN;0.0;33.570072;;0 / 1;115734;2022-09-09 16:23:20:149
6.3449;4.1294;0.5109;9.2235;2.9373;-1.5716;3.5833;-0.9845;5.2936;-0.0173;-0.2632;0.2954;24.1;-81.06;57.83;-0.3;350.26;-17.43;-99.67;2.0;35.958256;-83.92442;829.17;NaN;0.0;33.570072;;0 / 1;115734;2022-09-09 16:23:20:149
6.3449;4.1294;0.5109;9.2235;2.9373;-1.5716;3.5833;-0.9845;5.2936;-0.0173;-0.2632;0.2954;24.1;-81.06;57.83;-0.3;350.26;-17.43;-99.67;2.0;35.958256;-83.92442;829.17;NaN;0.0;33.570072;;0 / 1;115734;2022-09-09 16:23:20:149
6.3449;4.1294;0.5109;9.2235;2.9373;-1.5716;3.5833;-0.9845;5.2936;-0.0173;-0.2632;0.2954;24.1;-81.06;57.83;-0.3;350.26;-17.43;-99.67;2.0;35.958256;-83.92442;829.17;NaN;0.0;33.570072;;0 / 1;115734;2022-09-09 16:23:20:149
6.3449;4.1294;0.5109;9.2235;2.9373;-1.5716;3.5833;-0.9845;5.2936;-0.0173;-0.2632;0.2954;24.1;-81.06;57.83;-0.3;350.26;-17.43;-99.67;2.0;35.958256;-83.92442;829.17;NaN;0.0;33.570072;;0 / 1;115734;2022-09-09 16:23:20:149
6.3449;4.1294;0.5109;9.2235;2.9373;-1.5716;3.5833;-0.9845;5.2936;-0.0173;-0.2632;0.2954;24.1;-81.06;57.83;-0.3;350.26;-17.43;-99.67;2.0;35.958256;-83.92442;829.17;NaN;0.0;33.570072;;0 / 1;115734;2022-09-09 16:23:20:149
6.3449;4.1294;0.5109;9.2235;2.9373;-1.5716;3.5833;-0.9845;5.2936;-0.0173;-0.2632;0.2954;24.1;-81.06;57.83;-0.3;350.26;-17.43;-99.67;2.0;35.958256;-83.92442;829.17;NaN;0.0;33.570072;;0 / 1;115734;2022-09-09 16:23:20:149
6.3449;4.1294;0.5109;9.2235;2.9373;-1.5716;3.5833;-0.9845;5.2936;-0.0173;-0.2632;0.2954;24.1;-81.06;57.83;-0.3;350.26;-17.43;-99.67;2.0;35.958256;-83.92442;829.17;NaN;0.0;33.570072;;0 / 1;115734;2022-09-09 16:23:20:149
6.3449;4.1294;0.5109;9.2235;2.9373;-1.5716;3.5833;-0.9845;5.2936;-0.0173;-0.2632;0.2954;24.1;-81.06;57.83;-0.3;350.26;-17.43;-99.67;2.0;35.958256;-83.92442;829.17;NaN;0.0;33.570072;;0 / 1;115735;2022-09-09 16:23:20:150
6.3449;4.1294;0.5109;9.2235;2.9373;-1.5716;3.5833;-0.9845;5.2936;-0.0173;-0.2632;0.2954;24.1;-81.06;57.83;-0.3;350.26;-17.43;-99.67;2.0;35.958256;-83.92442;829.17;NaN;0.0;33.570072;;0 / 1;115735;2022-09-09 16:23:20:150
6.3449;4.1294;0.5109;9.2235;2.9373;-1.5716;3.5833;-0.9845;5.2936;-0.0173;-0.2632;0.2954;24.1;-81.06;57.83;-0.3;350.26;-17.43;-99.67;2.0;35.958256;-83.92442;829.17;NaN;0.0;33.570072;;0 / 1;115735;2022-09-09 16:23:20:150
6.3449;4.1294;0.5109;9.2235;2.9373;-1.5716;3.5833;-0.9845;5.2936;-0.0173;-0.2632;0.2954;24.1;-81.06;57.83;-0.3;350.26;-17.43;-99.67;2.0;35.958256;-83.92442;829.17;NaN;0.0;33.570072;;0 / 1;115735;2022-09-09 16:23:20:150
6.3449;4.1294;0.5109;9.2235;2.9373;-1.5716;3.5833;-0.9845;5.2936;-0.0173;-0.2632;0.2954;24.1;-81.06;57.83;-0.3;350.26;-17.43;-99.67;2.0;35.958256;-83.92442;829.17;NaN;0.0;33.570072;;0 / 1;115735;2022-09-09 16:23:20:150
6.3449;4.1294;0.5109;9.2235;2.9373;-1.5716;3.5833;-0.9845;5.2936;-0.0173;-0.2632;0.2954;24.1;-81.06;57.83;-0.3;350.26;-17.43;-99.67;2.0;35.958256;-83.92442;829.17;NaN;0.0;33.570072;;0 / 1;115735;2022-09-09 16:23:20:150
6.3449;4.1294;0.5109;9.2235;2.9373;-1.5716;3.5833;-0.9845;5.2936;-0.0173;-0.2632;0.2954;24.1;-81.06;57.83;-0.3;350.26;-17.43;-99.67;2.0;35.958256;-83.92442;829.17;NaN;0.0;33.570072;;0 / 1;115735;2022-09-09 16:23:20:150
6.3449;4.1294;0.5109;9.2235;2.9373;-1.5716;3.5833;-0.9845;5.2936;-0.0173;-0.2632;0.2954;24.1;-81.06;57.83;-0.3;350.26;-17.43;-99.67;2.0;35.958256;-83.92442;829.17;NaN;0.0;33.570072;;0 / 1;115735;2022-09-09 16:23:20:150
6.3449;4.1294;0.5109;9.2235;2.9373;-1.5716;3.5833;-0.9845;5.2936;-0.0173;-0.2632;0.2954;24.1;-81.06;57.83;-0.3;350.26;-17.43;-99.67;2.0;35.958256;-83.92442;829.17;NaN;0.0;33.570072;;0 / 1;115736;2022-09-09 16:23:20:151
6.3449;4.1294;0.5109;9.2235;2.9373;-1.5716;3.5833;-0.9845;5.2936;-0.0173;-0.2632;0.2954;24.1;-81.06;57.83;-0.3;350.26;-17.43;-99.67;2.0;35.958256;-83.92442;829.17;NaN;0.0;33.570072;;0 / 1;115736;2022-09-09 16:23:20:151
6.3449;4.1294;0.5109;9.2235;2.9373;-1.5716;3.5833;-0.9845;5.2936;-0.0173;-0.2632;0.2954;24.1;-81.06;57.83;-0.3;350.26;-17.43;-99.67;2.0;35.958256;-83.92442;829.17;NaN;0.0;33.570072;;0 / 1;115736;2022-09-09 16:23:20:151
6.3449;4.1294;0.5109;9.2235;2.9373;-1.5716;3.5833;-0.9845;5.2936;-0.0173;-0.2632;0.2954;24.1;-81.06;57.83;-0.3;350.26;-17.43;-99.67;2.0;35.958256;-83.92442;829.17;NaN;0.0;33.570072;;0 / 1;115736;2022-09-09 16:23:20:151
6.3449;4.1294;0.5109;9.2235;2.9373;-1.5716;3.5833;-0.9845;5.2936;-0.0173;-0.2632;0.2954;24.1;-81.06;57.83;-0.3;350.26;-17.43;-99.67;2.0;35.958256;-83.92442;829.17;NaN;0.0;33.570072;;0 / 1;115736;2022-09-09 16:23:20:151
6.3449;4.1294;0.5109;9.2235;2.9373;-1.5716;3.5833;-0.9845;5.2936;-0.0173;-0.2632;0.2954;24.1;-81.06;57.83;-0.3;350.26;-17.43;-99.67;2.0;35.958256;-83.92442;829.17;NaN;0.0;33.570072;;0 / 1;115736;2022-09-09 16:23:20:151
6.3449;4.1294;0.5109;9.2235;2.9373;-1.5716;3.5833;-0.9845;5.2936;-0.0173;-0.2632;0.2954;24.1;-81.06;57.83;-0.3;350.26;-17.43;-99.67;2.0;35.958256;-83.92442;829.17;NaN;0.0;33.570072;;0 / 1;115736;2022-09-09 16:23:20:151
6.3449;4.1294;0.5109;9.2235;2.9373;-1.5716;3.5833;-0.9845;5.2936;-0.0173;-0.2632;0.2954;24.1;-81.06;57.83;-0.3;350.26;-17.43;-99.67;2.0;35.958256;-83.92442;829.17;NaN;0.0;33.570072;;0 / 1;115736;2022-09-09 16:23:20:151
6.3449;4.1294;0.5109;9.2235;2.9373;-1.5716;3.5833;-0.9845;5.2936;-0.0173;-0.2632;0.2954;24.1;-81.06;57.83;-0.3;350.26;-17.43;-99.67;2.0;35.958256;-83.92442;829.17;NaN;0.0;33.570072;;0 / 1;115736;2022-09-09 16:23:20:151
6.3449;4.1294;0.5109;9.2235;2.9373;-1.5716;3.5833;-0.9845;5.2936;-0.0173;-0.2632;0.2954;24.1;-81.06;57.83;-0.3;350.26;-17.43;-99.67;2.0;35.958256;-83.92442;829.17;NaN;0.0;33.570072;;0 / 1;115736;2022-09-09 16:23:20:151
6.3449;4.1294;0.5109;9.2235;2.9373;-1.5716;3.5833;-0.9845;5.2936;-0.0173;-0.2632;0.2954;24.1;-81.06;57.83;-0.3;350.26;-17.43;-99.67;2.0;35.958256;-83.92442;829.17;NaN;0.0;33.570072;;0 / 1;115736;2022-09-09 16:23:20:151
6.3449;4.1294;0.5109;9.2235;2.9373;-1.5716;3.5833;-0.9845;5.2936;-0.0173;-0.2632;0.2954;24.1;-81.06;57.83;-0.3;350.26;-17.43;-99.67;2.0;35.958256;-83.92442;829.17;NaN;0.0;33.570072;;0 / 1;115736;2022-09-09 16:23:20:151
6.3449;4.1294;0.5109;9.2235;2.9373;-1.5716;3.5833;-0.9845;5.2936;-0.0173;-0.2632;0.2954;24.1;-81.06;57.83;-0.3;350.26;-17.43;-99.67;2.0;35.958256;-83.92442;829.17;NaN;0.0;33.570072;;0 / 1;115736;2022-09-09 16:23:20:151
6.3449;4.1294;0.5109;9.2235;2.9373;-1.5716;3.5833;-0.9845;5.2936;-0.0173;-0.2632;0.2954;24.1;-81.06;57.83;-0.3;350.26;-17.43;-99.67;2.0;35.958256;-83.92442;829.17;NaN;0.0;33.570072;;0 / 1;115736;2022-09-09 16:23:20:151
6.3449;4.1294;0.5109;9.2235;2.9373;-1.5716;3.5833;-0.9845;5.2936;-0.0173;-0.2632;0.2954;24.1;-81.06;57.83;-0.3;350.26;-17.43;-99.67;2.0;35.958256;-83.92442;829.17;NaN;0.0;33.570072;;0 / 1;115736;2022-09-09 16:23:20:151
6.3449;4.1294;0.5109;9.2235;2.9373;-1.5716;3.5833;-0.9845;5.2936;-0.0173;-0.2632;0.2954;24.1;-81.06;57.83;-0.3;350.26;-17.43;-99.67;2.0;35.958256;-83.92442;829.17;NaN;0.0;33.570072;;0 / 1;115737;2022-09-09 16:23:20:152
6.3449;4.1294;0.5109;9.2235;2.9373;-1.5716;3.5833;-0.9845;5.2936;-0.0173;-0.2632;0.2954;24.1;-81.06;57.83;-0.3;350.26;-17.43;-99.67;2.0;35.958256;-83.92442;829.17;NaN;0.0;33.570072;;0 / 1;115737;2022-09-09 16:23:20:152
8.3773;2.3073;-2.3859;9.2235;2.9373;-1.5716;3.5833;-0.9845;5.2936;-0.0173;-0.2632;0.2954;24.1;-81.06;57.83;-0.3;350.26;-17.43;-99.67;2.0;35.958256;-83.92442;829.17;NaN;0.0;33.570072;;0 / 1;115737;2022-09-09 16:23:20:152
8.3773;2.3073;-2.3859;9.2235;2.9373;-1.5716;3.5833;-0.9845;5.2936;-0.0173;-0.2632;0.2954;24.1;-81.06;57.83;-0.3;350.26;-17.43;-99.67;2.0;35.958256;-83.92442;829.17;NaN;0.0;33.570072;;0 / 1;115737;2022-09-09 16:23:20:152
8.3773;2.3073;-2.3859;9.2235;2.9373;-1.5716;3.5833;-0.9845;5.2936;-0.0173;-0.2632;0.2954;24.1;-81.06;57.83;-0.3;350.26;-17.43;-99.67;2.0;35.958256;-83.92442;829.17;NaN;0.0;33.570072;;0 / 1;115737;2022-09-09 16:23:20:152
8.3773;2.3073;-2.3859;9.2235;2.9373;-1.5716;3.5833;-0.9845;5.2936;-0.0173;-0.2632;0.2954;24.1;-81.06;57.83;-0.3;350.26;-17.43;-99.67;2.0;35.958256;-83.92442;829.17;NaN;0.0;33.570072;;0 / 1;115737;2022-09-09 16:23:20:152
8.3773;2.3073;-2.3859;9.2235;2.9373;-1.5716;3.5833;-0.9845;5.2936;-0.0173;-0.2632;0.2954;24.1;-81.06;57.83;-0.3;350.26;-17.43;-99.67;2.0;35.958256;-83.92442;829.17;NaN;0.0;33.570072;;0 / 1;115737;2022-09-09 16:23:20:152
8.3773;2.3073;-2.3859;9.2235;2.9373;-1.5716;3.5833;-0.9845;5.2936;-0.0173;-0.2632;0.2954;24.1;-81.06;57.83;-0.3;350.26;-17.43;-99.67;2.0;35.958256;-83.92442;829.17;NaN;0.0;33.570072;;0 / 1;115737;2022-09-09 16:23:20:152
8.3773;2.3073;-2.3859;9.2235;2.9373;-1.5716;3.5833;-0.9845;5.2936;-0.0173;-0.2632;0.2954;24.1;-81.06;57.83;-0.3;350.26;-17.43;-99.67;2.0;35.958256;-83.92442;829.17;NaN;0.0;33.570072;;0 / 1;115737;2022-09-09 16:23:20:152
8.3773;2.3073;-2.3859;9.2235;2.9373;-1.5716;3.5833;-0.9845;5.2936;-0.0173;-0.2632;0.2954;24.1;-81.06;57.83;-0.3;350.26;-17.43;-99.67;2.0;35.958256;-83.92442;829.17;NaN;0.0;33.570072;;0 / 1;115737;2022-09-09 16:23:20:152
8.3773;2.3073;-2.3859;9.2235;2.9373;-1.5716;3.5833;-0.9845;5.2936;-0.0173;-0.2632;0.2954;24.1;-81.06;57.83;-0.3;350.26;-17.43;-99.67;2.0;35.958256;-83.92442;829.17;NaN;0.0;33.570072;;0 / 1;115737;2022-09-09 16:23:20:152
8.3773;2.3073;-2.3859;9.2235;2.9373;-1.5716;3.5833;-0.9845;5.2936;-0.0173;-0.2632;0.2954;24.1;-81.06;57.83;-0.3;350.26;-17.43;-99.67;2.0;35.958256;-83.92442;829.17;NaN;0.0;33.570072;;0 / 1;115737;2022-09-09 16:23:20:152
8.3773;2.3073;-2.3859;9.2235;2.9373;-1.5716;3.5833;-0.9845;5.2936;-0.0173;-0.2632;0.2954;24.1;-81.06;57.83;-0.3;350.26;-17.43;-99.67;2.0;35.958256;-83.92442;829.17;NaN;0.0;33.570072;;0 / 1;115737;2022-09-09 16:23:20:152
8.3773;2.3073;-2.3859;9.2235;2.9373;-1.5716;3.5833;-0.9845;5.2936;-0.0173;-0.2632;0.2954;24.1;-81.06;57.83;-0.3;350.26;-17.43;-99.67;2.0;35.958256;-83.92442;829.17;NaN;0.0;33.570072;;0 / 1;115737;2022-09-09 16:23:20:152
8.3773;2.3073;-2.3859;9.2235;2.9373;-1.5716;3.5833;-0.9845;5.2936;-0.0173;-0.2632;0.2954;24.1;-81.06;57.83;-0.3;350.26;-17.43;-99.67;2.0;35.958256;-83.92442;829.17;NaN;0.0;33.570072;;0 / 1;115739;2022-09-09 16:23:20:154
8.3773;2.3073;-2.3859;9.2235;2.9373;-1.5716;3.5833;-0.9845;5.2936;-0.0173;-0.2632;0.2954;24.1;-81.06;57.83;-0.3;350.26;-17.43;-99.67;2.0;35.958256;-83.92442;829.17;NaN;0.0;33.570072;;0 / 1;115739;2022-09-09 16:23:20:154
8.3773;2.3073;-2.3859;9.2235;2.9373;-1.5716;3.5833;-0.9845;5.2936;-0.0173;-0.2632;0.2954;24.1;-81.06;57.83;-0.3;350.26;-17.43;-99.67;2.0;35.958256;-83.92442;829.17;NaN;0.0;33.570072;;0 / 1;115744;2022-09-09 16:23:20:159
8.3773;2.3073;-2.3859;9.2235;2.9373;-1.5716;3.5833;-0.9845;5.2936;-0.0173;-0.2632;0.2954;148.6;-81.06;57.83;-0.3;350.26;-17.43;-99.67;2.0;35.958256;-83.92442;829.17;NaN;0.0;33.570072;;0 / 1;116245;2022-09-09 16:23:20:660
8.3773;2.3073;-2.3859;9.2235;2.9373;-1.5716;3.5833;-0.9845;5.2936;-0.0173;-0.2632;0.2954;887.5;-81.06;57.83;-0.3;350.26;-17.43;-99.67;2.0;35.958256;-83.92442;829.17;NaN;0.0;33.570072;;0 / 1;116745;2022-09-09 16:23:21:160
1.3077;-3.3954;10.322;9.2235;2.9373;-1.5716;3.5833;-0.9845;5.2936;-0.0173;-0.2632;0.2954;781.3;-81.06;57.83;-0.3;350.26;-17.43;-99.67;2.0;35.958256;-83.92442;829.17;NaN;0.0;33.570072;;0 / 1;117244;2022-09-09 16:23:21:659
-0.3873;4.6175;8.4975;9.2235;2.9373;-1.5716;3.5833;-0.9845;5.2936;-0.0173;-0.2632;0.2954;687.3;-81.06;57.83;-0.3;350.26;-17.43;-99.67;2.0;35.958256;-83.92442;829.17;NaN;0.0;33.570072;;0 / 1;117745;2022-09-09 16:23:22:160
-0.6628;4.8452;8.6797;9.2235;2.9373;-1.5716;3.5833;-0.9845;5.2936;-0.0173;-0.2632;0.2954;780.3;-57.64;22.54;-30.62;312.95;-17.43;-99.67;2.0;35.958256;-83.92442;829.17;NaN;0.0;33.570072;;0 / 1;118244;2022-09-09 16:23:22:659
-3.8527;6.0458;7.4958;-2.4757;5.6348;7.6348;-0.6241;0.1415;0.183;0.199;0.8174;0.0707;780.3;-53.34;19.5;-31.03;68.26;-35.07;17.97;2.0;35.958256;-83.92442;829.17;NaN;0.0;33.570072;;0 / 1;118744;2022-09-09 16:23:23:159