sep=;
ACCELEROMETER X (m/s²);ACCELEROMETER Y (m/s²);ACCELEROMETER Z (m/s²);GRAVITY X (m/s²);GRAVITY Y (m/s²);GRAVITY Z (m/s²);LINEAR ACCELERATION X (m/s²);LINEAR ACCELERATION Y (m/s²);LINEAR ACCELERATION Z (m/s²);GYROSCOPE X (rad/s);GYROSCOPE Y (rad/s);GYROSCOPE Z (rad/s);LIGHT (lux);MAGNETIC FIELD X (μT);MAGNETIC FIELD Y (μT);MAGNETIC FIELD Z (μT);ORIENTATION Z (azimuth °);ORIENTATION X (pitch °);ORIENTATION Y (roll °);PROXIMITY (i);SOUND LEVEL (dB);LOCATION Latitude : ;LOCATION Longitude : ;LOCATION Altitude ( m);LOCATION Altitude-google ( m);LOCATION Speed ( Kmh);LOCATION Accuracy ( m);LOCATION ORIENTATION (°);Satellites in range;Time since start in ms ;YYYY-MO-DD HH-MI-SS_SSS
0.1992;1.2996;7.3316;-0.1805;2.212;9.5522;0.3541;1.082;0.3787;-0.2284;-1.1114;-0.4579;33.1;54.73;-17.14;8.51;252.69;-12.59;5.76;5.0;35.95832;-83.92454;691.11;NaN;0.0;35.33087;;0 / 0;8;2022-10-28 14:11:06:461
14.0803;-4.6953;-1.2679;8.679;-4.5618;0.1886;4.3516;0.4769;1.9696;3.9215;-0.8707;4.0227;15.5;33.6;-13.44;-10.59;289.66;27.72;-88.76;5.0;35.95832;-83.92454;691.11;NaN;0.0;35.33087;;0 / 0;508;2022-10-28 14:11:06:961
5.5475;-6.594;-1.8449;8.1502;-5.3211;-1.1966;-1.7356;-3.4163;2.6934;-1.339;-1.3328;-0.8501;2.3;-11.79;-16.18;7.29;165.77;32.86;-98.35;0.0;35.95832;-83.92454;691.11;NaN;0.0;35.33087;;0 / 0;1007;2022-10-28 14:11:07:460
7.9917;-10.4871;-1.7396;7.0497;-6.7129;-1.1871;1.8238;-4.4686;-0.6774;0.6428;-0.058;1.0055;0.0;-24.56;-14.63;7.91;172.58;43.2;-99.56;0.0;35.95832;-83.92454;691.11;NaN;0.0;35.33087;;0 / 0;1508;2022-10-28 14:11:07:961
5.8534;-7.6591;-0.2749;5.7426;-7.9137;0.7521;0.1727;0.1523;-1.107;0.0999;-0.0137;0.2088;0.0;-52.24;-7.26;-10.54;184.91;53.49;-82.39;2.0;35.95832;-83.92454;691.11;NaN;0.0;35.33087;;0 / 0;2008;2022-10-28 14:11:08:461
4.4022;-8.1221;-1.2529;6.6348;-7.1796;-0.7762;-2.3186;-1.2585;-0.3444;-1.338;0.707;-0.4034;0.0;-57.51;-4.54;-5.81;195.74;47.06;-96.67;2.0;35.95832;-83.92454;691.11;NaN;0.0;35.33087;;0 / 0;2508;2022-10-28 14:11:08:961
7.4602;-8.7039;-0.9763;6.9892;-6.7652;-1.2461;0.7163;0.4689;-1.5403;-0.436;0.4268;-0.0625;4.5;-60.13;-3.56;-5.31;199.75;43.62;-100.11;0.0;35.95832;-83.92454;691.11;NaN;0.0;35.33087;;0 / 0;3007;2022-10-28 14:11:09:460
6.4044;-6.1857;0.2749;7.1156;-6.7383;0.3654;-0.6281;0.588;-0.0321;-0.3726;-0.1452;0.4164;6.5;-52.71;-6.73;-3.39;180.38;43.4;-87.06;0.0;35.95832;-83.92454;691.11;NaN;0.0;35.33087;;0 / 0;3508;2022-10-28 14:11:09:961
6.1451;-7.0116;0.3628;7.0582;-6.8078;0.0772;-0.8893;-0.2311;0.2943;-0.0252;-0.0676;-0.5089;7.7;-42.47;-1.26;-4.63;188.31;45.41;-89.29;0.0;35.95832;-83.92454;691.11;NaN;0.0;35.33087;;0 / 0;4007;2022-10-28 14:11:10:460
8.4081;-7.4342;-0.4669;7.1257;-6.727;-0.3767;0.6882;0.053;-0.2176;-0.1617;-0.2857;0.5236;3.6;-26.81;0.32;-10.58;214.44;43.31;-93.03;0.0;35.95832;-83.92454;691.11;NaN;0.0;35.33087;;0 / 0;4508;2022-10-28 14:11:10:961
6.4292;-6.3562;0.3799;7.1613;-6.6938;0.2833;-1.4438;1.1257;-0.6693;0.1206;-0.2614;0.0362;2.2;-12.92;4.07;-20.76;252.36;43.05;-87.73;0.0;35.95832;-83.92454;691.11;NaN;0.0;35.33087;;0 / 0;5008;2022-10-28 14:11:11:461
5.7891;-5.4583;-0.4672;7.335;-6.5009;-0.3246;-1.1019;0.4986;-0.0382;-0.0675;0.003;-0.3182;7.5;-6.0;4.8;-38.4;271.32;41.52;-92.53;0.0;35.95832;-83.92454;691.11;NaN;0.0;35.33087;;0 / 0;5508;2022-10-28 14:11:11:961
10.9343;-9.7552;-0.1451;7.2558;-6.5829;-0.4346;3.8486;-3.3366;0.26;0.6785;-0.4018;0.1388;3.6;-4.52;6.68;-49.29;275.45;42.19;-94.99;0.0;35.95832;-83.92454;691.11;NaN;0.0;35.33087;;0 / 0;6008;2022-10-28 14:11:12:461
5.7796;-6.1403;0.4836;7.4359;-6.3825;0.3753;-1.527;0.1918;0.1392;0.078;0.164;0.2177;4.4;-9.99;-8.16;-52.86;254.73;40.6;-87.11;0.0;35.95832;-83.92454;691.11;NaN;0.0;35.33087;;0 / 0;6508;2022-10-28 14:11:12:961
5.3752;-5.1455;-0.8034;8.0019;-5.6675;-0.1367;-2.7372;0.4443;0.4161;-0.0476;0.1084;-0.7771;8.1;-11.68;-14.47;-43.35;247.45;35.3;-90.98;0.0;35.95832;-83.92454;691.11;NaN;0.0;35.33087;;0 / 0;7007;2022-10-28 14:11:13:460
10.8882;-8.1218;-0.9712;6.8079;-7.0556;0.2014;4.3521;-1.8887;-0.1885;0.2143;0.2535;0.6012;4.4;-2.23;-16.37;-51.69;255.26;46.01;-88.31;0.0;35.95832;-83.92454;691.11;NaN;0.0;35.33087;;0 / 0;7508;2022-10-28 14:11:13:961
6.5656;-5.505;-0.0814;7.631;-6.1514;0.3123;-0.9533;0.5089;-0.4475;-0.8714;0.7477;0.0518;11.3;4.74;-16.35;-54.86;258.71;37.67;-87.62;0.0;35.95832;-83.92454;691.11;NaN;0.0;35.33087;;0 / 0;8007;2022-10-28 14:11:14:460
5.1951;-5.1236;-0.358;7.6364;-6.1264;-0.5685;-1.0864;0.687;-0.0971;-0.7797;0.3269;-0.9199;8.5;17.23;-1.14;-43.74;285.54;38.66;-94.26;0.0;35.95832;-83.92454;691.11;NaN;0.0;35.33087;;0 / 0;8508;2022-10-28 14:11:14:961
11.1266;-8.6737;-1.1674;6.8423;-7.0231;-0.1724;4.5631;-1.4962;-0.5954;-0.6692;0.9133;-0.3349;2.2;12.17;8.74;-35.55;294.26;47.37;-92.33;0.0;35.95832;-83.92454;691.11;NaN;0.0;35.33087;;0 / 0;9008;2022-10-28 14:11:15:461
6.172;-6.2151;0.1304;8.0881;-5.535;-0.3428;-2.2645;-0.0111;-0.8646;-1.5278;0.8406;0.2569;7.3;-11.68;3.11;-23.72;261.37;34.36;-92.43;0.0;35.95832;-83.92454;691.11;NaN;0.0;35.33087;;0 / 0;9508;2022-10-28 14:11:15:961
6.816;-5.8594;-0.7406;7.0524;-6.8019;-0.4114;-0.6331;0.664;-0.3265;-0.7859;0.7758;-0.2134;5.8;-18.84;4.63;-12.86;237.13;44.8;-93.83;0.0;35.95832;-83.92454;691.11;NaN;0.0;35.33087;;0 / 0;10007;2022-10-28 14:11:16:460
10.1833;-8.1452;-0.0703;6.9265;-6.9421;-0.0415;2.5932;0.153;-0.1912;-0.2661;0.3612;-0.2248;1.4;-21.15;3.64;-13.72;229.7;45.06;-90.34;0.0;35.95832;-83.92454;691.11;NaN;0.0;35.33087;;0 / 0;10509;2022-10-28 14:11:16:962
6.1792;-5.8493;0.7854;7.5029;-6.2881;0.5803;-1.3906;0.21;0.4635;0.8146;-1.0539;-0.2194;3.6;-29.23;-9.02;-15.08;204.33;40.92;-84.33;0.0;35.95832;-83.92454;691.11;NaN;0.0;35.33087;;0 / 0;11008;2022-10-28 14:11:17:461
8.0776;-6.326;0.7499;7.4988;-6.2099;-1.1731;-0.3217;0.0192;2.0377;0.5478;-1.1606;-0.3619;8.6;-26.66;-7.11;-6.11;204.94;39.29;-98.89;0.0;35.95832;-83.92454;691.11;NaN;0.0;35.33087;;0 / 0;11508;2022-10-28 14:11:17:961
9.8851;-4.8497;-2.1724;8.5507;-4.5119;-1.6426;-1.1867;0.6251;-1.3955;-0.0443;-0.1968;0.1639;9.4;-26.68;-2.21;-3.54;213.5;27.39;-100.87;0.0;35.95832;-83.92454;691.11;NaN;0.0;35.33087;;0 / 0;12007;2022-10-28 14:11:18:460
7.0561;-5.0892;-1.0642;7.3514;-6.0998;-2.218;-0.7951;0.7108;0.3734;-0.4298;-0.0597;0.2793;10.8;-23.7;6.75;-4.22;233.06;38.46;-106.79;0.0;35.95832;-83.92454;691.11;NaN;0.0;35.33087;;0 / 0;12507;2022-10-28 14:11:18:960
7.905;-8.8627;-0.9748;7.5771;-6.1952;-0.6147;0.4058;-2.6985;-0.5745;-0.0186;1.1233;-0.4923;6.5;-15.73;12.09;-2.04;256.1;40.42;-97.26;0.0;35.95832;-83.92454;691.11;NaN;0.0;35.33087;;0 / 0;13008;2022-10-28 14:11:19:461
8.254;-3.0006;-2.2822;8.6013;-4.435;-1.5869;-2.089;1.477;-0.9735;0.6749;-0.2266;-0.0765;7.4;-21.17;7.97;-7.33;261.33;26.89;-100.45;2.0;35.95832;-83.92454;691.11;NaN;0.0;35.33087;;0 / 0;13508;2022-10-28 14:11:19:961
4.9382;-3.0027;0.5674;8.1632;-5.3339;1.0402;-1.9323;2.0834;0.5784;0.0322;0.9904;-0.257;3.0;-20.29;5.19;-10.33;233.21;31.11;-85.91;0.0;35.95832;-83.92454;691.11;NaN;0.0;35.33087;;0 / 0;14009;2022-10-28 14:11:20:462
3.7938;-7.9053;2.54;4.7466;-8.2125;2.489;-1.0841;1.6133;1.2487;-0.1461;-0.4304;1.1421;0.0;-7.35;8.08;-17.12;237.81;56.87;-62.33;0.0;35.95832;-83.92454;691.11;NaN;0.0;35.33087;;0 / 0;14508;2022-10-28 14:11:20:961
4.5879;-8.9791;1.0041;3.8066;-8.8525;1.8204;1.1626;1.0579;0.4204;-0.3807;-0.3539;1.4694;1.3;7.16;16.56;-13.56;299.43;59.21;-63.98;0.0;35.95832;-83.92454;691.11;NaN;0.0;35.33087;;0 / 0;15008;2022-10-28 14:11:21:461
3.1753;-8.8774;1.8987;3.2411;-9.147;1.4138;-0.4447;-2.4262;2.7202;0.4911;-0.1374;0.0118;2.0;33.54;22.46;-9.24;327.01;68.86;-66.43;2.0;35.95832;-83.92454;691.11;NaN;0.0;35.33087;;0 / 0;15508;2022-10-28 14:11:21:961
2.854;-13.2625;2.8887;2.5706;-9.0228;2.8551;1.8659;-4.5695;2.2207;-0.3897;0.2061;0.317;1.3;41.38;22.16;-17.31;297.99;66.94;-42.0;0.0;35.95832;-83.92454;691.11;NaN;0.0;35.33087;;0 / 0;16008;2022-10-28 14:11:22:461
2.9674;-8.3273;-1.4369;2.8482;-9.3784;-0.3211;0.0564;0.6674;-0.8045;0.2174;-0.4021;0.0405;0.0;50.85;20.16;-19.52;345.92;73.01;-96.43;0.0;35.95832;-83.92454;691.11;NaN;0.0;35.33087;;0 / 0;16509;2022-10-28 14:11:22:962
2.7897;-8.2283;1.8858;3.2437;-9.0277;2.037;0.4817;0.9103;0.3213;0.5582;-0.1052;-0.091;0.0;44.06;16.99;-30.45;300.56;68.4;-60.58;0.0;35.95832;-83.92454;691.11;NaN;0.0;35.33087;;0 / 0;17008;2022-10-28 14:11:23:461
2.3408;-9.9096;3.9425;2.8081;-8.8774;3.0785;1.8052;-4.1142;-0.2646;-0.1543;0.3312;0.1474;0.0;29.91;8.42;-36.04;267.07;64.86;-42.37;0.0;35.95832;-83.92454;691.11;NaN;0.0;35.33087;;0 / 0;17508;2022-10-28 14:11:23:961
2.7966;-7.8586;0.44;3.2243;-9.2384;0.6525;-1.0616;0.7112;0.0595;-0.6599;0.7324;-0.1257;1.3;19.86;15.54;-19.82;310.45;70.4;-78.56;0.0;35.95832;-83.92454;691.11;NaN;0.0;35.33087;;0 / 0;18008;2022-10-28 14:11:24:461
1.5852;-8.3342;1.7952;3.6003;-9.1136;0.3877;-1.473;0.3189;1.6792;-0.1781;0.6258;-0.2333;0.0;13.91;21.58;-2.66;347.82;68.33;-83.85;0.0;35.95832;-83.92454;691.11;NaN;0.0;35.33087;;0 / 0;18508;2022-10-28 14:11:24:961
2.4284;-12.1612;1.028;3.8269;-9.0265;0.2167;-1.4727;-3.0081;0.8292;-0.2838;0.8863;-0.4968;0.0;17.23;24.36;14.42;27.63;69.67;-86.93;0.0;35.95832;-83.92454;691.11;NaN;0.0;35.33087;;0 / 0;19008;2022-10-28 14:11:25:461
3.9153;-8.1293;-1.4222;3.237;-9.2547;-0.205;0.8347;1.9145;-0.9614;0.2161;0.1539;0.1209;0.0;7.18;19.71;36.19;73.09;70.69;-93.62;0.0;35.95832;-83.92454;691.11;NaN;0.0;35.33087;;0 / 0;19508;2022-10-28 14:11:25:961
2.7197;-8.9985;0.7516;3.3046;-9.2305;0.2172;0.6603;1.9165;2.3794;0.341;-0.0199;0.0471;0.0;-5.89;13.65;38.31;87.85;70.26;-86.24;0.0;35.95832;-83.92454;691.11;NaN;0.0;35.33087;;0 / 0;20008;2022-10-28 14:11:26:461
3.023;-12.5097;1.168;3.856;-9.0046;0.4686;-0.3789;-3.0479;0.7665;0.0104;0.9641;-0.8122;0.0;-18.28;8.38;31.39;106.57;66.67;-83.07;0.0;35.95832;-83.92454;691.11;NaN;0.0;35.33087;;0 / 0;20508;2022-10-28 14:11:26:961
4.4423;-7.5918;-0.5551;3.4572;-9.1756;0.165;1.0341;1.4765;-0.7245;0.2458;-0.0877;0.0097;0.0;-26.63;2.49;26.85;131.71;69.32;-89.43;0.0;35.95832;-83.92454;691.11;NaN;0.0;35.33087;;0 / 0;21008;2022-10-28 14:11:27:461
1.9762;-9.6844;1.2383;3.4182;-9.179;0.4818;-1.5994;0.2771;1.6891;-0.2037;0.5784;-0.2495;0.0;-24.77;2.61;30.08;118.73;69.39;-81.98;0.0;35.95832;-83.92454;691.11;NaN;0.0;35.33087;;0 / 0;21508;2022-10-28 14:11:27:961
2.1302;-13.4563;3.061;3.4806;-9.1509;0.5622;-0.1015;0.2542;-0.644;-0.0176;0.5682;-0.2059;0.0;-26.14;1.67;27.69;120.95;68.93;-80.82;0.0;35.95832;-83.92454;691.11;NaN;0.0;35.33087;;0 / 0;22008;2022-10-28 14:11:28:461
2.7257;-8.0704;-1.3896;3.1475;-9.2338;-1.0;-0.488;1.3459;0.2261;-0.1755;0.0815;0.0912;0.0;-29.46;-1.99;18.11;165.26;70.32;-107.63;0.0;35.95832;-83.92454;691.11;NaN;0.0;35.33087;;0 / 0;22508;2022-10-28 14:11:28:961
2.4159;-9.4522;1.4698;3.479;-9.1255;0.8904;-0.9835;-0.4898;0.3907;0.3166;0.3373;-0.2485;0.0;-25.42;-1.29;14.66;135.08;69.82;-77.37;2.0;35.95832;-83.92454;691.11;NaN;0.0;35.33087;;0 / 0;23008;2022-10-28 14:11:29:461
3.7131;-8.4586;2.0426;3.4581;-8.8712;2.3483;0.4055;0.3252;-0.4942;0.3335;0.0418;0.2045;0.0;-23.7;1.07;5.01;130.4;64.77;-55.82;0.0;35.95832;-83.92454;691.11;NaN;0.0;35.33087;;0 / 0;23508;2022-10-28 14:11:29:961
2.3554;-8.8696;3.0455;2.9086;-9.182;1.8444;-0.0682;-0.4707;0.6203;-1.2172;0.5308;-0.0987;0.0;-22.31;2.94;-3.43;152.61;69.44;-57.62;0.0;35.95832;-83.92454;691.11;NaN;0.0;35.33087;;0 / 0;24008;2022-10-28 14:11:30:461
4.3923;-11.8286;0.1618;3.2761;-9.242;0.1517;-0.0896;0.4903;-1.3548;0.0626;0.0758;0.009;0.0;-25.61;3.45;-4.43;186.74;70.46;-87.35;0.0;35.95832;-83.92454;691.11;NaN;0.0;35.33087;;0 / 0;24508;2022-10-28 14:11:30:961
3.795;-7.8141;1.9645;3.7952;-8.8218;1.9854;0.2051;0.6996;0.1027;0.284;-0.1161;-0.0407;0.0;-33.09;3.45;-10.33;169.45;64.56;-63.99;0.0;35.95832;-83.92454;691.11;NaN;0.0;35.33087;;0 / 0;25008;2022-10-28 14:11:31:461
3.9945;-11.5041;4.2299;3.5885;-8.6698;2.8509;1.1059;-3.7871;2.4115;-0.1555;-0.0704;0.4152;0.0;-38.53;4.63;-11.47;153.0;62.14;-51.53;0.0;35.95832;-83.92454;691.11;NaN;0.0;35.33087;;0 / 0;25507;2022-10-28 14:11:31:960
3.1448;-7.1626;-0.2997;3.7906;-9.0397;0.2914;-1.121;2.1812;-0.6091;-0.0053;-0.3002;0.0103;0.0;-35.62;11.83;-1.71;177.5;67.19;-84.84;0.0;35.95832;-83.92454;691.11;NaN;0.0;35.33087;;0 / 0;26009;2022-10-28 14:11:32:462
2.3438;-7.6071;1.1414;3.9295;-8.7782;1.9166;-0.7149;0.4071;0.9164;0.1636;-0.0328;-0.1681;0.0;-31.93;14.46;-1.03;146.58;63.52;-64.0;0.0;35.95832;-83.92454;691.11;NaN;0.0;35.33087;;0 / 0;26507;2022-10-28 14:11:32:960
4.7399;-10.5691;2.2322;4.1483;-8.5424;2.4474;0.6459;-1.0069;-1.1842;-0.2202;0.3386;-0.0179;0.0;-32.23;12.39;-9.66;159.96;59.71;-58.77;0.0;35.95832;-83.92454;691.11;NaN;0.0;35.33087;;0 / 0;27009;2022-10-28 14:11:33:462
2.9865;-7.7435;1.4539;3.4579;-9.1704;0.343;-0.5503;0.8334;0.8795;-0.3159;-0.3553;0.2123;0.0;-29.42;12.96;-13.61;205.06;69.25;-84.34;0.0;35.95832;-83.92454;691.11;NaN;0.0;35.33087;;0 / 0;27508;2022-10-28 14:11:33:961
3.3269;-7.7324;2.3575;3.5248;-9.0146;1.5757;-0.2322;0.6604;0.9743;0.5317;0.2249;-0.5159;0.0;-25.01;14.83;-13.61;191.3;69.0;-69.21;0.0;35.95832;-83.92454;691.11;NaN;0.0;35.33087;;0 / 0;28009;2022-10-28 14:11:34:462
4.4423;-8.4736;1.7961;3.7908;-8.35;3.4752;0.8495;-0.0931;-1.0712;0.1138;0.2476;0.0938;0.0;-24.06;4.86;-29.04;190.04;58.37;-47.49;0.0;35.95832;-83.92454;691.11;NaN;0.0;35.33087;;0 / 0;28508;2022-10-28 14:11:34:961
2.8729;-8.1476;2.1586;3.588;-9.0594;1.1059;0.2806;-0.1909;0.425;-0.96;-0.2199;0.0166;0.0;-23.47;-4.18;-39.69;216.22;67.0;-65.07;0.0;35.95832;-83.92454;691.11;NaN;0.0;35.33087;;0 / 0;29008;2022-10-28 14:11:35:461
1.8179;-8.3154;1.9214;3.8785;-9.0056;0.165;-1.3051;-2.5428;1.8202;-0.1975;-0.1182;-0.0119;0.0;-44.55;-9.13;-46.41;223.36;66.68;-87.56;0.0;35.95832;-83.92454;691.11;NaN;0.0;35.33087;;0 / 0;29507;2022-10-28 14:11:35:960
4.5972;-8.2705;0.382;3.812;-9.0141;0.6207;1.2142;0.5362;-0.1736;-0.1427;0.4361;0.1151;0.0;-59.42;-25.56;-50.47;209.2;66.53;-80.68;0.0;35.95832;-83.92454;691.11;NaN;0.0;35.33087;;0 / 0;30008;2022-10-28 14:11:36:461
3.0754;-8.1867;-0.1941;3.7316;-9.0671;0.1825;-0.648;1.1588;-0.0916;-0.8129;0.9909;0.1694;0.0;-45.06;-29.53;-38.81;213.88;67.61;-87.2;0.0;35.95832;-83.92454;691.11;NaN;0.0;35.33087;;0 / 0;30508;2022-10-28 14:11:36:961
1.9388;-9.315;3.1666;3.7654;-9.0545;-0.0896;-1.0809;-2.7533;1.5411;-0.426;0.6311;0.1519;0.0;-23.12;-18.37;-19.37;215.18;67.41;-91.36;0.0;35.95832;-83.92454;691.11;NaN;0.0;35.33087;;0 / 0;31008;2022-10-28 14:11:37:461
5.6297;-9.7391;-0.3341;3.7196;-9.0447;0.727;1.6848;-1.417;-1.0271;-0.4082;0.6783;-0.1389;0.0;-9.86;-14.4;0.92;168.53;67.26;-78.94;0.0;35.95832;-83.92454;691.11;NaN;0.0;35.33087;;0 / 0;31508;2022-10-28 14:11:37:961
3.9185;-7.7794;-0.4208;3.9148;-8.9911;0.0716;-0.8659;0.6778;0.2116;-0.4797;0.5628;0.1959;0.0;-9.71;-16.37;10.11;145.73;65.67;-87.52;0.0;35.95832;-83.92454;691.11;NaN;0.0;35.33087;;0 / 0;32008;2022-10-28 14:11:38:461
1.8915;-9.8734;3.9592;4.0877;-8.8923;0.6232;-1.8762;0.6042;3.1399;-0.3749;1.5262;-0.4768;0.0;-12.75;-18.53;11.94;142.52;65.06;-81.33;0.0;35.95832;-83.92454;691.11;NaN;0.0;35.33087;;0 / 0;32508;2022-10-28 14:11:38:961
4.4022;-8.1811;-0.3485;4.2748;-8.6645;1.6804;0.5185;0.6022;-1.1699;-0.2069;0.8642;0.0956;0.0;-5.89;-12.51;12.36;118.13;62.07;-68.54;0.0;35.95832;-83.92454;691.11;NaN;0.0;35.33087;;0 / 0;33008;2022-10-28 14:11:39:461
3.274;-8.3342;1.0645;3.6293;-9.1102;-0.0484;-1.032;0.7755;1.0391;-1.1208;-0.0515;-0.0991;0.0;0.08;-6.06;5.96;110.93;68.28;-90.76;0.0;35.95832;-83.92454;691.11;NaN;0.0;35.33087;;0 / 0;33508;2022-10-28 14:11:39:961
3.2291;-8.4197;1.9962;3.6868;-9.0081;1.1966;-1.3428;-1.1502;2.0696;0.5939;-0.0065;0.0399;0.0;0.88;1.58;14.33;70.39;67.21;-76.16;0.0;35.95832;-83.92454;691.11;NaN;0.0;35.33087;;0 / 0;34007;2022-10-28 14:11:40:460
3.428;-9.2201;1.6304;3.6982;-8.6292;2.8339;0.6991;-0.2423;-0.8673;0.3212;-0.1969;0.0381;0.0;4.46;5.49;19.18;39.51;61.63;-52.54;0.0;35.95832;-83.92454;691.11;NaN;0.0;35.33087;;0 / 0;34508;2022-10-28 14:11:40:961
2.3142;-6.3428;1.0992;3.5611;-9.136;0.1525;-0.8423;1.9758;1.6736;-0.4349;-0.3568;-0.0015;0.0;8.44;3.21;19.03;63.5;68.69;-87.55;0.0;35.95832;-83.92454;691.11;NaN;0.0;35.33087;;0 / 0;35008;2022-10-28 14:11:41:461
2.4517;-8.3465;2.8295;3.7751;-8.8846;1.7273;-1.2818;-0.0842;1.3481;0.688;-0.2714;-0.482;0.0;9.79;1.11;14.46;31.58;64.96;-65.41;0.0;35.95832;-83.92454;691.11;NaN;0.0;35.33087;;0 / 0;35507;2022-10-28 14:11:41:960
4.3962;-10.6217;1.6627;3.6841;-8.6141;2.8975;0.7099;-1.9827;-1.3502;0.0717;0.1502;-0.0371;0.0;4.14;1.33;5.44;14.07;61.04;-52.09;0.0;35.95832;-83.92454;691.11;NaN;0.0;35.33087;;0 / 0;36008;2022-10-28 14:11:42:461
2.5744;-8.097;-0.2593;3.3475;-9.2176;-0.018;-0.2755;1.3839;0.5975;-0.1568;-0.3455;0.3001;0.0;0.51;-3.22;2.33;92.69;70.04;-90.31;0.0;35.95832;-83.92454;691.11;NaN;0.0;35.33087;;0 / 0;36508;2022-10-28 14:11:42:961
3.5524;-7.5063;1.6774;3.7489;-8.9698;1.2883;-1.0865;0.8623;1.015;0.3775;0.3757;-0.5131;0.0;-1.41;-5.38;2.94;122.24;66.16;-71.03;0.0;35.95832;-83.92454;691.11;NaN;0.0;35.33087;;0 / 0;37008;2022-10-28 14:11:43:461
5.1063;-9.6383;3.737;4.1055;-8.5583;2.4637;0.7428;0.1983;-1.2628;-0.0042;0.0129;0.0212;0.0;-4.84;-4.09;0.28;155.69;60.77;-59.03;0.0;35.95832;-83.92454;691.11;NaN;0.0;35.33087;;0 / 0;37507;2022-10-28 14:11:43:960
2.0853;-5.3647;2.9064;4.56;-8.492;1.806;-2.561;3.1488;1.1335;-1.0033;-0.4781;-0.2681;0.0;-4.48;2.89;0.99;108.27;58.55;-59.71;2.0;35.95832;-83.92454;691.11;NaN;0.0;35.33087;;0 / 0;38008;2022-10-28 14:11:44:461
2.2869;-8.7826;2.4781;1.3397;-9.6814;0.8038;1.6497;1.0714;1.3701;0.6194;0.8412;0.1144;10.8;-0.53;14.81;9.71;53.93;80.83;-59.04;2.0;35.95832;-83.92454;691.11;NaN;0.0;35.33087;;0 / 0;38508;2022-10-28 14:11:44:961
3.7316;-10.3382;-0.8429;2.3024;-9.447;1.2742;-0.7573;0.8106;-0.1448;0.4586;0.135;0.5454;12.0;-5.68;16.22;5.72;75.99;74.43;-61.04;0.0;35.95832;-83.92454;691.11;NaN;0.0;35.33087;;0 / 0;39008;2022-10-28 14:11:45:461
1.4521;-8.2466;-2.1772;3.3869;-7.9398;-4.6539;-1.9033;1.24;1.734;-2.5326;-0.5266;-0.4092;1.3;-19.82;5.06;14.78;204.11;54.06;-143.95;0.0;35.95832;-83.92454;691.11;NaN;0.0;35.33087;;0 / 0;39508;2022-10-28 14:11:45:961
2.9258;-8.8403;-2.519;3.2836;-8.9468;-2.3113;-0.4457;0.1703;-0.1943;0.4472;0.2262;-0.3461;0.0;-16.71;-2.83;37.86;155.08;64.74;-132.35;0.0;35.95832;-83.92454;691.11;NaN;0.0;35.33087;;0 / 0;40007;2022-10-28 14:11:46:460
4.8398;-11.5992;1.797;2.8339;-9.3791;0.4136;2.1302;-0.9929;0.9184;-0.4733;0.6406;0.2516;0.0;-11.27;6.19;26.19;100.51;73.02;-81.7;0.0;35.95832;-83.92454;691.11;NaN;0.0;35.33087;;0 / 0;40508;2022-10-28 14:11:46:961
0.5758;-7.9176;-2.8729;3.5577;-8.7979;-2.4719;0.9086;-0.0501;-1.273;-0.0125;1.0552;0.4917;0.0;-6.66;4.07;20.79;138.32;63.53;-126.22;0.0;35.95832;-83.92454;691.11;NaN;0.0;35.33087;;0 / 0;41008;2022-10-28 14:11:47:461
2.3264;-8.1793;-0.2288;0.7302;-9.6264;-1.7231;-0.5498;2.1846;1.3709;0.2856;-0.0204;-1.7577;0.0;6.17;4.97;14.06;130.55;79.0;-157.04;0.0;35.95832;-83.92454;691.11;NaN;0.0;35.33087;;0 / 0;41508;2022-10-28 14:11:47:961
3.1642;-11.9022;-1.9208;2.4499;-9.4535;0.8946;1.4513;-1.3667;-2.1068;0.2831;0.4814;-0.3707;0.0;3.64;4.8;3.09;6.06;76.58;-60.43;0.0;35.95832;-83.92454;691.11;NaN;0.0;35.33087;;0 / 0;42008;2022-10-28 14:11:48:461
3.2186;-6.5354;-5.7622;1.8993;-8.889;-3.6809;0.9737;2.6062;-0.0774;0.5061;-0.3873;0.1239;0.0;-9.81;-9.67;5.74;204.91;65.02;-152.71;0.0;35.95832;-83.92454;691.11;NaN;0.0;35.33087;;0 / 0;42508;2022-10-28 14:11:48:961
-1.6672;-8.5801;-0.1223;-0.1778;-9.7568;-0.9716;-1.5322;1.4362;0.8703;1.1681;0.9995;0.2351;0.0;-0.66;-18.81;18.56;183.47;79.95;178.99;0.0;35.95832;-83.92454;691.11;NaN;0.0;35.33087;;0 / 0;43008;2022-10-28 14:11:49:461
-5.6402;-9.414;0.9529;-0.2899;-9.5062;-2.3914;-7.8046;-2.5651;1.0177;-0.815;3.8626;-0.1242;0.0;-2.1;-15.0;21.64;190.66;75.78;173.09;0.0;35.95832;-83.92454;691.11;NaN;0.0;35.33087;;0 / 0;43508;2022-10-28 14:11:49:961
-3.2169;-12.6918;-1.1952;-0.7149;-9.7758;-0.3055;0.1715;-2.2894;-2.7352;-0.1582;-0.4188;-0.8754;0.0;-24.88;-13.74;8.03;353.89;79.36;77.66;0.0;35.95832;-83.92454;691.11;NaN;0.0;35.33087;;0 / 0;44008;2022-10-28 14:11:50:461
0.6185;-9.5557;-1.046;-0.3346;-9.8009;-0.01;0.9051;0.8459;-1.1343;0.6341;-0.418;0.0988;0.0;-36.17;-15.77;1.07;356.64;88.04;91.71;0.0;35.95832;-83.92454;691.11;NaN;0.0;35.33087;;0 / 0;44508;2022-10-28 14:11:50:961
-3.6972;-7.8817;1.8099;0.2537;-9.5035;-2.4061;-4.1972;0.9857;4.2654;-0.8525;-0.7928;0.1345;0.0;-41.79;-19.54;-1.63;251.68;77.63;-164.21;0.0;35.95832;-83.92454;691.11;NaN;0.0;35.33087;;0 / 0;45007;2022-10-28 14:11:51:460
-1.6546;-9.4328;-0.25;-0.6663;-9.672;-1.4759;-0.744;-5.3667;-0.2289;-1.2833;-2.1217;-0.038;0.0;-43.18;-22.16;-41.06;336.23;80.5;155.7;0.0;35.95832;-83.92454;691.11;NaN;0.0;35.33087;;0 / 0;45508;2022-10-28 14:11:51:961
-0.1448;-9.6072;-1.4022;-0.6201;-9.7817;-0.3231;-0.016;0.3532;-0.5306;-0.029;-2.2251;0.139;0.0;-70.93;-20.42;-18.56;347.18;85.91;117.52;0.0;35.95832;-83.92454;691.11;NaN;0.0;35.33087;;0 / 0;46008;2022-10-28 14:11:52:461
-2.1724;-8.9384;1.2132;0.3147;-9.545;-2.228;-2.2234;0.2617;3.848;-0.5185;-0.8211;-0.169;0.0;-59.42;-22.54;9.0;248.97;76.74;-171.96;0.0;35.95832;-83.92454;691.11;NaN;0.0;35.33087;;0 / 0;46508;2022-10-28 14:11:52:961
0.9826;-15.2438;-0.6939;-0.4996;-9.7182;-1.2158;1.8062;-4.2649;0.6949;0.0844;-1.7321;0.1831;0.0;-38.29;-22.69;-1.84;281.15;82.19;167.1;0.0;35.95832;-83.92454;691.11;NaN;0.0;35.33087;;0 / 0;47008;2022-10-28 14:11:53:461
-0.8309;-8.8376;-0.5171;-0.5301;-9.7864;-0.3415;0.4936;0.1339;0.04;0.2008;-2.05;-0.0104;1.3;-23.61;-20.53;11.87;298.04;86.31;122.79;0.0;35.95832;-83.92454;691.11;NaN;0.0;35.33087;;0 / 0;47507;2022-10-28 14:11:53:960
-1.8688;-9.2815;0.3607;-0.0219;-9.7215;-1.2895;-1.3517;0.6668;-3.0585;-0.6047;3.6631;-0.2025;0.0;-20.23;-11.51;3.26;258.13;82.44;179.03;0.0;35.95832;-83.92454;691.11;NaN;0.0;35.33087;;0 / 0;48008;2022-10-28 14:11:54:461
1.0229;-15.379;-1.0119;-0.627;-9.7076;-1.241;1.2638;-3.0304;0.6146;-0.8801;-2.3293;0.1835;1.3;-15.22;-6.04;-13.89;338.77;81.85;153.2;0.0;35.95832;-83.92454;691.11;NaN;0.0;35.33087;;0 / 0;48508;2022-10-28 14:11:54:961
0.4681;-9.7041;-0.9257;-0.3081;-9.8011;-0.1176;-1.3337;1.4287;-2.1287;0.1713;-0.8463;0.1489;0.0;-20.33;-6.71;-12.13;350.72;88.48;130.17;0.0;35.95832;-83.92454;691.11;NaN;0.0;35.33087;;0 / 0;49008;2022-10-28 14:11:55:461
-0.0203;-11.1251;-6.2662;-0.2051;-9.7745;-0.7661;-1.5493;-0.242;0.0821;-1.9149;2.8013;0.3887;0.0;-25.5;-11.44;-7.26;298.31;85.36;165.01;2.0;35.95832;-83.92454;691.11;NaN;0.0;35.33087;;0 / 0;49508;2022-10-28 14:11:55:961
1.4465;-9.1214;-1.2709;-0.3855;-9.7918;-0.3784;2.4092;0.2811;-0.5859;1.1629;0.2985;-0.0839;0.0;-13.37;-8.42;-11.33;355.65;86.84;134.47;2.0;35.95832;-83.92454;691.11;NaN;0.0;35.33087;;0 / 0;50009;2022-10-28 14:11:56:462
-1.311;-9.8276;-1.6525;-0.4062;-9.7808;-0.5835;-0.8723;-0.4538;-1.1556;0.4084;0.8672;-0.2592;0.0;-10.87;-8.81;-13.88;356.56;85.84;145.15;2.0;35.95832;-83.92454;691.11;NaN;0.0;35.33087;;0 / 0;50508;2022-10-28 14:11:56:961
-1.2706;-9.6553;-5.7802;-0.4087;-9.7908;-0.3797;-1.8262;-1.8953;0.6868;-0.5682;0.5142;0.3513;0.0;-19.72;-14.08;-9.45;76.31;87.63;39.4;2.0;35.95832;-83.92454;691.11;NaN;0.0;35.33087;;0 / 0;51008;2022-10-28 14:11:57:461
0.1475;-8.9973;-1.0896;0.2075;-9.7652;-0.8765;-0.2146;0.5946;0.5857;0.3124;0.2296;0.0357;0.0;-16.16;-15.39;-12.51;292.13;84.73;-166.68;2.0;35.95832;-83.92454;691.11;NaN;0.0;35.33087;;0 / 0;51508;2022-10-28 14:11:57:961
0.2907;-7.8742;-0.5118;-1.1378;-9.7352;-0.3178;1.0454;1.7853;0.5655;0.465;-1.2109;-0.2239;0.0;-14.44;-14.57;-9.94;22.37;83.08;105.61;2.0;35.95832;-83.92454;691.11;NaN;0.0;35.33087;;0 / 0;52008;2022-10-28 14:11:58:461
-0.5722;-13.0849;-0.2019;-0.4543;-9.701;1.3617;-0.3041;-2.9055;-1.483;0.0387;0.3435;0.0888;0.0;-7.09;-13.59;-2.81;109.4;81.58;18.45;2.0;35.95832;-83.92454;691.11;NaN;0.0;35.33087;;0 / 0;52508;2022-10-28 14:11:58:961
-0.6951;-9.2013;-0.7786;0.315;-9.7343;-1.1466;-1.0405;0.5168;0.4634;0.3095;2.3604;-0.5527;0.0;3.0;-9.26;-2.85;74.56;81.7;167.94;2.0;35.95832;-83.92454;691.11;NaN;0.0;35.33087;;0 / 1;53009;2022-10-28 14:11:59:462
1.5356;-9.5716;-1.1868;-1.0002;-9.7203;-0.8279;4.525;-7.4716;-0.816;0.7746;-0.5382;-0.4658;0.0;6.88;-6.69;-6.51;100.62;82.39;129.61;2.0;35.95832;-83.92454;691.11;NaN;0.0;35.33087;;0 / 1;53508;2022-10-28 14:11:59:961
0.134;-8.84;-0.6048;-0.3246;-9.8013;0.0185;0.7902;-0.227;-1.5456;-0.1215;-0.0122;0.0881;0.0;-6.19;-7.67;-20.03;77.27;88.1;86.74;2.0;35.95832;-83.92454;691.11;NaN;0.0;35.33087;;0 / 1;54007;2022-10-28 14:12:00:460
-4.0424;-12.5985;-0.0176;0.5854;-9.6704;-1.52;-0.5791;-1.8171;-0.9679;-2.9557;1.3251;-0.4396;0.0;-21.88;-14.53;-20.46;286.32;80.44;-158.94;2.0;35.95832;-83.92454;691.11;NaN;0.0;35.33087;;0 / 1;54508;2022-10-28 14:12:00:961
3.4953;-8.5935;-2.5056;0.9993;-9.5481;-2.0015;2.3292;0.9161;-0.5197;-0.2908;-1.4981;-0.5477;0.0;-19.37;-20.81;-16.99;282.18;77.88;-160.57;2.0;35.95832;-83.92454;691.11;NaN;0.0;35.33087;;0 / 1;55007;2022-10-28 14:12:01:460
1.5272;-9.5716;-0.5375;0.2996;-9.7301;-1.1855;0.8203;-0.0654;0.7668;0.244;0.3128;0.3105;0.0;-12.79;-21.67;-12.52;292.69;82.84;-165.82;2.0;35.95832;-83.92454;691.11;NaN;0.0;35.33087;;0 / 1;55508;2022-10-28 14:12:01:961
-7.2691;-12.6619;-5.0665;0.5129;-9.6504;-1.6667;-1.217;-1.7205;0.7806;-2.1538;4.1135;0.6078;0.0;-11.4;-23.91;-15.97;296.53;79.76;-162.9;2.0;35.95832;-83.92454;691.11;NaN;0.0;35.33087;;0 / 2;56007;2022-10-28 14:12:02:460
3.7277;-9.7857;-1.3926;-1.2303;-9.6804;-0.9729;4.4242;0.4601;-0.1147;1.466;0.6181;0.7259;0.0;9.51;-17.36;-17.74;88.42;80.8;128.34;2.0;35.95832;-83.92454;691.11;NaN;0.0;35.33087;;0 / 2;56508;2022-10-28 14:12:02:961
0.1041;-8.5208;0.7143;0.1572;-9.7857;-0.6212;0.0221;1.1788;1.3269;0.2211;-0.8041;-0.0272;0.0;6.54;-13.61;-19.11;3.23;84.49;-162.78;2.0;35.95832;-83.92454;691.11;NaN;0.0;35.33087;;0 / 2;57008;2022-10-28 14:12:03:461
-0.9532;-10.0932;-3.5698;0.818;-9.6649;-1.4463;-3.033;0.1923;-6.8678;-1.6418;4.9035;-0.0086;0.0;-8.61;-3.94;-15.83;298.92;80.24;-150.51;2.0;35.95832;-83.92454;691.11;NaN;0.0;35.33087;;0 / 2;57508;2022-10-28 14:12:03:961
1.25;-9.3676;-1.4946;1.3374;-9.6113;-1.4156;-0.7483;0.8533;0.8041;0.161;-0.0684;0.1556;0.0;-11.44;6.96;-10.11;274.46;77.62;-136.38;2.0;35.95832;-83.92454;691.11;NaN;0.0;35.33087;;0 / 3;58008;2022-10-28 14:12:04:461
-0.4872;-9.5542;0.3446;0.032;-9.738;-1.1583;-1.0762;-0.296;0.6088;0.1347;0.5378;-0.0037;0.0;-11.77;9.08;-12.52;317.83;83.21;-178.42;2.0;35.95832;-83.92454;691.11;NaN;0.0;35.33087;;0 / 3;58508;2022-10-28 14:12:04:961
0.9885;-9.3215;-0.8629;1.0873;-9.7229;-0.6737;0.1113;0.2802;-0.8379;-0.3391;1.651;0.1457;0.0;-20.23;8.79;-12.52;238.2;82.85;-112.68;2.0;35.95832;-83.92454;691.11;NaN;0.0;35.33087;;0 / 4;59008;2022-10-28 14:12:05:461
0.7152;-9.0616;-1.1213;2.5198;-9.4365;-0.8795;-1.8258;0.0229;-0.3246;0.4034;0.8013;-0.4861;0.0;-16.87;12.23;-15.38;249.42;74.21;-109.24;2.0;35.95832;-83.92454;691.11;NaN;0.0;35.33087;;0 / 4;59508;2022-10-28 14:12:05:961
0.7935;-10.5706;-1.5772;0.7979;-9.4786;-2.3855;0.2954;-1.1749;0.5348;0.3326;1.9483;0.4316;0.0;-22.48;13.2;-10.87;289.46;73.63;-165.28;2.0;35.95832;-83.92454;691.11;NaN;0.0;35.33087;;0 / 4;60009;2022-10-28 14:12:06:462
0.0344;-9.5315;0.673;0.2839;-9.7538;-0.9766;-0.6233;-0.1075;0.573;-0.0103;1.0991;0.0972;0.0;-17.59;18.77;-4.12;267.8;83.92;-158.96;2.0;35.95832;-83.92454;691.11;NaN;0.0;35.33087;;0 / 4;60508;2022-10-28 14:12:06:961
0.446;-8.7721;-0.9951;2.0615;-9.5358;-0.9941;-1.2616;1.0687;-0.1906;0.1365;-0.3644;-0.5523;0.0;-12.79;20.61;1.63;216.17;77.34;-122.23;0.0;35.95832;-83.92454;691.11;NaN;0.0;35.33087;;0 / 4;61008;2022-10-28 14:12:07:461
2.4849;-9.1493;-1.3956;0.5415;-9.5377;-2.2155;2.5778;-2.641;0.948;-0.4534;-0.7917;0.1665;0.0;-10.44;21.19;13.43;214.32;76.55;-166.27;0.0;35.95832;-83.92454;691.11;NaN;0.0;35.33087;;0 / 4;61509;2022-10-28 14:12:07:962
1.5661;-9.2139;-0.0595;0.2436;-9.7551;-0.9743;1.3401;0.7199;0.9271;-0.8184;-0.5618;0.3984;0.0;-1.18;21.96;15.0;140.84;85.51;-141.26;0.0;35.95832;-83.92454;691.11;NaN;0.0;35.33087;;0 / 4;62008;2022-10-28 14:12:08:461
-0.6727;-9.7382;-0.0395;1.4184;-9.6327;-1.1702;-1.1586;0.1495;1.5501;0.4087;1.3959;-0.8605;0.0;4.78;19.54;15.66;99.01;79.19;-129.52;0.0;35.95832;-83.92454;691.11;NaN;0.0;35.33087;;0 / 4;62508;2022-10-28 14:12:08:961
3.7929;-14.0007;-2.3402;0.6887;-9.5411;-2.1594;2.139;-1.3944;0.8244;-0.3925;-1.3196;0.1544;0.0;-0.36;15.21;13.69;155.9;76.64;-162.31;0.0;35.95832;-83.92454;691.11;NaN;0.0;35.33087;;0 / 5;63008;2022-10-28 14:12:09:461
1.4746;-9.3491;-0.1531;0.0576;-9.7794;-0.7283;1.6448;0.1208;0.4406;-0.624;-0.5785;0.2419;0.0;4.24;9.34;8.21;146.47;85.73;-175.48;0.0;35.95832;-83.92454;691.11;NaN;0.0;35.33087;;0 / 5;63508;2022-10-28 14:12:09:961
0.7759;-8.5834;-0.6147;-0.6245;-9.7452;-0.9012;0.0068;0.6793;-1.2406;-0.7346;1.8729;-0.1333;0.0;7.09;7.09;4.76;197.66;84.59;109.29;2.0;35.95832;-83.92454;691.11;NaN;0.0;35.33087;;0 / 5;64008;2022-10-28 14:12:10:461
1.7396;-8.2899;-0.6326;1.2968;-9.7086;-0.4817;-0.0279;2.1014;-0.0288;-1.0604;-0.1783;0.6141;0.0;3.84;8.48;2.44;38.21;81.89;-110.38;2.0;35.95832;-83.92454;691.11;NaN;0.0;35.33087;;0 / 5;64508;2022-10-28 14:12:10:961
-3.2127;-9.5046;-0.4669;1.5518;-9.6723;0.4582;-6.696;0.7055;-3.2779;-1.1891;2.2249;0.5463;0.0;4.99;5.06;4.05;19.94;80.5;-73.55;2.0;35.95832;-83.92454;691.11;NaN;0.0;35.33087;;0 / 5;65008;2022-10-28 14:12:11:461
0.1633;-14.1036;-2.5693;0.1999;-9.7947;-0.4401;0.8812;-4.1124;-1.9596;0.0571;0.4501;-0.1978;0.0;4.11;4.24;5.74;120.5;87.17;-155.57;2.0;35.95832;-83.92454;691.11;NaN;0.0;35.33087;;0 / 5;65507;2022-10-28 14:12:11:960
1.101;-8.5011;-1.0208;1.8822;-9.5235;-1.3893;-0.8336;0.8413;0.4148;0.123;-0.3848;-0.3589;0.0;-3.11;-0.64;-0.92;234.71;76.63;-129.02;2.0;35.95832;-83.92454;691.11;NaN;0.0;35.33087;;0 / 5;66008;2022-10-28 14:12:12:461
-0.9165;-9.4454;0.1092;1.2879;-9.6904;-0.7794;-0.5733;-2.0654;-0.413;0.8378;1.1642;-0.2661;0.0;-7.88;-6.58;2.29;218.42;78.15;-148.12;2.0;35.95832;-83.92454;691.11;NaN;0.0;35.33087;;0 / 5;66508;2022-10-28 14:12:12:961
-0.7172;-9.1367;1.9944;-0.6887;-9.7551;-0.7308;0.0867;0.7314;2.2452;-0.118;0.6681;0.3082;0.0;-1.65;-3.11;-5.91;26.21;84.12;136.7;2.0;35.95832;-83.92454;691.11;NaN;0.0;35.33087;;0 / 5;67008;2022-10-28 14:12:13:461
0.632;-8.9815;-2.5968;1.2753;-9.7219;-0.1713;-0.9593;0.7282;-1.3063;0.4142;1.6123;-0.8896;0.0;-2.46;1.14;-3.79;252.84;82.46;-97.65;2.0;35.95832;-83.92454;691.11;NaN;0.0;35.33087;;0 / 5;67508;2022-10-28 14:12:13:961
2.6632;-8.4449;-0.795;1.1244;-9.6132;-1.5785;1.7784;1.3328;0.9011;-0.2257;-0.8319;0.3723;0.0;-11.79;4.31;-8.23;262.57;78.4;-135.49;2.0;35.95832;-83.92454;691.11;NaN;0.0;35.33087;;0 / 5;68008;2022-10-28 14:12:14:461
-1.0158;-9.7789;0.2133;2.1867;-9.5042;-1.0293;-3.3973;-0.5672;1.6067;-1.1899;1.1334;0.5439;0.0;-18.39;1.84;-17.12;250.25;75.73;-115.21;0.0;35.95832;-83.92454;691.11;NaN;0.0;35.33087;;0 / 5;68508;2022-10-28 14:12:14:961
0.6939;-12.8521;-1.1731;-0.0172;-9.7851;-0.6488;0.9711;-1.5755;-0.4158;0.6118;1.0794;0.3066;0.0;-7.99;8.7;-21.26;341.12;86.21;178.48;0.0;35.95832;-83.92454;691.11;NaN;0.0;35.33087;;0 / 5;69008;2022-10-28 14:12:15:461
1.2766;-8.6536;-0.8755;2.0909;-9.5785;-0.2271;-0.8711;0.8445;-0.6474;-0.3598;0.4991;0.18;0.0;-6.34;14.1;-21.56;268.72;77.62;-96.2;0.0;35.958504;-83.92462;;NaN;;129.03226;;0 / 5;69508;2022-10-28 14:12:15:961
0.4839;-8.7431;-0.5551;1.5791;-9.6217;-1.0484;-1.087;0.902;0.4791;0.7706;1.927;-0.4036;0.0;-8.27;18.21;-13.05;306.56;77.43;-146.75;0.0;35.958504;-83.92462;;NaN;;129.03226;;0 / 5;70008;2022-10-28 14:12:16:461
2.0189;-10.8419;0.475;-0.1072;-9.697;-1.4583;2.0936;-0.5675;1.7058;0.0996;0.0168;-0.1246;0.0;-6.23;17.38;-11.92;340.98;81.42;175.79;0.0;35.958504;-83.92462;;NaN;;129.03226;;0 / 5;70507;2022-10-28 14:12:16:960
0.8835;-8.5786;-0.6173;2.3608;-9.5117;-0.3519;-2.0302;1.1005;-0.4261;0.0426;0.5963;-0.3984;0.0;-8.36;17.59;-12.11;263.11;75.91;-98.48;0.0;35.958504;-83.92462;;NaN;;129.03226;;0 / 6;71008;2022-10-28 14:12:17:461
0.0227;-9.0075;0.1968;1.3309;-9.5755;-1.6461;0.439;-1.3606;-0.2802;-0.0987;2.2362;0.0406;0.0;-15.15;18.36;-11.42;279.26;77.53;-141.04;0.0;35.958504;-83.92462;;NaN;;129.03226;;0 / 6;71508;2022-10-28 14:12:17:961
0.9428;-9.2653;0.3703;-0.1254;-9.7545;-1.0018;1.0941;0.4391;1.4024;-0.2326;0.6806;0.3308;0.0;-16.14;21.04;-17.12;319.2;84.14;-179.16;0.0;35.958504;-83.92462;;NaN;;129.03226;;0 / 6;72008;2022-10-28 14:12:18:461
0.3625;-9.0858;1.0376;1.0659;-9.7061;-0.9088;-1.0429;1.1203;1.9208;0.0812;-0.5983;-0.7962;0.0;-21.36;25.86;-14.4;275.55;83.41;-145.1;0.0;35.958504;-83.92462;;NaN;;129.03226;;0 / 6;72507;2022-10-28 14:12:18:960
2.889;-13.9098;-0.824;1.4042;-9.5805;-1.5534;0.1789;-0.2484;0.4079;-1.1416;-0.5444;0.9157;0.0;-49.78;23.06;4.61;226.99;77.67;-137.89;0.0;35.958504;-83.92462;;NaN;;129.03226;;0 / 6;73008;2022-10-28 14:12:19:461
1.5508;-9.507;-0.0966;0.9774;-9.7578;-0.005;-2.6468;0.6952;-3.9005;-0.7214;1.133;0.7142;0.0;-52.89;17.29;37.2;144.36;84.28;-90.29;0.0;35.958504;-83.92462;;NaN;;129.03226;;0 / 6;73508;2022-10-28 14:12:19:961
-2.4015;-14.0767;-4.4492;0.0682;-9.7623;-0.9296;-2.0872;-4.008;-3.1148;-0.7596;1.3192;0.1513;0.0;-35.55;9.13;41.23;208.48;87.82;-167.01;0.0;35.958504;-83.92462;;NaN;;129.03226;;0 / 6;74008;2022-10-28 14:12:20:461
1.3642;-8.4882;-0.7436;2.4656;-9.4638;-0.7259;-1.2009;0.7372;0.1407;-0.4155;-0.5063;0.1754;0.0;-18.88;1.54;34.31;134.02;74.81;-106.4;0.0;35.958504;-83.92462;;NaN;;129.03226;;0 / 6;74507;2022-10-28 14:12:20:960
0.9808;-9.5297;-0.9218;1.6363;-9.6257;-0.9161;-0.3846;1.1087;-0.0961;0.3644;1.706;-0.7187;0.0;-5.77;2.21;33.24;150.33;80.02;-140.7;0.0;35.958504;-83.92462;;NaN;;129.03226;;0 / 6;75008;2022-10-28 14:12:21:461
2.834;-12.4708;0.2653;-0.4047;-9.7291;-1.1621;3.0441;-0.6696;1.8371;0.4686;-0.8019;-0.2185;0.0;-7.11;-5.96;30.34;211.8;82.79;160.8;0.0;35.958504;-83.92462;;NaN;;129.03226;;0 / 6;75508;2022-10-28 14:12:21:961
0.5557;-9.0383;-0.4433;2.4085;-9.5048;-0.1703;-2.3245;0.587;-0.1829;0.2644;1.0365;-0.5807;0.0;-7.97;-14.44;31.41;118.36;76.3;-99.23;0.0;35.958504;-83.92462;;NaN;;129.03226;;0 / 7;76008;2022-10-28 14:12:22:461
0.2303;-9.9996;0.099;1.5923;-9.6467;-0.7585;-0.7281;0.019;0.0831;0.356;2.2276;-0.3681;0.0;-8.31;-23.27;36.41;159.02;79.77;-144.52;0.0;35.958504;-83.92462;;NaN;;129.03226;;0 / 7;76507;2022-10-28 14:12:22:960
2.0249;-9.14;1.0337;0.4521;-9.7189;-1.2283;1.4657;0.254;2.4469;-0.0055;-0.415;0.3528;0.0;-11.42;-24.45;30.64;173.08;81.27;-152.86;0.0;35.958504;-83.92462;;NaN;;129.03226;;0 / 7;77008;2022-10-28 14:12:23:461
1.2045;-9.7896;-2.2819;1.9171;-9.6173;0.0536;-0.9433;1.0664;-0.8529;0.1578;1.6369;-0.8087;0.0;-11.96;-21.66;21.11;125.99;78.72;-88.4;2.0;35.958504;-83.92462;;NaN;;129.03226;;0 / 7;77507;2022-10-28 14:12:23:960
4.6083;-12.1262;-2.4278;0.1799;-9.7596;-0.9423;3.2297;-0.2638;-0.778;0.4477;-1.0709;0.7162;0.0;-11.89;-22.22;9.19;208.95;83.29;-160.42;2.0;35.958504;-83.92462;;NaN;;129.03226;;0 / 7;78008;2022-10-28 14:12:24:461
2.3058;-9.7358;-1.5287;1.7646;-9.5457;-1.3917;-0.8594;-0.0903;0.26;-0.4283;0.5339;0.4884;0.0;2.12;-21.19;-6.88;282.39;76.75;-128.26;2.0;35.958504;-83.92462;;NaN;;129.03226;;0 / 7;78507;2022-10-28 14:12:24:960
2.336;-8.3384;-4.0839;2.985;-9.3128;-0.7294;0.072;0.2757;-2.5181;0.8609;0.8066;-1.6871;0.0;-3.07;29.76;-32.1;306.75;76.61;-122.71;0.0;35.958504;-83.92462;;NaN;;129.03226;;0 / 7;79008;2022-10-28 14:12:25:461
3.9763;-10.0822;-2.2561;0.6212;-9.714;-1.1925;3.5773;-1.7182;-0.1937;0.7517;-1.5543;0.9922;0.0;-17.93;24.38;-52.41;315.53;82.12;-152.48;0.0;35.958504;-83.92462;;NaN;;129.03226;;0 / 7;79508;2022-10-28 14:12:25:961
2.1347;-9.1869;-1.1683;1.5884;-9.6211;-1.0401;-0.9216;0.371;-0.9803;-0.9377;-0.0208;0.9734;0.8;-24.96;-6.43;-63.11;280.39;78.84;-123.22;0.0;35.958504;-83.92462;;NaN;;129.03226;;0 / 7;80008;2022-10-28 14:12:26:461
0.8492;-10.8015;-0.248;2.1771;-9.5491;-0.4949;-0.1843;-1.5055;0.3751;0.9203;3.0613;-1.3345;0.0;-24.84;-1.84;-60.6;260.37;76.84;-102.81;0.0;35.958504;-83.92462;;NaN;;129.03226;;0 / 7;80508;2022-10-28 14:12:26:961
3.0209;-9.082;-2.1903;0.9956;-9.5682;-1.9049;1.9342;0.4695;0.1323;0.0426;-0.9059;0.5106;0.0;-26.21;-6.99;-39.49;288.62;76.48;-144.75;0.0;35.958515;-83.92462;692.47;NaN;0.0;231.25636;;0 / 8;81007;2022-10-28 14:12:27:460
0.9;-9.6972;-1.3343;1.6778;-9.6618;0.0668;-3.618;1.8853;-3.137;-1.5561;0.5517;1.2312;0.8;-28.18;-8.31;-28.42;221.81;80.14;-87.72;0.0;35.958515;-83.92462;692.47;NaN;0.0;231.25636;;0 / 8;81508;2022-10-28 14:12:27:961
-0.1834;-14.3584;-2.6892;0.5312;-9.7922;0.0423;0.6121;-1.964;-1.8694;1.1542;-0.6121;0.0257;0.0;-21.82;-7.8;-21.81;219.97;86.88;-85.45;0.0;35.958515;-83.92462;692.47;NaN;0.0;231.25636;;4 / 8;82008;2022-10-28 14:12:28:461
1.212;-8.167;-0.868;2.9022;-9.3671;-0.0699;-1.8556;1.338;-0.7786;0.1889;-0.2056;0.1984;0.0;-19.22;-13.35;-16.43;217.27;72.78;-91.38;0.0;35.958515;-83.92462;692.47;NaN;0.0;231.25636;;4 / 8;82508;2022-10-28 14:12:28:961
-1.8885;-8.9342;1.2778;1.3719;-9.6497;-1.0822;-0.6491;1.882;0.6779;0.5257;1.5946;-0.4549;1.3;-16.01;-13.22;-18.41;281.48;78.72;-149.38;0.0;35.958515;-83.92462;692.47;NaN;0.0;231.25636;;4 / 8;83008;2022-10-28 14:12:29:461
2.6079;-12.5213;-0.5904;-0.2152;-9.7854;-0.6077;2.5626;-1.2605;1.3462;0.1259;-0.9412;0.3179;0.0;-13.63;-8.1;-20.36;344.14;86.23;160.5;2.0;35.958515;-83.92462;692.47;NaN;0.0;231.25636;;4 / 8;83508;2022-10-28 14:12:29:961
0.8207;-8.5265;-1.1216;2.3875;-9.507;-0.2955;-1.544;0.2584;-0.9844;0.2269;0.7642;-0.6822;0.0;-17.91;-2.31;-20.31;235.03;75.8;-97.05;2.0;35.958515;-83.92462;692.47;NaN;0.0;231.25636;;4 / 8;84009;2022-10-28 14:12:30:462
0.6015;-8.8361;0.4633;1.4035;-9.5368;-1.8025;-0.562;0.8517;1.6785;-0.0851;2.873;-0.0479;1.3;-32.03;4.78;-10.69;253.45;76.53;-142.1;2.0;35.958515;-83.92462;692.47;NaN;0.0;231.25636;;4 / 8;84508;2022-10-28 14:12:30:961
1.55;-11.4817;1.3588;-0.1461;-9.7619;-0.9247;1.2752;0.1736;1.8764;-0.1684;0.5624;0.5096;0.0;-30.15;5.42;-4.14;271.57;84.28;-173.04;2.0;35.958515;-83.92462;692.47;NaN;0.0;231.25636;;4 / 8;85009;2022-10-28 14:12:31:462
0.9811;-7.9926;-1.2888;2.609;-9.4502;0.24;-2.1828;0.1656;-1.0889;0.3522;0.3203;-0.4745;0.0;-24.67;-1.91;-2.38;179.31;74.5;-84.74;2.0;35.958515;-83.92462;692.47;NaN;0.0;231.25636;;4 / 8;85508;2022-10-28 14:12:31:961
1.6914;-7.7677;-1.6202;0.5252;-9.6782;-1.4923;2.6362;0.0515;-0.4189;0.4833;-0.4885;-0.0983;0.0;-22.22;-12.64;-1.71;250.84;80.72;-160.61;2.0;35.958515;-83.92462;692.47;NaN;0.0;231.25636;;4 / 8;86008;2022-10-28 14:12:32:461
2.0306;-10.2021;0.9873;0.0993;-9.7045;-1.4086;1.7607;-0.3111;2.1392;-0.3744;0.4672;0.409;0.0;-18.13;-19.33;-4.69;272.96;81.72;-175.97;2.0;35.958515;-83.92462;692.47;NaN;0.0;231.25636;;4 / 8;86508;2022-10-28 14:12:32:961
0.3311;-7.5553;-0.1759;2.1737;-9.533;-0.7532;-1.834;1.9976;0.5701;0.0667;-0.2297;-0.7812;0.0;-14.64;-45.26;-8.79;218.46;78.96;-114.95;2.0;35.958515;-83.92462;692.47;NaN;0.0;231.25636;;4 / 8;87009;2022-10-28 14:12:33:462
2.254;-8.8929;-1.7393;0.4493;-9.6881;-1.4524;2.0775;0.283;-0.0973;-0.1142;0.6996;0.16;0.0;-13.44;-51.96;-18.02;286.13;81.08;-162.81;2.0;35.958515;-83.92462;692.47;NaN;0.0;231.25636;;4 / 8;87508;2022-10-28 14:12:33:961
1.9247;-9.6129;1.7348;0.5191;-9.7089;-1.2802;1.0587;-0.0401;1.4017;-0.6021;2.0829;0.4645;0.2;-12.77;-53.51;-22.41;290.86;81.9;-157.93;2.0;35.958515;-83.92462;692.47;NaN;0.0;231.25636;;4 / 8;88008;2022-10-28 14:12:34:461
0.8557;-8.7036;0.1711;-0.0336;-9.7745;-0.7922;2.0645;0.607;0.1163;-0.2673;0.5601;-0.8372;0.0;-10.8;-51.52;-20.49;24.27;84.2;132.47;2.0;35.958515;-83.92462;692.47;NaN;0.0;231.25636;;4 / 8;88507;2022-10-28 14:12:34:960
1.8724;-8.6931;0.0553;1.4296;-9.675;-0.7222;0.5113;0.8265;0.7939;-0.5728;0.3197;0.7416;0.0;-13.65;-53.46;-19.86;229.54;78.26;-103.82;2.0;35.958515;-83.92462;692.47;NaN;0.0;231.25636;;4 / 8;89008;2022-10-28 14:12:35:461
-4.4665;-9.4454;0.8841;2.4952;-9.4839;-0.0059;-6.4617;-1.7282;0.5392;-0.441;2.2163;0.2034;0.8;-18.56;-60.96;-15.13;203.96;75.26;-90.14;2.0;35.958515;-83.92462;692.47;NaN;0.0;231.25636;;4 / 8;89508;2022-10-28 14:12:35:961
1.1536;-15.3951;-3.6676;-0.1511;-9.7732;-0.7945;1.566;-4.0909;-2.1147;0.3112;1.005;-0.4037;0.0;-23.14;-62.55;-14.1;320.65;83.72;151.15;2.0;35.958515;-83.92462;692.47;NaN;0.0;231.25636;;4 / 8;90007;2022-10-28 14:12:36:460
1.7976;-9.5806;-0.7923;1.9943;-9.5866;-0.5395;-0.9111;0.5622;0.1428;-0.465;-0.2204;0.4417;0.0;-30.64;-65.51;-22.12;218.0;77.84;-105.14;2.0;35.958515;-83.92462;692.47;NaN;0.0;231.25636;;4 / 8;90508;2022-10-28 14:12:36:961
-2.9958;-9.0948;-1.6149;1.1005;-9.7429;0.1853;-4.0855;0.5059;-2.5168;1.6285;-2.9938;0.0874;2.5;-44.49;-61.56;-27.6;216.05;81.11;-99.49;2.0;35.958515;-83.92462;692.47;NaN;0.0;231.25636;;4 / 7;91008;2022-10-28 14:12:37:461
-0.7232;-13.0211;-6.2183;-0.2672;-9.7314;-1.1831;-1.1935;-4.3757;-6.0715;-1.134;1.5912;0.3409;0.0;-46.16;-51.02;-24.58;305.38;82.9;167.27;0.0;35.958515;-83.92462;692.47;NaN;0.0;231.25636;;4 / 7;91508;2022-10-28 14:12:37:961
0.9024;-8.2439;-0.3823;2.5199;-9.4739;-0.2559;-1.8894;1.0759;-0.2154;-0.4654;1.0973;0.2079;0.0;-39.51;-42.54;-32.49;214.55;74.11;-92.44;0.0;35.958515;-83.92462;692.47;NaN;0.0;231.25636;;0 / 7;92008;2022-10-28 14:12:38:461
-2.9644;-9.5853;-2.817;2.6031;-9.4539;-0.1346;-1.1144;-1.4153;-1.688;-0.163;0.7291;-0.9194;0.2;-31.42;-32.44;-38.19;227.33;74.59;-92.96;0.0;35.958515;-83.92462;692.47;NaN;0.0;231.25636;;0 / 7;92507;2022-10-28 14:12:38:960
0.5315;-14.4257;-3.2052;0.873;-9.7663;-0.1651;2.8276;-3.1589;-1.5277;0.7558;0.5989;-0.0609;0.0;-15.97;-24.43;-38.51;305.2;84.29;-150.3;0.0;35.958515;-83.92462;692.47;NaN;0.0;231.25636;;0 / 8;93008;2022-10-28 14:12:39:461
1.1701;-8.2095;-0.4501;2.2119;-9.4951;-1.0583;-1.2141;1.5296;0.792;0.0185;0.8492;-0.1555;0.0;-8.89;-17.76;-41.06;276.66;75.52;-115.57;0.0;35.958515;-83.92462;692.47;NaN;0.0;231.25636;;0 / 8;93508;2022-10-28 14:12:39:961
-0.65;-10.1438;0.1211;1.9601;-9.5523;-1.0397;-2.0039;-0.6313;0.6195;0.2282;3.0471;-0.0107;0.2;-14.51;-15.79;-53.83;293.28;75.52;-133.35;0.0;35.958515;-83.92462;692.47;NaN;0.0;231.25636;;0 / 8;94008;2022-10-28 14:12:40:461
1.27;-9.3096;1.0379;0.1503;-9.7049;-1.4012;1.0764;-0.8514;1.6002;0.0664;-0.2995;-0.0122;0.0;-26.1;-13.31;-64.09;330.75;81.74;-173.88;0.0;35.958515;-83.92462;692.47;NaN;0.0;231.25636;;0 / 8;94508;2022-10-28 14:12:40:961
0.2043;-8.793;-0.2611;1.9335;-9.603;-0.4626;-0.5937;0.9332;-0.5811;0.2289;1.0552;-0.7951;0.0;-39.84;-8.81;-49.86;243.79;78.3;-103.46;2.0;35.958515;-83.92462;692.47;NaN;0.0;231.25636;;0 / 8;95008;2022-10-28 14:12:41:461
2.5875;-9.8022;-1.0424;0.761;-9.5249;-2.2063;2.8305;-5.2592;1.0782;-0.7037;-0.0401;0.639;0.8;-44.91;-10.8;-36.69;287.39;76.23;-160.97;2.0;35.958515;-83.92462;692.47;NaN;0.0;231.25636;;0 / 8;95508;2022-10-28 14:12:41:961
1.6872;-9.5432;-0.0975;0.3992;-9.7356;-1.1086;1.3582;0.2841;0.9;-1.1265;-0.5867;0.3868;1.8;-40.14;-9.96;-34.56;264.82;85.12;-134.53;2.0;35.958515;-83.92462;692.47;NaN;0.0;231.25636;;0 / 8;96008;2022-10-28 14:12:42:461
1.3376;-8.6426;-0.0667;1.0464;-9.7205;-0.7658;0.1657;0.3357;0.9626;0.3441;-0.4675;-0.8076;0.0;-38.78;-7.97;-29.38;251.79;82.4;-126.2;2.0;35.958515;-83.92462;692.47;NaN;0.0;231.25636;;0 / 8;96508;2022-10-28 14:12:42:961
2.5137;-9.7854;-0.6505;1.3829;-9.5447;-1.7768;0.6413;0.1406;1.0115;-1.0585;-0.9958;0.8963;0.8;-41.68;-17.14;-25.65;259.57;76.73;-142.11;2.0;35.958515;-83.92462;692.47;NaN;0.0;231.25636;;0 / 8;97007;2022-10-28 14:12:43:460
2.2128;-10.2141;-0.5838;0.7499;-9.7707;-0.3752;1.0359;-0.1821;-1.1046;-0.8536;-0.5237;0.3443;1.0;-28.33;8.21;-0.77;170.87;84.45;-79.11;2.0;35.958515;-83.92462;692.47;NaN;0.0;231.25636;;0 / 8;97508;2022-10-28 14:12:43:961
0.1956;-9.3392;-0.0377;0.4547;-9.7811;-0.5417;-0.7124;-0.4606;-2.2304;-0.6267;0.4605;-0.0098;0.0;-23.42;7.54;-1.78;194.71;87.78;-99.54;2.0;35.958515;-83.92462;692.47;NaN;0.0;231.25636;;0 / 8;98008;2022-10-28 14:12:44:461
1.2685;-9.1983;-0.8686;1.87;-9.5813;-0.9334;-0.8633;0.981;0.0645;-0.7624;-0.0999;0.5079;0.0;-18.86;4.97;-1.14;211.83;77.69;-116.52;2.0;35.958515;-83.92462;692.47;NaN;0.0;231.25636;;0 / 8;98508;2022-10-28 14:12:44:961
-1.9696;-8.3785;-0.816;1.041;-9.7371;0.5243;-3.0837;1.7607;0.8736;1.566;-2.7632;0.2705;1.8;-11.79;2.57;-0.26;152.31;83.17;-63.27;2.0;35.958515;-83.92462;692.47;NaN;0.0;231.25636;;0 / 8;99008;2022-10-28 14:12:45:461
1.5054;-12.9876;-0.7624;0.1243;-9.798;-0.3937;1.1039;-2.0083;-0.7439;-0.0764;0.5511;-0.3418;0.0;-6.66;0.62;-7.65;301.46;87.59;-162.47;2.0;35.958515;-83.92462;692.47;NaN;0.0;231.25636;;0 / 8;99508;2022-10-28 14:12:45:961
1.2209;-8.7156;-1.1016;2.3087;-9.5268;-0.2827;-1.7555;0.9426;0.2209;0.3122;-0.3002;-0.1455;0.0;-9.94;4.97;-8.55;236.01;76.19;-98.94;2.0;35.958515;-83.92462;692.47;NaN;0.0;231.25636;;1 / 7;100008;2022-10-28 14:12:46:461
0.0523;-9.3682;-0.3589;1.6112;-9.5755;-1.3725;-0.4411;1.0367;0.1744;0.0409;1.7889;-0.3462;1.2;-5.51;3.58;-5.74;271.37;77.54;-130.43;2.0;35.958515;-83.92462;692.47;NaN;0.0;231.25636;;1 / 7;100508;2022-10-28 14:12:46:961
1.6537;-10.3328;1.8586;0.1702;-9.6821;-1.5485;1.1695;-0.5744;3.5937;0.0213;-0.0932;0.1985;0.0;7.2;2.34;-10.18;28.31;80.86;-173.73;2.0;35.958515;-83.92462;692.47;NaN;0.0;231.25636;;1 / 7;101008;2022-10-28 14:12:47:461
0.1962;-8.7323;-0.4421;2.1918;-9.5367;0.6464;-1.6327;0.614;-1.0276;-0.0603;-0.1925;-0.14;0.0;16.11;9.0;-13.72;306.26;76.52;-73.57;2.0;35.958515;-83.92462;692.47;NaN;0.0;231.25636;;1 / 7;101507;2022-10-28 14:12:47:960
0.0754;-9.207;1.235;1.9471;-9.5486;-1.0966;-1.7677;0.2526;2.3563;0.2877;1.2146;-0.1668;1.1;26.91;9.88;-17.7;3.04;75.96;-126.86;0.0;35.958515;-83.92462;692.47;NaN;0.0;231.25636;;1 / 7;102008;2022-10-28 14:12:48:461
3.7445;-11.3079;0.6784;0.8059;-9.5062;-2.27;2.2114;-2.2333;3.9905;0.6341;-0.1606;-0.7647;0.2;42.32;5.21;-12.02;54.03;75.78;-160.45;0.0;35.958515;-83.92462;692.47;NaN;0.0;231.25636;;1 / 7;102508;2022-10-28 14:12:48:961
3.7825;-9.7095;-0.2512;1.7948;-9.4915;-1.6911;0.0484;1.1928;1.7117;-0.7019;-0.5285;1.0569;0.0;24.92;12.73;-14.59;11.42;75.44;-133.3;0.0;35.958515;-83.92462;692.47;NaN;0.0;231.25636;;1 / 7;103008;2022-10-28 14:12:49:461
-1.3579;-10.2691;2.5863;1.7316;-9.6166;-0.8325;-4.0435;-1.2629;3.1763;0.9888;-0.4387;0.5715;2.8;-5.23;6.11;-29.59;288.03;78.7;-115.68;0.0;35.958515;-83.92462;692.47;NaN;0.0;231.25636;;1 / 7;103507;2022-10-28 14:12:49:960
3.4816;-9.4044;-0.4549;1.9739;-9.5726;-0.7996;1.5207;0.1013;0.2683;0.9692;0.7736;-1.5226;1.2;-13.14;7.84;-27.24;321.99;79.58;-166.44;0.0;35.958515;-83.92462;692.47;NaN;0.0;231.25636;;1 / 7;104008;2022-10-28 14:12:50:461
3.3009;-8.8065;-0.5366;1.2006;-9.5892;-1.6664;2.007;0.5769;1.0031;-0.2211;0.1855;0.7774;0.7;-12.08;9.04;-27.41;302.8;77.91;-144.23;0.0;35.958515;-83.92462;692.47;NaN;0.0;231.25636;;1 / 7;104507;2022-10-28 14:12:50:960
1.1177;-10.3618;0.3395;2.498;-9.4612;0.6448;-6.3426;1.5339;-2.3938;-1.3568;-0.0612;1.3239;1.5;-18.62;5.76;-26.87;223.33;74.75;-75.53;0.0;35.958515;-83.92462;692.47;NaN;0.0;231.25636;;1 / 7;105008;2022-10-28 14:12:51:461
-2.5089;-13.6654;-1.7249;0.8851;-9.7627;-0.2759;-0.5965;-2.5899;-1.4066;0.2096;0.4444;-0.6445;0.8;-11.85;14.51;-18.56;258.65;84.58;-107.31;0.0;35.958515;-83.92462;692.47;NaN;0.0;231.25636;;1 / 7;105507;2022-10-28 14:12:51:960
1.6158;-8.2684;-0.3455;3.108;-9.2992;-0.1891;-1.432;0.9671;-0.1955;-0.1439;-0.4339;0.2563;0.0;-9.83;56.29;14.61;56.21;69.87;-88.8;2.0;35.958515;-83.92462;692.47;NaN;0.0;231.25636;;1 / 7;106008;2022-10-28 14:12:52:461
0.1155;-8.9019;1.9065;2.3154;-9.5278;-0.1742;-1.713;1.2085;1.4315;0.487;1.9078;-0.1804;0.2;-11.14;56.63;23.57;87.3;76.3;-94.3;2.0;35.958515;-83.92462;692.47;NaN;0.0;231.25636;;1 / 7;106507;2022-10-28 14:12:52:960
1.7459;-8.5292;0.9622;0.5048;-9.7699;-0.6815;1.3545;0.3501;1.6879;-0.3151;0.3557;0.3967;0.2;-8.12;58.52;25.67;156.14;85.04;-143.47;0.0;35.958515;-83.92462;692.47;NaN;0.0;231.25636;;1 / 7;107008;2022-10-28 14:12:53:461
1.6932;-8.6183;-0.3826;1.5565;-9.6823;-0.0027;-0.7994;0.5246;-0.0721;0.0098;-0.4497;-0.6221;0.2;-2.06;60.17;30.68;76.41;80.87;-90.1;0.0;35.958515;-83.92462;692.47;NaN;0.0;231.25636;;1 / 7;107507;2022-10-28 14:12:53:960
4.1124;-11.2179;-0.8231;1.7845;-9.6186;-0.6842;2.1441;-1.4938;-0.062;0.006;-0.8349;0.4322;1.1;-3.84;62.98;33.81;90.32;77.16;-108.42;0.0;35.958515;-83.92462;692.47;NaN;0.0;231.25636;;1 / 7;108008;2022-10-28 14:12:54:461
0.038;-9.1107;-2.2741;1.6888;-9.6522;0.3912;-1.9477;0.221;-5.2228;-1.1114;1.52;0.7491;1.1;-4.99;87.77;15.28;34.85;75.84;-67.35;0.0;35.958515;-83.92462;692.47;NaN;0.0;231.25636;;1 / 7;108508;2022-10-28 14:12:54:961
-1.41;-13.1874;-2.4353;1.0496;-9.7496;0.1227;-1.0008;-3.769;-0.5897;0.0999;-0.2893;-0.0765;0.0;0.08;54.6;15.06;57.21;83.43;-77.79;2.0;35.958515;-83.92462;692.47;NaN;0.0;231.25636;;1 / 4;109007;2022-10-28 14:12:55:460
1.707;-8.8633;-0.3039;3.2332;-9.2548;0.2559;-2.1327;0.783;-0.5839;-0.0449;-0.5107;0.0304;0.0;-3.77;53.34;15.6;47.4;70.69;-85.47;2.0;35.958515;-83.92462;692.47;NaN;0.0;231.25636;;1 / 4;109510;2022-10-28 14:12:55:963
1.4309;-9.0488;0.1845;1.9125;-9.6043;-0.5195;0.6047;-0.2643;0.0443;0.1578;0.5125;-0.1055;1.7;-2.32;53.76;19.59;86.45;78.93;-112.32;2.0;35.958515;-83.92462;692.47;NaN;0.0;231.25636;;0 / 4;110008;2022-10-28 14:12:56:461
1.9301;-9.3314;0.877;0.6698;-9.7837;0.0043;1.2337;0.3859;0.8354;-0.3846;-0.3221;0.5175;1.4;2.46;56.61;18.71;72.43;86.08;-89.63;2.0;35.958515;-83.92462;692.47;NaN;0.0;231.25636;;0 / 4;110508;2022-10-28 14:12:56:961
-0.7322;-10.7157;-1.5147;0.7092;-9.7715;-0.4314;-2.2437;-1.3871;-1.9809;-0.5577;0.7048;-0.032;0.2;11.87;53.25;17.25;57.43;85.89;-101.45;2.0;35.958515;-83.92462;692.47;NaN;0.0;231.25636;;0 / 4;111008;2022-10-28 14:12:57:461
1.89;-8.7879;-0.3526;2.928;-9.3554;0.2699;-1.4875;0.3745;-0.3805;-0.2178;-0.4826;0.1879;0.0;4.91;51.99;12.02;28.24;72.55;-84.73;2.0;35.958515;-83.92462;692.47;NaN;0.0;231.25636;;0 / 4;111508;2022-10-28 14:12:57:961
0.411;-8.9626;1.71;1.8938;-9.6184;0.2656;-0.2317;0.5685;1.1191;0.3463;1.5555;-0.1622;2.5;5.08;47.57;14.01;51.21;78.88;-99.75;2.0;35.958515;-83.92462;692.47;NaN;0.0;231.25636;;0 / 4;112007;2022-10-28 14:12:58:460
1.445;-9.2752;2.5005;1.0047;-9.7533;0.1821;0.4537;0.2924;2.1316;-0.3019;1.2636;0.0848;0.2;5.46;44.31;13.03;45.29;84.02;-79.73;2.0;35.958515;-83.92462;692.47;NaN;0.0;231.25636;;0 / 4;112509;2022-10-28 14:12:58:962
0.871;-11.5101;-1.2159;0.0406;-9.8061;-0.0984;1.2797;-1.7659;-0.4997;-0.1691;-0.3407;0.2905;0.9;9.24;43.56;14.44;33.65;89.21;-67.53;2.0;35.958515;-83.92462;692.47;NaN;0.0;231.25636;;0 / 4;113007;2022-10-28 14:12:59:460
1.6301;-8.6432;0.3613;2.6412;-9.4298;0.5228;-1.2089;0.8759;-0.3466;-0.1894;0.2824;-0.0725;0.2;9.36;45.71;4.52;8.15;74.06;-78.8;2.0;35.958515;-83.92462;692.47;NaN;0.0;231.25636;;0 / 4;113508;2022-10-28 14:12:59:961
-0.9688;-9.3413;0.8889;2.1472;-9.5477;0.6336;-0.5216;-0.1049;-0.7015;-0.1237;1.4183;0.3798;2.3;5.27;48.9;-4.59;336.78;76.8;-73.56;2.0;35.958515;-83.92462;692.47;NaN;0.0;231.25636;;0 / 4;114008;2022-10-28 14:13:00:461
1.6379;-8.9408;-1.3104;0.0453;-9.8064;-0.0444;2.4813;0.1657;-1.7721;-0.5823;0.9757;0.1629;0.0;0.28;49.22;-1.95;252.82;87.97;-16.74;2.0;35.958515;-83.92462;692.47;NaN;0.0;231.25636;;0 / 4;114507;2022-10-28 14:13:00:960
-0.836;-9.3452;-0.8734;2.2489;-9.5205;0.6879;-2.7001;0.2169;-2.4712;0.8046;0.1296;-1.2089;0.0;-7.84;50.03;-3.04;267.75;80.54;-80.21;0.0;35.958515;-83.92462;692.47;NaN;0.0;231.25636;;0 / 4;115008;2022-10-28 14:13:01:461
4.2185;-12.679;0.0915;1.4194;-9.6415;-1.0942;1.4659;0.4124;0.8384;-0.658;0.7236;0.6225;0.8;-25.93;49.48;-17.64;269.08;79.47;-127.63;0.0;35.958515;-83.92462;692.47;NaN;0.0;231.25636;;0 / 4;115507;2022-10-28 14:13:01:960
0.5348;-9.3793;-0.7014;1.2075;-9.7139;0.5935;-1.2303;0.3994;-3.3734;-0.9348;1.1601;0.628;2.4;-28.01;56.01;-24.07;198.36;82.11;-63.83;0.0;35.958515;-83.92462;692.47;NaN;0.0;231.25636;;0 / 4;116008;2022-10-28 14:13:02:461
1.0615;-11.0228;1.4674;0.0151;-9.792;-0.5365;0.8114;-0.8532;1.9128;-0.5081;1.0801;0.3393;0.0;-26.36;84.32;-27.67;319.91;86.86;-178.39;2.0;35.958515;-83.92462;692.47;NaN;0.0;231.25636;;0 / 4;116508;2022-10-28 14:13:02:961
0.5997;-8.3393;-0.4289;2.4975;-9.4831;0.0674;-0.7417;0.9091;-0.6967;0.6246;-1.6714;-0.7121;0.0;-19.71;84.83;-33.04;270.42;77.66;-92.84;2.0;35.958515;-83.92462;692.47;NaN;0.0;231.25636;;0 / 4;117008;2022-10-28 14:13:03:461
4.5048;-11.1838;0.4792;1.4019;-9.7004;-0.3266;1.8066;2.0225;0.1805;-0.055;-0.4624;0.5947;0.0;-26.57;63.79;-45.13;262.57;81.56;-103.11;0.0;35.958515;-83.92462;692.47;NaN;0.0;231.25636;;0 / 4;117508;2022-10-28 14:13:03:961
2.3267;-9.8647;1.2123;1.4508;-9.6966;-0.2015;0.5784;-0.1938;1.2329;-0.3586;1.1677;0.4422;0.0;-21.58;77.7;-61.35;268.56;81.41;-97.91;0.0;35.958515;-83.92462;692.47;NaN;0.0;231.25636;;2 / 4;118008;2022-10-28 14:13:04:461
1.905;-9.6165;0.0897;2.0693;-9.5824;-0.256;-0.0668;-0.3068;0.8033;0.129;0.2187;-0.8275;0.0;-14.12;99.28;-68.66;282.65;77.72;-97.05;0.0;35.958515;-83.92462;692.47;NaN;0.0;231.25636;;2 / 4;118508;2022-10-28 14:13:04:961
2.8684;-8.9357;-0.4717;2.4159;-9.4717;-0.7885;0.4741;0.4629;0.2911;-0.2692;-0.3898;0.6075;0.0;-33.26;97.07;-73.84;277.3;72.87;-100.22;0.0;35.958515;-83.92462;692.47;NaN;0.0;231.25636;;0 / 5;119007;2022-10-28 14:13:05:460
-1.3633;-9.227;-1.8362;2.0962;-9.5448;0.8209;-2.6623;0.9951;0.5729;0.917;-1.4107;0.2866;0.8;-47.98;100.26;-69.52;226.41;76.73;-68.61;0.0;35.958515;-83.92462;692.47;NaN;0.0;231.25636;;0 / 5;119508;2022-10-28 14:13:05:961
0.9404;-11.0608;-0.4394;0.9528;-9.7581;0.2034;0.6342;-0.7222;0.4088;0.4309;-0.4972;-0.1436;0.0;-52.41;97.78;-60.52;222.35;84.3;-77.95;0.0;35.958515;-83.92462;692.47;NaN;0.0;231.25636;;0 / 7;120008;2022-10-28 14:13:06:461
1.5721;-7.9388;-0.4116;2.2462;-9.536;0.4348;-0.5189;0.9681;-0.4143;0.4578;0.1652;-0.8189;0.0;-52.09;99.3;-47.04;225.82;76.51;-79.04;2.0;35.958515;-83.92462;692.47;NaN;0.0;231.25636;;0 / 7;120508;2022-10-28 14:13:06:961
3.9781;-11.4248;-0.2833;1.3335;-9.6697;-0.9426;2.638;-1.8049;0.6445;0.0095;-0.7018;0.3047;1.3;-45.71;92.81;-38.62;272.71;79.95;-126.61;2.0;35.958515;-83.92462;692.47;NaN;0.0;231.25636;;0 / 7;121007;2022-10-28 14:13:07:460
2.0662;-8.4066;0.7316;0.8248;-9.7697;-0.2095;0.911;1.3975;0.6505;-0.2621;-1.0003;0.4197;1.8;-36.84;99.68;-37.61;248.9;85.02;-104.25;0.0;35.958515;-83.92462;692.47;NaN;0.0;231.25636;;0 / 7;121508;2022-10-28 14:13:07:961
1.8018;-13.5655;0.4786;1.0039;-9.7529;0.21;0.6405;-1.4475;-0.8704;-0.2044;-0.3317;-0.0483;0.4;-33.15;105.81;-35.89;225.11;84.0;-78.18;0.0;35.958515;-83.92462;692.47;NaN;0.0;231.25636;;0 / 7;122009;2022-10-28 14:13:08:462
1.5284;-8.3533;-0.015;3.2731;-9.2441;0.0536;-2.2882;0.995;0.084;0.2101;0.1309;-0.4341;0.5;-32.21;100.82;-33.15;275.36;70.5;-89.06;2.0;35.958515;-83.92462;692.47;NaN;0.0;231.25636;;0 / 7;122507;2022-10-28 14:13:08:960
2.254;-8.7544;0.023;2.1773;-9.5503;-0.4705;-0.0817;1.0033;0.5751;0.114;1.2522;-0.2059;2.6;-35.51;100.71;-33.51;269.78;78.46;-111.81;2.0;35.958515;-83.92462;692.47;NaN;0.0;231.25636;;0 / 7;123008;2022-10-28 14:13:09:461
2.6725;-9.44;1.1067;0.785;-9.7627;-0.4944;1.7623;0.3332;1.3443;-0.2853;0.6667;0.1953;3.0;-38.87;107.16;-34.22;264.59;84.57;-122.2;0.0;35.958515;-83.92462;692.47;NaN;0.0;231.25636;;0 / 7;123508;2022-10-28 14:13:09:961
1.8535;-8.9381;0.2408;1.8907;-9.6226;-0.0288;-0.4701;1.3751;0.3107;0.1621;-0.717;-0.6132;0.4;-37.73;98.64;-18.66;224.08;81.04;-92.45;0.0;35.958515;-83.92462;692.47;NaN;0.0;231.25636;;0 / 7;124008;2022-10-28 14:13:10:461
4.5452;-12.3269;-0.2477;1.9582;-9.5843;-0.6901;1.1878;-0.4619;0.1724;-0.3493;-0.3285;0.5397;1.8;-41.66;75.04;3.13;205.05;77.78;-109.41;0.0;35.958515;-83.92462;692.47;NaN;0.0;231.25636;;0 / 7;124507;2022-10-28 14:13:10:960
1.4668;-9.7373;-0.6057;1.7739;-9.6354;0.4273;-1.2955;0.5063;-2.4864;0.2272;-0.5355;0.4068;3.3;-44.57;86.27;13.05;122.74;76.33;-71.47;0.0;35.958515;-83.92462;692.47;NaN;0.0;231.25636;;0 / 7;125008;2022-10-28 14:13:11:461
2.0841;-11.0725;-0.1038;0.6722;-9.7821;-0.1701;1.1785;-0.7139;-0.0471;0.0186;-0.3237;-0.025;0.4;-43.05;90.53;22.44;164.48;86.11;-103.57;0.0;35.958515;-83.92462;692.47;NaN;0.0;231.25636;;0 / 7;125507;2022-10-28 14:13:11:960
0.5575;-8.3545;1.0223;2.8542;-9.3729;-0.4165;-2.1056;1.0456;1.2946;-0.074;1.0203;-0.6263;0.3;-24.9;86.14;37.73;106.42;74.7;-103.29;0.0;35.958515;-83.92462;692.47;NaN;0.0;231.25636;;0 / 7;126008;2022-10-28 14:13:12:461
3.7062;-10.5434;-0.1842;2.1601;-9.5097;-1.0341;3.1781;-5.6959;0.8597;0.1811;-0.5013;0.2611;3.5;0.47;78.28;36.09;83.02;75.87;-115.58;0.0;35.958515;-83.92462;692.47;NaN;0.0;231.25636;;0 / 7;126507;2022-10-28 14:13:12:960
1.0202;-9.6419;1.4498;1.1184;-9.7416;-0.1427;0.6121;-0.1849;0.6948;-0.5833;1.3926;0.4284;1.6;7.86;72.96;19.76;50.52;82.06;-93.38;0.0;35.958515;-83.92462;692.47;NaN;0.0;231.25636;;3 / 7;127008;2022-10-28 14:13:13:461
-0.16;-10.6899;-0.2958;0.4862;-9.7857;-0.4169;-1.6049;-3.6857;-1.9475;-0.5748;0.9528;0.2091;0.1;1.31;71.36;8.16;88.31;86.26;-130.61;0.0;35.958515;-83.92462;692.47;NaN;0.0;231.25636;;3 / 7;127507;2022-10-28 14:13:13:960
1.8739;-9.5803;-0.026;2.8981;-9.3316;0.8326;-1.2597;-0.3371;-0.8207;-0.1644;0.9793;-0.1277;0.2;-1.28;74.06;-8.53;337.12;71.79;-74.25;0.0;35.958515;-83.92462;692.47;NaN;0.0;231.25636;;0 / 8;128008;2022-10-28 14:13:14:461
-0.8871;-9.655;-0.3392;2.3357;-9.5217;0.2288;-2.3932;-0.017;-0.6166;-0.1702;1.2202;0.0906;3.6;0.49;70.01;-21.34;305.24;76.15;-84.41;0.0;35.958515;-83.92462;692.47;NaN;0.0;231.25636;;0 / 8;128507;2022-10-28 14:13:14:960
4.3974;-10.8284;0.6634;1.2385;-9.7218;-0.3523;3.0821;-1.3749;0.9408;-0.3753;1.2839;-0.0675;0.6;-0.73;65.36;-27.38;309.67;85.26;-123.08;0.0;35.958515;-83.92462;692.47;NaN;0.0;231.25636;;0 / 8;129009;2022-10-28 14:13:15:462
2.9228;-8.1754;-0.2396;2.7073;-9.4204;-0.3115;-0.1161;1.5833;-0.166;-0.2483;-0.3727;0.8969;0.4;-6.86;65.7;-14.79;310.28;73.87;-96.56;0.0;35.958515;-83.92462;692.47;NaN;0.0;231.25636;;0 / 8;129508;2022-10-28 14:13:15:961
-3.9942;-10.095;3.5841;2.8947;-9.3647;-0.3047;-4.7363;-0.9025;-0.3489;-0.9761;1.6881;-0.3252;3.4;-8.03;63.43;-10.35;320.58;71.72;-91.23;0.0;35.958515;-83.92462;692.47;NaN;0.0;231.25636;;0 / 8;130007;2022-10-28 14:13:16:460
3.6849;-9.2758;0.1304;0.8597;-9.7295;-0.8766;3.4656;0.4485;0.9401;-0.0528;0.8921;0.3409;0.7;3.3;64.11;-7.44;349.61;82.81;-135.56;0.0;35.958515;-83.92462;692.47;NaN;0.0;231.25636;;0 / 8;130508;2022-10-28 14:13:16:961
2.4114;-8.8319;0.1789;3.6125;-9.0874;-0.7347;-1.7284;0.1405;0.3134;-0.6202;-0.4416;0.7155;0.2;8.98;57.04;-12.02;342.61;67.92;-101.5;0.0;35.958515;-83.92462;692.47;NaN;0.0;231.25636;;0 / 8;131008;2022-10-28 14:13:17:461
3.5177;-9.993;-0.6221;2.9601;-9.3391;-0.4347;1.1472;-0.4145;-0.3847;-1.3285;2.5148;-0.3299;1.5;-4.56;47.55;-17.57;303.83;72.24;-98.35;0.0;35.958515;-83.92462;692.47;NaN;0.0;231.25636;;0 / 8;131508;2022-10-28 14:13:17:961
3.2812;-8.6136;0.8623;0.5067;-9.7888;-0.3044;2.1339;1.1333;1.9112;-0.375;0.4894;0.5067;0.0;-21.58;43.67;-5.51;211.0;85.97;-101.67;0.0;35.958515;-83.92462;692.47;NaN;0.0;231.25636;;0 / 8;132008;2022-10-28 14:13:18:461
1.6146;-8.5801;1.343;1.4122;-9.6994;-0.3123;-0.2108;0.3103;-0.507;-1.1302;1.7285;-0.1132;0.8;-26.51;45.21;-1.2;199.49;81.52;-102.47;2.0;35.958515;-83.92462;692.47;NaN;0.0;231.25636;;0 / 8;132507;2022-10-28 14:13:18:960
2.4042;-8.5962;-0.4588;3.4876;-9.1633;0.2038;-1.4009;1.0789;-0.5234;0.1673;-0.9672;0.1665;1.1;-34.26;42.02;5.44;157.06;69.13;-86.66;2.0;35.958515;-83.92462;692.47;NaN;0.0;231.25636;;0 / 8;133007;2022-10-28 14:13:19:460
-0.0918;-8.8935;1.4925;2.0034;-9.5753;0.6861;-1.4007;0.3233;0.9544;1.2603;-1.9202;0.1876;1.5;-36.88;47.42;15.45;126.38;77.53;-71.1;2.0;35.958515;-83.92462;692.47;NaN;0.0;231.25636;;0 / 8;133508;2022-10-28 14:13:19:961
1.4752;-9.7029;1.5009;1.2625;-9.7196;0.3247;0.2556;-0.048;1.2849;0.4449;-0.5809;-0.0993;0.0;-36.53;53.68;20.21;141.8;82.75;-86.18;0.0;35.958515;-83.92462;692.47;NaN;0.0;231.25636;;0 / 8;134007;2022-10-28 14:13:20:460
1.4441;-8.8723;0.4642;2.8427;-9.3815;0.2771;-0.9767;0.6791;-0.2714;0.0695;-0.0624;-0.7639;0.0;-36.26;57.39;29.18;114.85;73.07;-84.43;0.0;35.958515;-83.92462;692.47;NaN;0.0;231.25636;;0 / 8;134508;2022-10-28 14:13:20:961
4.7988;-12.7911;-0.2312;1.5779;-9.6382;-0.8868;3.5972;-4.0634;0.452;-0.4704;0.0229;0.6415;1.0;-30.28;59.98;48.54;143.76;79.36;-119.34;0.0;35.958515;-83.92462;692.47;NaN;0.0;231.25636;;0 / 8;135007;2022-10-28 14:13:21:460
2.1042;-10.1417;-0.0069;0.6227;-9.7863;0.1019;1.5053;0.0521;0.2396;-0.2254;-0.4032;0.2976;1.3;-1.37;55.88;61.63;78.38;86.31;-80.7;0.0;35.958515;-83.92462;692.47;NaN;0.0;231.25636;;0 / 8;135508;2022-10-28 14:13:21:961
1.6618;-9.2013;0.5677;1.548;-9.6834;-0.082;0.1037;0.5728;0.6956;-0.3639;0.7942;-0.7367;0.0;18.86;51.0;39.69;60.59;83.91;-92.0;0.0;35.958515;-83.92462;692.47;NaN;0.0;231.25636;;4 / 8;136009;2022-10-28 14:13:22:462
3.4472;-9.8106;-0.3607;2.7105;-9.4213;-0.2518;0.0012;0.4775;-0.227;-0.5761;-0.0425;0.5195;0.0;8.96;56.03;-8.61;341.96;73.88;-95.31;0.0;35.958515;-83.92462;692.47;NaN;0.0;231.25636;;4 / 8;136507;2022-10-28 14:13:22:960
0.2471;-9.9966;-2.1757;2.3264;-9.4661;1.0734;-1.0596;0.3469;0.1585;1.2515;-2.5927;-0.0637;1.0;-5.59;62.63;-27.81;269.69;74.86;-65.23;0.0;35.958515;-83.92462;692.47;NaN;0.0;231.25636;;4 / 8;137008;2022-10-28 14:13:23:461
2.1556;-12.9239;1.2344;0.983;-9.7571;0.0622;2.2802;-1.3283;1.5079;0.0705;0.2317;-0.1703;0.0;-18.54;62.7;-16.95;229.21;84.24;-86.38;0.0;35.958515;-83.92462;692.47;NaN;0.0;231.25636;;4 / 8;137508;2022-10-28 14:13:23:961
1.5371;-8.9486;-0.0984;3.7101;-9.0396;0.8312;-2.1879;0.0875;-0.9166;-0.0688;0.5248;-0.54;0.0;-25.01;62.96;-5.62;298.44;67.73;-76.83;0.0;35.958515;-83.92462;692.47;NaN;0.0;231.25636;;4 / 8;138008;2022-10-28 14:13:24:461
2.3821;-8.2953;-0.1071;1.727;-9.6476;-0.3331;0.9203;2.7469;0.1586;0.111;1.2651;-1.1286;0.2;-29.74;62.51;2.42;191.64;79.67;-100.92;0.0;35.958515;-83.92462;692.47;NaN;0.0;231.25636;;4 / 8;138508;2022-10-28 14:13:24:961
3.1035;-8.4838;1.3035;1.5126;-9.6722;-0.5758;0.9981;0.2474;2.0275;-0.6292;0.4887;0.1718;0.2;-28.82;62.85;14.21;156.83;80.57;-100.14;0.0;35.958515;-83.92462;692.47;NaN;0.0;231.25636;;4 / 8;139009;2022-10-28 14:13:25:462
0.8381;-12.4232;-5.2421;3.389;-9.1768;0.6864;0.3128;-0.4685;-0.9836;0.3896;1.9402;-1.3491;0.0;-18.3;65.1;21.77;67.33;69.35;-78.55;0.0;35.958515;-83.92462;692.47;NaN;0.0;231.25636;;4 / 8;139508;2022-10-28 14:13:25:961
4.7148;-8.3758;0.2061;1.8646;-9.5998;0.7338;2.7962;1.2483;-0.6148;0.6673;-0.8217;0.8558;0.0;-17.36;65.78;16.35;81.05;76.43;-76.42;0.0;35.958515;-83.92462;692.47;NaN;0.0;231.25636;;4 / 8;140008;2022-10-28 14:13:26:461
2.7796;-8.3919;2.0315;2.8315;-9.219;1.7785;0.2128;1.0927;1.0744;-0.4731;2.1009;-0.0202;0.0;-12.96;70.16;8.59;38.89;70.06;-57.87;0.0;35.958515;-83.92462;692.47;NaN;0.0;231.25636;;4 / 8;140508;2022-10-28 14:13:26:961
2.2726;-9.9039;-0.1256;2.7362;-9.3815;0.8197;0.232;-0.9457;-1.3444;-1.8459;2.3437;-0.7187;0.0;-19.26;72.39;1.86;59.36;72.76;-57.82;0.0;35.958515;-83.92462;692.47;NaN;0.0;231.25636;;4 / 8;141007;2022-10-28 14:13:27:460
4.7019;-8.5837;1.3681;3.1712;-9.2399;0.8594;1.199;-0.0465;-0.0581;0.418;-0.3949;0.6118;0.0;-31.37;74.38;-5.57;154.59;70.43;-74.84;0.0;35.958515;-83.92462;692.47;NaN;0.0;231.25636;;4 / 8;141508;2022-10-28 14:13:27:961
3.5569;-9.2315;1.6807;3.9748;-8.7616;1.8988;-0.2161;0.5933;2.0826;-1.3152;2.3672;-1.1127;0.0;-39.43;73.29;-1.39;82.85;62.97;-61.51;0.0;35.958515;-83.92462;692.47;NaN;0.0;231.25636;;4 / 8;142007;2022-10-28 14:13:28:460
1.7964;-11.9049;0.2091;4.5614;-8.5977;1.2014;-0.4086;-1.8767;-0.4572;-0.9877;1.5477;-1.4982;0.0;-42.21;75.58;-12.04;207.64;61.25;-75.24;0.0;35.958515;-83.92462;692.47;NaN;0.0;231.25636;;4 / 8;142508;2022-10-28 14:13:28:961
4.2431;-7.3167;0.6407;3.1302;-9.2847;0.4086;1.1348;1.8533;0.1729;-0.0667;-0.4928;0.8342;0.0;-39.75;76.93;-25.54;238.25;68.46;-81.31;0.0;35.958515;-83.92462;692.47;NaN;0.0;231.25636;;4 / 8;143008;2022-10-28 14:13:29:461
2.9575;-9.3873;2.6638;3.3437;-8.9866;2.0568;-4.2126;-0.8796;-0.1358;-0.2511;-0.1829;1.812;0.0;-38.27;75.53;-29.83;202.47;66.4;-58.4;0.0;35.958515;-83.92462;692.47;NaN;0.0;231.25636;;4 / 8;143508;2022-10-28 14:13:29:961
3.4887;-12.9562;4.0152;1.9162;-9.1578;2.9384;1.8933;-2.1524;-0.0712;0.6705;-1.4134;0.3817;1.3;-27.04;78.0;-35.42;182.74;70.99;-38.66;0.0;35.958515;-83.92462;692.47;NaN;0.0;231.25636;;4 / 8;144007;2022-10-28 14:13:30:460
2.662;-7.9962;2.9222;5.274;-8.0546;1.8649;-2.873;0.1517;1.1206;-0.0215;0.6541;-1.247;0.0;-42.9;64.86;-34.43;252.67;55.22;-70.53;0.0;35.958515;-83.92462;692.47;NaN;0.0;231.25636;;4 / 8;144508;2022-10-28 14:13:30:961
2.6121;-6.9957;3.8219;2.6272;-9.3036;1.6468;-0.1932;2.7394;1.6224;0.8779;0.1648;0.1616;1.3;-53.74;62.61;-25.33;182.2;73.51;-66.61;0.0;35.958515;-83.92462;692.47;NaN;0.0;231.25636;;2 / 9;145008;2022-10-28 14:13:31:461
3.9763;-8.9572;2.994;1.3602;-9.4785;2.1162;2.1332;1.0844;0.9798;-0.4281;0.4886;0.1746;0.0;-55.95;68.23;-27.28;136.09;75.14;-32.73;0.0;35.958515;-83.92462;692.47;NaN;0.0;231.25636;;2 / 9;145508;2022-10-28 14:13:31:961
3.3479;-8.6809;1.0373;3.6125;-9.063;0.9907;-0.4032;0.8592;-1.404;-1.8503;3.4585;-1.9689;0.0;-55.86;84.49;-15.88;181.63;67.54;-74.66;0.0;35.958515;-83.92462;692.47;NaN;0.0;231.25636;;2 / 9;146008;2022-10-28 14:13:32:461
4.8574;-9.2375;1.0026;3.6376;-9.0616;0.909;2.5167;-2.7223;0.392;-0.2333;0.0641;0.8851;1.3;-51.81;86.83;-0.15;136.65;67.52;-75.97;0.0;35.958515;-83.92462;692.47;NaN;0.0;231.25636;;2 / 9;146508;2022-10-28 14:13:32:961
3.3981;-9.0413;2.6195;2.7406;-9.1927;2.0379;0.0724;0.3842;-0.2283;-0.0277;-0.1242;0.2823;1.3;-27.0;97.05;10.95;50.6;68.95;-54.82;0.0;35.958515;-83.92462;692.47;NaN;0.0;231.25636;;2 / 9;147007;2022-10-28 14:13:33:460
2.2576;-8.4754;2.7165;2.423;-9.3556;1.6647;-0.5463;-0.5948;-0.0174;-0.2977;0.8282;-1.0399;0.0;-12.51;86.48;0.13;25.32;72.56;-55.51;0.0;35.958515;-83.92462;692.47;NaN;0.0;231.25636;;2 / 9;147508;2022-10-28 14:13:33:961
4.13;-7.9415;1.1758;4.5823;-8.4388;1.99;-0.7091;0.5884;-0.7015;-0.106;-1.7033;1.217;0.0;-12.08;72.77;-13.46;342.93;59.37;-66.53;0.0;35.958515;-83.92462;692.47;NaN;0.0;231.25636;;2 / 9;148007;2022-10-28 14:13:34:460
-0.3326;-9.7229;1.5054;3.1159;-9.076;2.0217;-4.269;-0.7253;-2.45;-1.0613;0.2928;0.8089;0.2;-11.68;67.99;-23.85;287.73;67.74;-57.02;0.0;35.958515;-83.92462;692.47;NaN;0.0;231.25636;;2 / 9;148508;2022-10-28 14:13:34:961
-0.1433;-11.54;1.002;2.8658;-9.1557;2.0322;1.2111;-2.9781;0.1015;0.7074;0.2311;-0.1566;0.0;-10.29;67.46;-28.93;275.75;69.16;-59.43;0.0;35.958515;-83.92462;692.47;NaN;0.0;231.25636;;2 / 9;149008;2022-10-28 14:13:35:461
3.6939;-7.9068;1.4094;4.1416;-8.6791;1.9211;-0.6301;1.1447;-0.4741;0.5444;-0.4693;-0.2974;0.0;-14.77;63.58;-34.84;276.52;63.69;-64.94;0.0;35.958515;-83.92462;692.47;NaN;0.0;231.25636;;2 / 9;149508;2022-10-28 14:13:35:961
0.7391;-7.9433;3.6263;3.7398;-8.7034;2.5369;-1.9273;0.4237;0.8727;0.9059;-0.1009;0.0751;0.0;-25.86;53.21;-35.4;229.88;62.56;-55.85;0.0;35.958515;-83.92462;692.47;NaN;0.0;231.25636;;2 / 9;150009;2022-10-28 14:13:36:462
2.7691;-9.6377;1.1698;2.1074;-9.3675;1.9949;0.7922;0.2039;-0.4381;-0.1879;0.3888;-0.1129;0.0;-27.24;48.11;-37.5;196.08;72.79;-46.57;0.0;35.958515;-83.92462;692.47;NaN;0.0;231.25636;;2 / 9;150508;2022-10-28 14:13:36:961
4.0747;-8.7027;0.7618;4.0551;-8.5977;2.4096;0.0761;-0.1152;-1.7676;0.3989;1.005;-1.314;0.0;-23.17;57.06;-42.39;239.98;65.73;-59.38;0.0;35.958515;-83.92462;692.47;NaN;0.0;231.25636;;2 / 9;151008;2022-10-28 14:13:37:461
6.8097;-9.9153;0.9374;3.0478;-9.2348;1.2653;5.5388;-4.0444;0.1731;0.5465;-0.5098;1.0365;0.0;-19.76;53.48;-49.37;245.35;70.34;-67.45;0.0;35.958515;-83.92462;692.47;NaN;0.0;231.25636;;2 / 9;151508;2022-10-28 14:13:37:961
5.0847;-8.6273;2.6019;3.4621;-8.8027;2.5878;0.0089;0.4421;-0.4949;-1.1125;0.3844;0.2774;0.0;-18.0;52.46;-51.26;239.9;63.85;-53.22;0.0;35.958515;-83.92462;692.47;NaN;0.0;231.25636;;2 / 9;152008;2022-10-28 14:13:38:461
4.5586;-11.0327;-1.4474;4.3333;-8.6875;1.3858;1.9314;-0.7207;2.0306;-1.0747;3.483;-1.9572;0.0;-2.48;60.45;-50.16;278.78;67.73;-72.8;0.0;35.958515;-83.92462;692.47;NaN;0.0;231.25636;;2 / 9;152508;2022-10-28 14:13:38:961
5.6889;-8.4305;0.5838;3.5517;-9.0852;1.0072;2.193;0.5464;-0.4095;0.9615;-1.613;1.2089;0.0;9.19;80.46;-32.34;318.35;64.78;-80.2;0.0;35.958515;-83.92462;692.47;NaN;0.0;231.25636;;2 / 9;153009;2022-10-28 14:13:39:462
1.7764;-12.5806;5.3761;5.2419;-7.8783;2.574;-0.2927;-3.9517;0.1694;0.505;3.1833;-1.2832;1.3;-4.78;61.65;-41.62;297.46;53.45;-63.85;0.0;35.958515;-83.92462;692.47;NaN;0.0;231.25636;;2 / 9;153508;2022-10-28 14:13:39:961
3.571;-8.1203;3.1451;1.948;-9.5287;1.257;3.225;1.5691;1.3408;-0.3291;0.1364;0.1619;0.0;-0.11;67.48;-32.16;267.83;76.33;-57.17;0.0;35.95837;-83.92457;717.65;NaN;0.0;34.653263;;2 / 11;154008;2022-10-28 14:13:40:461
3.7394;-7.7459;2.403;1.1805;-9.6344;1.3985;3.511;-0.6956;-0.3278;-1.8861;1.0678;0.0581;0.0;10.33;73.09;-25.93;271.04;79.24;-40.17;0.0;35.95837;-83.92457;717.65;NaN;0.0;34.653263;;2 / 11;154508;2022-10-28 14:13:40:961
2.7514;-5.9632;2.4108;5.4198;-7.8647;2.2231;-2.7778;2.0147;0.2501;0.3527;-0.3678;0.0189;0.0;5.01;91.39;-20.12;339.39;51.44;-66.34;0.0;35.95837;-83.92457;717.65;NaN;0.0;34.653263;;2 / 11;155008;2022-10-28 14:13:41:461
3.213;-8.479;0.5183;3.7168;-8.8123;2.168;-0.515;-0.9624;-1.2692;-0.5867;0.8595;-0.0532;0.0;0.17;99.06;-19.03;334.77;63.97;-59.74;0.0;35.95837;-83.92457;717.65;NaN;0.0;34.653263;;2 / 11;155508;2022-10-28 14:13:41:961
5.1102;-12.5181;2.7135;1.781;-9.2258;2.8076;2.1731;-1.7015;-1.0567;0.8395;-0.7613;0.6928;0.0;6.54;98.72;-16.93;325.27;71.4;-39.98;0.0;35.95837;-83.92457;717.65;NaN;0.0;34.653263;;2 / 11;156008;2022-10-28 14:13:42:461
6.638;-5.01;9.918;8.8231;-2.2762;3.6252;-0.7897;-2.1456;4.6695;0.3967;0.1731;-4.9531;9.5;7.93;40.58;-23.42;324.64;32.08;-68.84;0.0;35.95837;-83.92457;717.65;NaN;0.0;34.653263;;2 / 11;156508;2022-10-28 14:13:42:961
-0.8501;5.5253;7.9346;-1.6147;6.6728;7.0026;0.637;-1.2913;1.1177;-0.3218;1.6;0.9758;276.5;17.29;-22.46;-23.46;279.94;-43.51;12.49;0.0;35.95837;-83.92457;717.65;NaN;0.0;34.653263;;2 / 11;157008;2022-10-28 14:13:43:461
0.8171;7.1563;5.3175;0.2154;7.1722;6.6846;-0.6201;-0.3337;-1.5409;-0.5543;0.7552;0.6694;149.3;28.48;-41.01;-1.11;225.13;-47.0;-1.85;2.0;35.95837;-83.92457;717.65;NaN;0.0;34.653263;;2 / 11;157508;2022-10-28 14:13:43:961
-0.8273;7.1656;6.7143;-0.972;6.9362;6.8641;0.1993;0.0694;-0.3558;0.7281;-0.3863;-0.2288;149.3;26.19;-39.68;-7.24;228.27;-42.75;8.9;2.0;35.95837;-83.92457;717.65;NaN;0.0;34.653263;;2 / 11;158008;2022-10-28 14:13:44:461
-1.8631;6.7555;7.2664;-1.3172;5.9324;7.6969;-0.8113;1.184;-0.3549;-0.2963;-0.378;0.0658;149.3;31.82;-35.27;-7.54;236.7;-37.22;9.71;2.0;35.95837;-83.92457;717.65;NaN;0.0;34.653263;;2 / 11;158508;2022-10-28 14:13:44:961
-1.1246;5.8648;7.8999;-1.0558;5.5031;8.0481;-0.1024;0.3469;-0.0429;-0.0247;0.0874;0.0333;149.3;30.75;-32.78;-14.17;238.9;-33.9;7.03;2.0;35.95837;-83.92457;717.65;NaN;0.0;34.653263;;2 / 11;159007;2022-10-28 14:13:45:460
-1.1183;5.7556;7.8658;-1.1569;5.7407;7.8662;-0.0247;0.1224;-0.1242;0.0089;0.0356;0.0407;149.3;31.18;-32.23;-14.16;242.05;-35.83;8.37;2.0;35.95837;-83.92457;717.65;NaN;0.0;34.653263;;2 / 11;159508;2022-10-28 14:13:45:961
-1.6098;6.0544;7.0134;-2.0504;6.0868;7.4106;0.4933;-0.0129;-0.216;0.1193;0.7707;0.0125;149.3;31.73;-33.09;-11.89;242.71;-37.56;12.61;2.0;35.95837;-83.92457;717.65;NaN;0.0;34.653263;;2 / 11;160007;2022-10-28 14:13:46:460