time,seconds_elapsed,z,y,x
1667709579352397600,0.0493974609375,0.24605175852775574,-0.4087800979614258,0.07353980094194412
1667709579362448400,0.059448486328125,0.1895325928926468,-0.3052964508533478,0.2340106964111328
1667709579372499500,0.06949951171875,0.08980999141931534,-0.13726086914539337,0.40788793563842773
1667709579382549500,0.079549560546875,-0.03238359093666077,-0.05333784222602844,0.5964719653129578
1667709579392600600,0.0896005859375,-0.14721377193927765,-0.054270751774311066,0.8137851357460022
1667709579402651600,0.099651611328125,-0.21014855802059174,-0.00894570630043745,1.1016417741775513
1667709579412702500,0.109702392578125,-0.1480119377374649,0.035875558853149414,1.4267551898956299
1667709579422753500,0.11975341796875,0.003153430065140128,-0.05461495369672775,1.7211908102035522
1667709579432804600,0.1298046875,0.14459311962127686,-0.16121116280555725,1.948104977607727
1667709579442854700,0.139854736328125,0.23648695647716522,-0.16239982843399048,2.1128792762756348
1667709579452905700,0.14990576171875,0.22594323754310608,-0.09776969999074936,2.1928694248199463
1667709579462956500,0.15995654296875,0.13716371357440948,0.020251188427209854,2.1066510677337646
1667709579473007600,0.170007568359375,0.0631781667470932,0.11003007739782333,1.853175163269043
1667709579483058400,0.180058349609375,0.1325039267539978,0.10224224627017975,1.4546139240264893
1667709579493109500,0.190109619140625,0.4478336274623871,0.14289593696594238,0.9496594071388245
1667709579503159600,0.20015966796875,0.938423752784729,0.24329960346221924,0.4364734888076782
1667709579513210600,0.210210693359375,1.3865892887115479,0.373845636844635,-0.003194172168150544
1667709579523261400,0.220261474609375,1.6719855070114136,0.4113096594810486,-0.3539033532142639
1667709579533312500,0.2303125,1.6246715784072876,0.14352667331695557,-0.6262766122817993
1667709579543363600,0.240363525390625,1.2127689123153687,-0.24899891018867493,-0.7465810179710388
1667709579553414700,0.25041455078125,0.6825056076049805,-0.524131178855896,-0.6447771787643433
1667709579563464700,0.260464599609375,0.27947622537612915,-0.5098243951797485,-0.3992980122566223
1667709579573515800,0.270515869140625,0.04572097212076187,-0.26060178875923157,-0.13265755772590637
1667709579583566600,0.280566650390625,0.04497179761528969,-0.049908846616744995,0.1327192634344101
1667709579593617700,0.29061767578125,0.28372687101364136,0.22954809665679932,0.38387638330459595
1667709579603668500,0.30066845703125,0.6002147197723389,0.6196763515472412,0.656516969203949
1667709579613719600,0.310719482421875,0.8891205787658691,0.9839802980422974,0.9154209494590759
1667709579623769600,0.32076953125,1.1059354543685913,1.24967622756958,1.134629487991333
1667709579633820400,0.3308203125,1.244637131690979,1.3927886486053467,1.277948021888733
1667709579643871500,0.34087158203125,1.3098742961883545,1.40420663356781,1.264750599861145
1667709579653922600,0.350922607421875,1.2755416631698608,1.3165987730026245,1.1231240034103394
1667709579663973600,0.3609736328125,1.144089698791504,1.1868215799331665,0.8617541790008545
1667709579674024700,0.371024658203125,0.9479913115501404,1.004838466644287,0.5286071300506592
1667709579684074800,0.38107470703125,0.7374181151390076,0.8535447716712952,0.23640041053295135
1667709579694125600,0.39112548828125,0.5700461864471436,0.7386336326599121,0.030836332589387894
1667709579704176600,0.4011767578125,0.4807509779930115,0.617527961730957,-0.12219518423080444
1667709579714227700,0.411227783203125,0.4928808808326721,0.4481583833694458,-0.23272143304347992
1667709579724278500,0.421278564453125,0.5584006905555725,0.3282150328159332,-0.3338789939880371
1667709579734329300,0.431329345703125,0.635769248008728,0.31535062193870544,-0.37082794308662415
1667709579744379600,0.441379638671875,0.7148109674453735,0.42658668756484985,-0.3078666925430298
1667709579754430500,0.451430419921875,0.7772647738456726,0.5771173238754272,-0.16385731101036072
1667709579764481500,0.4614814453125,0.8163456916809082,0.8181805610656738,0.007639592979103327
1667709579774532600,0.47153271484375,0.8177915215492249,1.0100919008255005,0.2003488540649414
1667709579784583700,0.481583740234375,0.8076551556587219,1.1991863250732422,0.369314581155777
1667709579794634500,0.491634521484375,0.8307535648345947,1.3900468349456787,0.492150217294693
1667709579804684500,0.5016845703125,0.8102285265922546,1.3443193435668945,0.5148899555206299
1667709579814735600,0.511735595703125,0.7058587074279785,1.161164402961731,0.4485710859298706
1667709579824786700,0.52178662109375,0.5981922149658203,0.9899490475654602,0.4323897063732147
1667709579834837800,0.531837646484375,0.39789509773254395,0.5148459076881409,0.3983558416366577
1667709579844888600,0.541888671875,0.17581763863563538,0.15411759912967682,0.3689420819282532
1667709579854939400,0.551939453125,0.011845747008919716,-0.023662779480218887,0.3495262861251831
1667709579864989400,0.561989501953125,-0.08377368003129959,-0.22850193083286285,0.3332745432853699
1667709579875040500,0.57204052734375,-0.12016603350639343,-0.3979860246181488,0.318767249584198
1667709579885091600,0.582091552734375,-0.0845649391412735,-0.3933708667755127,0.3004947006702423
1667709579895142700,0.592142578125,0.004068528302013874,-0.349789559841156,0.27103856205940247
1667709579905193500,0.602193359375,0.10288258641958237,-0.37930214405059814,0.2000931054353714
1667709579915244500,0.61224462890625,0.2166256606578827,-0.33913102746009827,0.14984777569770813
1667709579925294600,0.622294677734375,0.3254842162132263,-0.25483089685440063,0.15897595882415771
1667709579935345700,0.632345703125,0.3999379575252533,-0.17835955321788788,0.2187519371509552
1667709579945396700,0.642396728515625,0.45028430223464966,-0.14796024560928345,0.293592244386673
1667709579955447600,0.652447509765625,0.46525445580482483,-0.1642121821641922,0.3281334638595581
1667709579965498600,0.66249853515625,0.4476076662540436,-0.2638658583164215,0.2926734983921051
1667709579975549400,0.672549560546875,0.38648518919944763,-0.41802987456321716,0.2073085457086563
1667709579985599500,0.682599609375,0.2951006293296814,-0.5347404479980469,0.10673235356807709
1667709579995650600,0.692650634765625,0.18653526902198792,-0.5516054630279541,0.0053942822851240635
1667709580005701600,0.70270166015625,0.11356373876333237,-0.49193263053894043,-0.04546434059739113
1667709580015752400,0.71275244140625,0.10062769800424576,-0.4264649450778961,0.0031335558742284775
1667709580025803500,0.722803466796875,0.09084452688694,-0.39240068197250366,0.11785368621349335
1667709580035854600,0.7328544921875,0.06439294666051865,-0.3912968039512634,0.2345598042011261
1667709580045904600,0.742904541015625,0.052973587065935135,-0.4185521602630615,0.2707131505012512
1667709580055955700,0.752955810546875,0.07462561875581741,-0.43371036648750305,0.21662060916423798
1667709580066006800,0.7630068359375,0.09817057102918625,-0.40425997972488403,0.09591358155012131
1667709580076057600,0.7730576171875,0.08815974742174149,-0.2943558692932129,-0.058870404958724976
1667709580086108700,0.783108642578125,0.08118575066328049,-0.16660147905349731,-0.25985631346702576
1667709580096159500,0.793159423828125,0.10013759881258011,-0.04798295348882675,-0.45698562264442444
1667709580106209500,0.80320947265625,0.1453024446964264,0.05989513546228409,-0.5778137445449829
1667709580116260600,0.813260498046875,0.17582494020462036,0.12170629948377609,-0.5570330619812012
1667709580126311400,0.8233115234375,0.13145320117473602,0.08064419031143188,-0.35831218957901
1667709580136362500,0.833362548828125,0.0062161777168512344,-0.07676780223846436,-0.0311359204351902
1667709580146413600,0.84341357421875,-0.1626521795988083,-0.27068227529525757,0.31586623191833496
1667709580156464600,0.853464599609375,-0.285606324672699,-0.42427584528923035,0.5980241298675537
1667709580166514700,0.8635146484375,-0.33783426880836487,-0.505609929561615,0.7744203209877014
1667709580176565800,0.873565673828125,-0.352805495262146,-0.5296401381492615,0.839391827583313
1667709580186616600,0.883616455078125,-0.36096546053886414,-0.4612225294113159,0.7801182270050049
1667709580196667600,0.893667724609375,-0.3856827914714813,-0.284435510635376,0.6188020706176758
1667709580206718700,0.90371875,-0.4385317862033844,-0.06627923250198364,0.4057599902153015
1667709580216769500,0.91376953125,-0.4899635314941406,0.10239793360233307,0.21011511981487274
1667709580226819600,0.923819580078125,-0.5095155239105225,0.16636177897453308,0.02864948846399784
1667709580236870400,0.933870361328125,-0.48680564761161804,0.14204524457454681,-0.11355079710483551
1667709580246921500,0.94392138671875,-0.4595629870891571,0.07809801399707794,-0.2039557695388794
1667709580256972500,0.95397265625,-0.44455981254577637,0.021788936108350754,-0.2503107488155365
1667709580267023600,0.964023681640625,-0.43863898515701294,-0.0018547734944149852,-0.25442081689834595
1667709580277074700,0.97407470703125,-0.45535698533058167,0.00925646722316742,-0.23565351963043213
1667709580287124700,0.984124755859375,-0.44682759046554565,0.06517573446035385,-0.19816575944423676
1667709580297175600,0.994175537109375,-0.42304638028144836,0.15638767182826996,-0.14816118776798248
1667709580307226600,1.0042265625,-0.3859970271587372,0.28023701906204224,-0.10241864621639252
1667709580317277700,1.014277587890625,-0.35275760293006897,0.37534278631210327,-0.0964670181274414
1667709580327328800,1.024328857421875,-0.3219183087348938,0.3653663098812103,-0.1438610553741455
1667709580337379300,1.03437939453125,-0.2768957018852234,0.24309100210666656,-0.25711360573768616
1667709580347429600,1.0444296875,-0.2299523800611496,0.04048697277903557,-0.39689168334007263
1667709580357480400,1.05448046875,-0.19665008783340454,-0.21073167026042938,-0.5573468804359436
1667709580367531500,1.064531494140625,-0.19114646315574646,-0.40762197971343994,-0.6702778935432434
1667709580377582600,1.07458251953125,-0.21102961897850037,-0.5215264558792114,-0.6858727931976318
1667709580387633700,1.084633544921875,-0.2271992713212967,-0.6016297936439514,-0.5904291272163391
1667709580397684500,1.0946845703125,-0.2480243444442749,-0.6343268752098083,-0.42776426672935486
1667709580407734500,1.104734619140625,-0.27858689427375793,-0.555669367313385,-0.2326812744140625
1667709580417785600,1.11478564453125,-0.31828930974006653,-0.3983186185359955,-0.03569522872567177
1667709580427836700,1.124836669921875,-0.34670785069465637,-0.2210729718208313,0.1340574473142624
1667709580437887700,1.1348876953125,-0.34254878759384155,-0.04456717148423195,0.2644231617450714
1667709580447938600,1.1449384765625,-0.31317204236984253,0.09397494792938232,0.36259356141090393
1667709580457989400,1.1549892578125,-0.27507951855659485,0.14080797135829926,0.4241386651992798
1667709580468039400,1.165039306640625,-0.2326333373785019,0.12387314438819885,0.4287269115447998
1667709580478090500,1.175090576171875,-0.1968873143196106,0.0918813943862915,0.3803010582923889
1667709580488141600,1.1851416015625,-0.18023943901062012,0.10666296631097794,0.29619672894477844
1667709580498192600,1.195192626953125,-0.17164701223373413,0.12270186096429825,0.18025468289852142
1667709580508243500,1.205243408203125,-0.1653088629245758,0.10226016491651535,0.03465225175023079
1667709580518294500,1.21529443359375,-0.13478823006153107,0.04478888213634491,-0.09257813543081284
1667709580528344600,1.225344482421875,-0.09823489189147949,-0.04769469425082207,-0.15833680331707
1667709580538395600,1.235395751953125,-0.07450959086418152,-0.13601310551166534,-0.16372863948345184
1667709580548446700,1.24544677734375,-0.06767862290143967,-0.194896399974823,-0.10081218183040619
1667709580558497800,1.255497802734375,-0.0573013499379158,-0.1785440593957901,0.011966565623879433
1667709580568548600,1.265548583984375,-0.03143647313117981,-0.1094546690583229,0.14684036374092102
1667709580578599400,1.275599365234375,0.007176164537668228,0.003380797104910016,0.24759307503700256
1667709580588649500,1.2856494140625,0.03495010361075401,0.09769420325756073,0.30136704444885254
1667709580598700500,1.295700439453125,0.038754429668188095,0.20648859441280365,0.28051531314849854
1667709580608751600,1.305751708984375,0.015560774132609367,0.3303000330924988,0.2103365957736969
1667709580618802400,1.315802490234375,-0.012036498636007309,0.4245237410068512,0.12967105209827423
1667709580628853500,1.325853515625,-0.05353568121790886,0.45398035645484924,0.06977401673793793
1667709580638904600,1.335904541015625,-0.07934170961380005,0.43307214975357056,0.017446355894207954
1667709580648954600,1.34595458984375,-0.07445500791072845,0.3446899354457855,-0.04882509261369705
1667709580659005700,1.356005615234375,-0.051221586763858795,0.2646201252937317,-0.14150895178318024
1667709580669056800,1.366056884765625,0.0026935019996017218,0.19428914785385132,-0.24397912621498108
1667709580679107600,1.376107666015625,0.07513681054115295,0.17618045210838318,-0.3431227505207062
1667709580689158700,1.38615869140625,0.12779267132282257,0.16186663508415222,-0.4151313006877899
1667709580699209500,1.39620947265625,0.13866716623306274,0.1805548369884491,-0.45170503854751587
1667709580709260500,1.406260498046875,0.1383706033229828,0.24987034499645233,-0.43136972188949585
1667709580719310600,1.416310546875,0.12425585091114044,0.35410088300704956,-0.3106110692024231
1667709580729361400,1.426361328125,0.0882565975189209,0.4660125970840454,-0.09658553451299667
1667709580739412500,1.43641259765625,0.06334085762500763,0.5905457139015198,0.15786564350128174
1667709580749463600,1.446463623046875,0.050925835967063904,0.6942933797836304,0.38099703192710876
1667709580759514600,1.4565146484375,0.05453601852059364,0.7778223752975464,0.4876161813735962
1667709580769565700,1.466565673828125,0.11881544440984726,0.7539804577827454,0.3856915235519409
1667709580779615700,1.47661572265625,0.18445517122745514,0.5148330926895142,0.14512312412261963
1667709580789666600,1.48666650390625,0.21817459166049957,0.14951565861701965,-0.14845997095108032
1667709580799717600,1.496717529296875,0.24659503996372223,-0.15101061761379242,-0.42191895842552185
1667709580809768700,1.506768798828125,0.24688628315925598,-0.304922491312027,-0.59455406665802
1667709580819819300,1.5168193359375,0.22630217671394348,-0.327523410320282,-0.6404105424880981
1667709580829869300,1.526869384765625,0.2006475329399109,-0.19405288994312286,-0.5591148734092712
1667709580839920400,1.53692041015625,0.18175825476646423,0.015315517783164978,-0.37605053186416626
1667709580849971200,1.54697119140625,0.15901313722133636,0.20475097000598907,-0.20443765819072723
1667709580860022300,1.557022216796875,0.1606600284576416,0.33311134576797485,-0.11960744857788086
1667709580870073300,1.5670732421875,0.1871994137763977,0.3636857271194458,-0.12040384858846664
1667709580880124400,1.57712451171875,0.214228093624115,0.3604758381843567,-0.18636874854564667
1667709580890175200,1.58717529296875,0.23587319254875183,0.35826438665390015,-0.27448198199272156
1667709580900225300,1.597225341796875,0.25935056805610657,0.3191838264465332,-0.3542654812335968
1667709580910276400,1.6072763671875,0.2868596613407135,0.24329861998558044,-0.39514753222465515
1667709580920327400,1.617327392578125,0.2946121096611023,0.1660110205411911,-0.43110767006874084
1667709580930378500,1.62737841796875,0.289119690656662,0.08700960874557495,-0.4859364926815033
1667709580940429300,1.63742919921875,0.27364781498908997,0.04157022014260292,-0.5211453437805176
1667709580950480100,1.647480224609375,0.2791481912136078,0.021004337817430496,-0.5299482345581055
1667709580960530200,1.6575302734375,0.29048392176628113,-0.004631517454981804,-0.5235971808433533
1667709580970581200,1.667581298828125,0.3145638108253479,-0.007679536007344723,-0.5104390382766724
1667709580980632300,1.67763232421875,0.3319944441318512,0.03269584849476814,-0.47873035073280334
1667709580990683400,1.687683349609375,0.35380613803863525,0.1146237850189209,-0.4145633280277252
1667709581000734200,1.697734130859375,0.36181747913360596,0.1987684965133667,-0.3511393666267395
1667709581010785300,1.707785400390625,0.35238805413246155,0.26563966274261475,-0.32501837611198425
1667709581020835300,1.71783544921875,0.30619072914123535,0.24066348373889923,-0.3492291569709778
1667709581030886400,1.727886474609375,0.2566082775592804,0.16144342720508575,-0.3980295956134796
1667709581040937500,1.7379375,0.2351362556219101,0.11362157762050629,-0.4412841200828552
1667709581050988500,1.747988525390625,0.2359408587217331,0.06098148226737976,-0.4651441276073456
1667709581061039000,1.7580390625,0.26388463377952576,0.0027677109465003014,-0.5004669427871704
1667709581071089200,1.768089111328125,0.29707446694374084,-0.036710239946842194,-0.5599756836891174
1667709581081140200,1.77814013671875,0.29606008529663086,-0.006148869637399912,-0.595271110534668
1667709581091191300,1.78819140625,0.2614690363407135,0.08132202178239822,-0.5510420799255371
1667709581101242400,1.798242431640625,0.211340069770813,0.15112240612506866,-0.45503273606300354
1667709581111293400,1.80829345703125,0.13793545961380005,0.1642410159111023,-0.35456594824790955
1667709581121344300,1.81834423828125,0.09202071279287338,0.1938399225473404,-0.2727038264274597
1667709581131395300,1.828395263671875,0.06889016926288605,0.2237379401922226,-0.21813902258872986
1667709581141445400,1.8384453125,0.03238222748041153,0.240256205201149,-0.17071132361888885
1667709581151496400,1.848496337890625,-0.056633803993463516,0.2643581032752991,-0.11201221495866776
1667709581161547500,1.858547607421875,-0.18619152903556824,0.31414884328842163,-0.020863931626081467
1667709581171598300,1.868598388671875,-0.30617615580558777,0.4076763689517975,0.09004624933004379
1667709581181649200,1.878649169921875,-0.3944631516933441,0.501441478729248,0.1249171569943428
1667709581191700200,1.8887001953125,-0.4558527171611786,0.5664903521537781,0.010962145403027534
1667709581201750300,1.898750244140625,-0.46365416049957275,0.6077786684036255,-0.23891186714172363
1667709581211801300,1.90880126953125,-0.4082474410533905,0.6661651134490967,-0.5567545294761658
1667709581221852400,1.918852294921875,-0.3657122552394867,0.7630195021629333,-0.8272789716720581
1667709581231903200,1.9289033203125,-0.38084647059440613,0.84894198179245,-0.9967448115348816
1667709581241954300,1.938954345703125,-0.42887362837791443,0.9089664220809937,-1.042289137840271
1667709581252005400,1.94900537109375,-0.5053221583366394,0.9150665998458862,-0.9781334400177002
1667709581262055400,1.959055419921875,-0.5608887076377869,0.8239100575447083,-0.8660066723823547
1667709581272106500,1.9691064453125,-0.6090847253799438,0.6372357606887817,-0.7553300261497498
1667709581282157300,1.9791572265625,-0.6436464786529541,0.4511082172393799,-0.6641950607299805
1667709581292208400,1.98920849609375,-0.63862544298172,0.25478583574295044,-0.586100697517395
1667709581302259200,1.99925927734375,-0.5838157534599304,0.07339844107627869,-0.5595380663871765
1667709581312310300,2.009310302734375,-0.49337488412857056,0.01448540948331356,-0.597225546836853
1667709581322360300,2.0193603515625,-0.43314218521118164,0.020232778042554855,-0.6324455738067627
1667709581332411400,2.029411376953125,-0.41928693652153015,0.013980919495224953,-0.626532256603241
1667709581342462200,2.039462158203125,-0.42977580428123474,-0.03879707306623459,-0.525500476360321
1667709581352513300,2.04951318359375,-0.4614487588405609,-0.12075105309486389,-0.4226553440093994
1667709581362564400,2.059564453125,-0.44697606563568115,-0.17012712359428406,-0.3021784722805023
1667709581372615400,2.069615478515625,-0.3958786427974701,-0.19654300808906555,-0.12422621995210648
1667709581382665500,2.07966552734375,-0.3889906406402588,-0.1715838611125946,0.08154957741498947
1667709581392716300,2.08971630859375,-0.4176304042339325,-0.09739696979522705,0.26272210478782654
1667709581402767400,2.099767333984375,-0.42281609773635864,-0.003563149832189083,0.37252476811408997
1667709581412818400,2.109818359375,-0.3940694034099579,0.0358147919178009,0.42227044701576233
1667709581422869200,2.119869140625,-0.36818695068359375,0.08939120173454285,0.4171009957790375
1667709581432920300,2.12992041015625,-0.33273860812187195,0.1293305903673172,0.3498803973197937
1667709581442970400,2.139970458984375,-0.29194483160972595,0.11394364386796951,0.22304439544677734
1667709581453021200,2.150021240234375,-0.24626056849956512,0.08266617357730865,0.04343052953481674
1667709581463072300,2.160072265625,-0.20854994654655457,0.06012837588787079,-0.1726306527853012
1667709581473123300,2.170123291015625,-0.1796848028898239,0.019926751032471657,-0.3693383038043976
1667709581483174400,2.18017431640625,-0.18981067836284637,-0.0056505147367715836,-0.49835169315338135
1667709581493225200,2.19022509765625,-0.20716935396194458,0.019371584057807922,-0.5640372633934021
1667709581503275500,2.200275634765625,-0.21743904054164886,0.04920937493443489,-0.5645397901535034
1667709581513326300,2.210326416015625,-0.22382555902004242,0.06179680675268173,-0.5311275124549866
1667709581523377400,2.22037744140625,-0.2440384179353714,0.0704699233174324,-0.46779513359069824
1667709581533428500,2.230428466796875,-0.283968061208725,0.07173509150743484,-0.3763727843761444
1667709581543479300,2.240479248046875,-0.33952876925468445,0.07772666960954666,-0.2617838978767395
1667709581553530000,2.250530029296875,-0.397676944732666,0.0960809588432312,-0.13385652005672455
1667709581563580200,2.260580078125,-0.4389556646347046,0.1407267153263092,-0.008627227507531643
1667709581573631200,2.27063134765625,-0.46260181069374084,0.2124125063419342,0.09526313841342926
1667709581583682300,2.280682373046875,-0.46107661724090576,0.29081517457962036,0.17728076875209808
1667709581593733400,2.2907333984375,-0.4422155022621155,0.3526705205440521,0.2295657992362976
1667709581603784400,2.300784423828125,-0.43102729320526123,0.43646687269210815,0.27575594186782837
1667709581613835300,2.310835205078125,-0.4352829158306122,0.5538018941879272,0.3257034718990326
1667709581623885300,2.32088525390625,-0.47393471002578735,0.7135611772537231,0.37305688858032227
1667709581633936400,2.330936279296875,-0.5572664737701416,0.9600756168365479,0.4141465723514557
1667709581643987500,2.340987548828125,-0.6897083520889282,1.32722806930542,0.45939821004867554
1667709581654038500,2.35103857421875,-0.7960777878761292,1.752344012260437,0.5111616253852844
1667709581664089000,2.361089111328125,-0.8957164883613586,2.1772615909576416,0.5446287393569946
1667709581674140200,2.37114013671875,-1.0197813510894775,2.6528289318084717,0.5335303544998169
1667709581684190200,2.381190185546875,-1.1936314105987549,3.148670196533203,0.5351250171661377
1667709581694241300,2.3912412109375,-1.443532943725586,3.653820753097534,0.6043320894241333
1667709581704292400,2.401292236328125,-1.820101022720337,3.8735430240631104,0.6285514235496521
1667709581714343400,2.411343505859375,-2.162806272506714,3.797762393951416,0.5556803345680237
1667709581724394200,2.421394287109375,-2.5576250553131104,3.6876144409179688,0.33874988555908203
1667709581734445300,2.4314453125,-3.2123684883117676,3.8011081218719482,0.13224656879901886
1667709581744495400,2.441495361328125,-3.7285964488983154,4.180285453796387,0.09820497035980225
1667709581754546400,2.45154638671875,-4.1231231689453125,4.659144878387451,0.16859225928783417
1667709581764597500,2.461597412109375,-4.489034175872803,5.003033638000488,0.2408350259065628
1667709581774648300,2.4716484375,-5.032916069030762,5.120832920074463,0.1486106961965561
1667709581784699100,2.48169921875,-5.476758003234863,5.053705215454102,-0.11517859250307083
1667709581794750200,2.491750244140625,-5.6974077224731445,5.21086311340332,-0.4800375699996948
1667709581804800300,2.50180029296875,-5.664531230926514,5.595347881317139,-0.8246711492538452
1667709581814851300,2.511851318359375,-5.570815086364746,5.929250240325928,-1.1933157444000244
1667709581824902400,2.52190234375,-5.495754241943359,6.063884258270264,-1.641121506690979
1667709581834953200,2.531953125,-5.373287200927734,6.120383262634277,-2.091249704360962
1667709581845004300,2.54200439453125,-5.175461769104004,6.1552886962890625,-2.410301685333252
1667709581855055400,2.552055419921875,-4.975625514984131,6.121872425079346,-2.4795937538146973
1667709581865105400,2.56210546875,-4.937108993530273,5.966644287109375,-2.2127788066864014
1667709581875156500,2.572156494140625,-4.98320198059082,5.434154033660889,-1.779004454612732
1667709581885207300,2.582207275390625,-4.965385437011719,4.660506248474121,-1.3168277740478516
1667709581895258400,2.59225830078125,-4.901453495025635,3.8536179065704346,-0.8532816171646118
1667709581905309200,2.60230908203125,-4.810383319854736,3.017037868499756,-0.46654319763183594
1667709581915360300,2.6123603515625,-4.624372959136963,2.2083852291107178,-0.14121058583259583
1667709581925411300,2.622411376953125,-4.339818477630615,1.4455084800720215,0.1179267093539238
1667709581935461400,2.63246142578125,-3.9995343685150146,0.8064652681350708,0.38185915350914
1667709581945512200,2.64251220703125,-3.5614583492279053,0.2685434818267822,0.5789978504180908
1667709581955563300,2.652563232421875,-3.163215398788452,-0.25163018703460693,0.5938370227813721
1667709581965614300,2.6626142578125,-2.8383610248565674,-0.7352913618087769,0.4680234491825104
1667709581975665400,2.67266552734375,-2.5588440895080566,-1.1387391090393066,0.3396033048629761
1667709581985715500,2.682715576171875,-2.349896192550659,-1.410400152206421,0.13005541265010834
1667709581995766500,2.6927666015625,-2.1049721240997314,-1.406733751296997,-0.21539714932441711
1667709582005817300,2.7028173828125,-1.7768338918685913,-1.1028825044631958,-0.6676498651504517
1667709582015868400,2.712868408203125,-1.4821429252624512,-0.728797972202301,-1.1170212030410767
1667709582025919500,2.72291943359375,-1.2436357736587524,-0.34158292412757874,-1.442538857460022
1667709582035970300,2.73297021484375,-1.0189398527145386,0.038095757365226746,-1.5962671041488647
1667709582046021000,2.743021240234375,-0.813282310962677,0.29990288615226746,-1.58808434009552
1667709582056071200,2.7530712890625,-0.6792182922363281,0.39200103282928467,-1.4384639263153076
1667709582066122200,2.763122314453125,-0.6866298913955688,0.3972405195236206,-1.1813567876815796
1667709582076173300,2.77317333984375,-0.8204242587089539,0.26135316491127014,-0.8714584112167358
1667709582086224400,2.783224365234375,-1.0388758182525635,0.0457518994808197,-0.5626664757728577
1667709582096275500,2.793275390625,-1.284532070159912,-0.1475192755460739,-0.26561716198921204
1667709582106326300,2.803326171875,-1.448987603187561,-0.2811841368675232,0.026006147265434265
1667709582116376300,2.813376220703125,-1.5464924573898315,-0.30100780725479126,0.34288710355758667
1667709582126427400,2.823427490234375,-1.6405669450759888,-0.33956772089004517,0.6749851703643799
1667709582136478500,2.833478515625,-1.787475824356079,-0.6033816337585449,0.9170545339584351
1667709582146529500,2.843529541015625,-1.8918991088867188,-0.9845132827758789,0.9760781526565552
1667709582156580000,2.853580078125,-1.789089322090149,-1.148539662361145,0.8886417150497437
1667709582166631200,2.863631103515625,-1.55012845993042,-1.2651605606079102,0.7415534853935242
1667709582176681200,2.87368115234375,-1.2247283458709717,-1.5646706819534302,0.47870874404907227
1667709582186732300,2.883732177734375,-0.8221573829650879,-1.4866636991500854,0.5347549915313721
1667709582196783400,2.893783447265625,-0.5176461935043335,-1.728148102760315,0.819394052028656
1667709582206834400,2.90383447265625,-0.375194251537323,-1.8557878732681274,1.019607663154602
1667709582216885200,2.91388525390625,-0.2742213010787964,-1.8316110372543335,1.0965757369995117
1667709582226936300,2.923936279296875,-0.30305853486061096,-2.0097570419311523,0.9938839673995972
1667709582236986400,2.933986328125,-0.35801199078559875,-2.2795908451080322,0.7849768996238708
1667709582247037400,2.944037353515625,-0.32644394040107727,-2.3834750652313232,0.5700523257255554
1667709582257088500,2.954088623046875,-0.2903537452220917,-2.3164637088775635,0.42281994223594666
1667709582267139300,2.964139404296875,-0.18137292563915253,-2.171125650405884,0.3406504988670349
1667709582277190100,2.974190185546875,0.003280794247984886,-1.8946622610092163,0.3034718930721283
1667709582287241200,2.9842412109375,0.12989652156829834,-1.7328358888626099,0.3650481700897217
1667709582297291300,2.994291259765625,0.26085445284843445,-1.3101141452789307,0.575824499130249
1667709582307342300,3.00434228515625,0.26058652997016907,-0.8393059372901917,0.7854072451591492
1667709582317393400,3.014393310546875,0.1569015234708786,-0.52867192029953,0.8850634694099426
1667709582327444200,3.0244443359375,0.06426266580820084,-0.1869766116142273,0.931505560874939
1667709582337495300,3.034495361328125,-0.0020568608306348324,0.08351705223321915,0.909956693649292
1667709582347546400,3.04454638671875,-0.13671746850013733,0.2892571687698364,0.8017098903656006
1667709582357596400,3.054596435546875,-0.48655617237091064,0.3844737708568573,0.619549572467804
1667709582367647500,3.0646474609375,-0.46603092551231384,0.11830172687768936,0.40730148553848267
1667709582377698300,3.0746982421875,-0.06539995968341827,-0.37546202540397644,0.18746820092201233
1667709582387749400,3.084749267578125,0.3452298939228058,-0.648833692073822,0.040601521730422974
1667709582397800200,3.09480029296875,0.6284712553024292,-0.7098508477210999,0.04551716148853302
1667709582407851300,3.104851318359375,0.7774130702018738,-0.8844735026359558,0.05720817670226097
1667709582417902300,3.11490234375,0.8241932988166809,-1.0806825160980225,0.06826217472553253
1667709582427952400,3.124952392578125,0.8621942400932312,-1.3197606801986694,0.0487728975713253
1667709582438003200,3.135003173828125,0.8693472743034363,-1.5517339706420898,-0.020053181797266006
1667709582448054300,3.14505419921875,0.761860728263855,-1.7173799276351929,-0.0540284626185894
1667709582458105300,3.155105224609375,0.5802287459373474,-1.8529354333877563,0.0448906347155571
1667709582468156400,3.165156494140625,0.33769118785858154,-1.652418613433838,0.28826016187667847
1667709582478207200,3.175207275390625,0.01040781568735838,-1.1206212043762207,0.5464487671852112
1667709582488257500,3.185257568359375,-0.38297781348228455,-0.7518844604492188,0.628434956073761
1667709582498308400,3.195308349609375,-0.6825245022773743,-0.13166889548301697,0.6662172079086304
1667709582508359400,3.205359375,-0.7120898365974426,1.00548255443573,0.9359033107757568
1667709582518410200,3.21541015625,-0.5855529308319092,2.4902100563049316,1.602927327156067
1667709582528461300,3.22546142578125,-0.4346552789211273,3.3512821197509766,2.183534622192383
1667709582538512100,3.23551220703125,-0.43629762530326843,3.664114475250244,2.407822847366333
1667709582548562200,3.245562255859375,-0.6554417014122009,3.1352992057800293,2.2803943157196045
1667709582558613200,3.25561328125,-0.9361446499824524,2.2873308658599854,1.8663396835327148
1667709582568664300,3.265664306640625,-1.226417064666748,1.7005535364151,1.6740955114364624
1667709582578715400,3.27571533203125,-1.151993989944458,1.4576202630996704,1.6485222578048706
1667709582588766500,3.285766357421875,-0.6957741975784302,1.2243270874023438,1.773955225944519
1667709582598817300,3.2958173828125,-0.7104253768920898,1.2287977933883667,2.065704822540283
1667709582608867300,3.305867431640625,-0.6065101623535156,1.182679295539856,2.064573287963867
1667709582618918400,3.31591845703125,-0.5262554883956909,1.1874325275421143,1.759034514427185
1667709582628969500,3.325969482421875,-0.5031704306602478,0.9527595639228821,1.4321184158325195
1667709582639020300,3.336020263671875,-0.43192654848098755,0.8911588788032532,1.087445855140686
1667709582649071000,3.346071044921875,-0.14517493546009064,0.951544463634491,0.7832071781158447
1667709582659122200,3.3561220703125,0.13699115812778473,1.2721564769744873,0.5785940885543823
1667709582669173200,3.36617333984375,0.35180598497390747,1.6172631978988647,0.5540080666542053
1667709582679223300,3.376223388671875,0.5260292887687683,1.8901392221450806,0.5734034776687622
1667709582689274400,3.3862744140625,0.6388831734657288,2.197089433670044,0.5261009335517883
1667709582699325400,3.396325439453125,0.61696457862854,2.485081195831299,0.489807665348053
1667709582709376300,3.406376220703125,0.6193838119506836,2.5615384578704834,0.574999213218689
1667709582719427300,3.41642724609375,0.7336796522140503,2.548959255218506,0.8045830726623535
1667709582729478400,3.426478515625,0.661305844783783,2.2566025257110596,1.038858413696289
1667709582739528400,3.436528564453125,0.4550352394580841,1.906378984451294,1.0081202983856201
1667709582749579500,3.44657958984375,0.49795979261398315,1.709712266921997,0.900178074836731
1667709582759630000,3.456630126953125,0.6418300867080688,1.720855474472046,0.8648908734321594
1667709582769681200,3.46668115234375,0.6618562936782837,1.8828701972961426,0.8964166045188904
1667709582779732200,3.476732177734375,0.5821625590324402,2.181304693222046,0.9562231302261353
1667709582789783300,3.486783203125,0.7050908803939819,2.4334983825683594,1.0202544927597046
1667709582799833300,3.496833251953125,0.8159153461456299,2.403017997741699,1.0426971912384033
1667709582809884400,3.506884521484375,0.7997731566429138,1.9754589796066284,1.150170922279358
1667709582819935200,3.516935302734375,0.6971839070320129,1.247584581375122,1.11112380027771
1667709582829985500,3.526985595703125,0.6848819851875305,0.7456299066543579,0.8125000596046448
1667709582840036600,3.53703662109375,0.6997424364089966,0.5174858570098877,0.5710290670394897
1667709582850087700,3.547087646484375,0.6421329379081726,0.5034733414649963,0.39248672127723694
1667709582860137700,3.5571376953125,0.5808604955673218,0.763030469417572,0.34287017583847046
1667709582870188800,3.567188720703125,0.517939031124115,0.9203551411628723,0.39299964904785156
1667709582880239600,3.577239501953125,0.40843093395233154,1.0479496717453003,0.39730745553970337
1667709582890290700,3.587290771484375,0.13315384089946747,1.2544822692871094,0.3407222032546997
1667709582900341800,3.597341796875,-0.03407226502895355,1.494275689125061,0.1848030537366867
1667709582910392800,3.607392822265625,0.05866912379860878,1.42597496509552,0.10665100812911987
1667709582920443600,3.617443603515625,0.5356631875038147,1.1488534212112427,0.1228979229927063
1667709582930493700,3.62749365234375,1.1743921041488647,0.733634889125824,0.2407180368900299
1667709582940544500,3.63754443359375,1.626799464225769,0.4717022478580475,0.1723000407218933
1667709582950595600,3.647595703125,1.5869873762130737,0.29869183897972107,0.09747906029224396
1667709582960646700,3.657646728515625,1.0565415620803833,0.22558754682540894,0.10037684440612793
1667709582970697700,3.66769775390625,0.2198614776134491,0.1848721206188202,0.005604018922895193
1667709582980748500,3.67774853515625,-0.4304884374141693,0.2643852233886719,-0.3016243577003479
1667709582990798600,3.687798583984375,-1.0199357271194458,0.1265711635351181,-0.22912056744098663
1667709583000849700,3.697849609375,-1.4700950384140015,-0.4776952862739563,-0.13078932464122772
1667709583010900700,3.707900634765625,-1.4247387647628784,-0.6533198356628418,-0.21328605711460114
1667709583020951800,3.717951904296875,-1.219942569732666,-0.7465476989746094,-0.3151922821998596
1667709583031003000,3.7280029296875,-0.9682687520980835,-0.5992761850357056,-0.29020437598228455
1667709583041053700,3.7380537109375,-0.7149909138679504,-0.22882898151874542,-0.2845824062824249
1667709583051103500,3.748103515625,-0.47620630264282227,0.2053685486316681,-0.3368416130542755
1667709583061154600,3.758154541015625,-0.24703596532344818,0.6450816988945007,-0.30829358100891113
1667709583071205600,3.76820556640625,-0.002867510076612234,0.9970865845680237,-0.15490615367889404
1667709583081256700,3.778256591796875,0.2675555348396301,1.2111314535140991,-0.02514045499265194
1667709583091307500,3.7883076171875,0.554405152797699,1.2897309064865112,-0.0233465489000082
1667709583101358600,3.798358642578125,0.8954764008522034,1.2266173362731934,-0.13919179141521454
1667709583111408600,3.80840869140625,1.265717625617981,1.0158798694610596,-0.34418007731437683
1667709583121459700,3.818459716796875,1.4721180200576782,0.5818502306938171,-0.6860833168029785
1667709583131510800,3.8285107421875,1.409134864807129,0.08546286076307297,-1.195635199546814
1667709583141561900,3.838561767578125,1.2176870107650757,-0.24917982518672943,-1.7870303392410278
1667709583151612700,3.84861279296875,1.0821462869644165,-0.37259283661842346,-2.355395555496216
1667709583161663700,3.858663818359375,0.9905828833580017,-0.3541933298110962,-2.9365594387054443
1667709583171714800,3.86871484375,1.0044810771942139,-0.5268447399139404,-3.506608486175537
1667709583181764600,3.8787646484375,1.0367100238800049,-0.8717567920684814,-3.8000881671905518
1667709583191815700,3.888815673828125,0.9754830002784729,-1.276301622390747,-3.906186819076538
1667709583201866800,3.89886669921875,0.9032522439956665,-1.7964366674423218,-3.884610414505005
1667709583211917600,3.90891748046875,0.7622197866439819,-2.2486624717712402,-3.809061050415039
1667709583221968600,3.91896875,0.623177170753479,-2.5621049404144287,-3.677797555923462
1667709583232019700,3.929019775390625,0.4556891620159149,-2.831470012664795,-3.4663007259368896
1667709583242069800,3.93906982421875,0.30589765310287476,-2.731193780899048,-3.1011013984680176
1667709583252120800,3.949120849609375,0.31266820430755615,-2.2949929237365723,-2.6288325786590576
1667709583262171600,3.959171630859375,0.6030977368354797,-1.6706252098083496,-2.1207361221313477
1667709583272222700,3.96922265625,0.9341302514076233,-1.024207592010498,-1.7109633684158325
1667709583282273800,3.979273681640625,1.308600902557373,-0.5465607643127441,-1.4071513414382935
1667709583292324900,3.989324951171875,1.7135344743728638,-0.22332626581192017,-1.2328993082046509
1667709583302374700,3.999374755859375,2.0512633323669434,-0.023302346467971802,-1.1993178129196167
1667709583312425700,4.00942578125,2.297004222869873,-0.02809710055589676,-1.2632368803024292
1667709583322476500,4.0194765625,2.338911771774292,-0.2408248484134674,-1.3725577592849731
1667709583332527600,4.029527587890625,2.179844379425049,-0.547084391117096,-1.4964752197265625
1667709583342578700,4.03957861328125,1.922626256942749,-0.7579088807106018,-1.793691873550415
1667709583352629800,4.049629638671875,1.7627660036087036,-0.9733293056488037,-2.0211093425750732
1667709583362679800,4.0596796875,1.7338957786560059,-1.0903708934783936,-2.119086742401123
1667709583372730600,4.069730712890625,1.7601734399795532,-1.1843153238296509,-2.1451539993286133
1667709583382781700,4.07978173828125,1.7783634662628174,-1.2766728401184082,-2.121561288833618
1667709583392832800,4.089832763671875,1.8844749927520752,-1.3406016826629639,-2.0149359703063965
1667709583402883800,4.0998837890625,2.142111301422119,-1.3069586753845215,-1.8562355041503906
1667709583412934700,4.1099345703125,2.5386011600494385,-1.2354434728622437,-1.7178534269332886
1667709583422984700,4.119984619140625,2.8562240600585938,-1.263209342956543,-1.6352072954177856
1667709583433035500,4.130035400390625,3.1023480892181396,-1.476549506187439,-1.6570438146591187
1667709583443086600,4.140086669921875,3.2401185035705566,-1.6778117418289185,-1.7517740726470947
1667709583453137700,4.1501376953125,3.262582302093506,-1.623140811920166,-2.0599844455718994
1667709583463188700,4.160188720703125,3.2878453731536865,-1.2523632049560547,-2.67169451713562
1667709583473239600,4.170239501953125,3.3947925567626953,-0.6445661783218384,-3.373220920562744
1667709583483289600,4.18028955078125,3.719010829925537,-0.09612327069044113,-3.898740768432617
1667709583493340700,4.190340576171875,4.134967803955078,0.1472824513912201,-4.220953464508057
1667709583503391700,4.200391845703125,4.387026309967041,-0.13159894943237305,-4.455837249755859
1667709583513442800,4.21044287109375,4.537594795227051,-0.991824209690094,-4.690186500549316
1667709583523494000,4.220493896484375,4.495580196380615,-2.3152267932891846,-5.030737400054932
1667709583533544700,4.230544677734375,4.37143087387085,-3.519315004348755,-5.413365364074707
1667709583543594500,4.240594482421875,4.277054309844971,-4.272337913513184,-5.623431205749512
1667709583553645600,4.2506455078125,4.166470527648926,-4.856449604034424,-5.4002275466918945
1667709583563696600,4.260696533203125,4.029375076293945,-5.0776262283325195,-4.755680561065674
1667709583573747700,4.270747802734375,3.822641611099243,-4.7311930656433105,-3.946955919265747
1667709583583798500,4.280798583984375,3.642361640930176,-4.047107696533203,-3.082557439804077
1667709583593849600,4.290849609375,3.559194803237915,-3.5428473949432373,-2.1559484004974365
1667709583603900700,4.300900634765625,3.383759021759033,-3.282780885696411,-1.2682900428771973
1667709583613950700,4.31095068359375,3.007652759552002,-3.2855796813964844,-0.8074101209640503
1667709583624001800,4.321001708984375,2.568054437637329,-3.523179769515991,-0.7699602842330933
1667709583634052900,4.331052978515625,2.268512725830078,-3.6061270236968994,-0.9339936971664429
1667709583644103700,4.341103759765625,2.093386650085449,-3.504424571990967,-1.085696816444397
1667709583654154800,4.35115478515625,2.0106399059295654,-3.281878709793091,-1.1132887601852417
1667709583664204500,4.36120458984375,1.9646238088607788,-3.1003403663635254,-0.971958577632904
1667709583674255600,4.371255615234375,1.9286950826644897,-2.8357362747192383,-0.6702980995178223
1667709583684305700,4.3813056640625,1.8891018629074097,-2.671563148498535,-0.32345524430274963
1667709583694356700,4.391356689453125,1.8123958110809326,-2.7443368434906006,-0.09419488161802292
1667709583704407800,4.40140771484375,1.5812429189682007,-2.9464123249053955,0.014536546543240547
1667709583714458600,4.411458740234375,1.242289423942566,-3.1288952827453613,0.09120149165391922
1667709583724509700,4.421509765625,0.864632248878479,-3.123868942260742,0.16215352714061737
1667709583734560800,4.431560791015625,0.4915556013584137,-3.022001266479492,0.22750884294509888
1667709583744611800,4.44161181640625,0.18284070491790771,-2.8228933811187744,0.3056069612503052
1667709583754662000,4.451661865234375,-0.10446351021528244,-2.513465404510498,0.40340036153793335
1667709583764712700,4.461712646484375,-0.3862455487251282,-2.1408307552337646,0.4343022108078003
1667709583774763500,4.471763427734375,-0.5946464538574219,-1.8049465417861938,0.4339730441570282
1667709583784814600,4.481814697265625,-0.7045197486877441,-1.471314549446106,0.3905825614929199
1667709583794865700,4.49186572265625,-0.775063693523407,-1.3173068761825562,0.25873878598213196
1667709583804916700,4.501916748046875,-0.8231894373893738,-1.3334659337997437,0.03839251026511192
1667709583814966800,4.511966796875,-0.8324273824691772,-1.353464961051941,-0.14154157042503357
1667709583825018400,4.522018310546875,-0.7866765856742859,-1.3472737073898315,-0.21941670775413513
1667709583835069400,4.5320693359375,-0.7451049089431763,-1.3429921865463257,-0.1863175928592682
1667709583845120500,4.54212060546875,-0.7072596549987793,-1.3110154867172241,-0.0368599109351635
1667709583855171300,4.55217138671875,-0.6975350975990295,-1.3231052160263062,0.13539227843284607
1667709583865222100,4.56222216796875,-0.6889311075210571,-1.3413816690444946,0.22114063799381256
1667709583875272200,4.572272216796875,-0.7226914167404175,-1.3078683614730835,0.21640314161777496
1667709583885323300,4.5823232421875,-0.861906886100769,-1.2505851984024048,0.14926613867282867
1667709583895374300,4.592374267578125,-1.1397849321365356,-1.3648667335510254,0.060280606150627136
1667709583905425400,4.60242529296875,-1.2899901866912842,-1.6785211563110352,-0.12279272824525833
1667709583915476200,4.612476318359375,-1.1758558750152588,-1.8456881046295166,-0.38638973236083984
1667709583925527300,4.62252734375,-0.8177171945571899,-1.8129007816314697,-0.6627705693244934
1667709583935577300,4.632577392578125,-0.3483329117298126,-1.667859435081482,-0.8369913697242737
1667709583945628400,4.64262841796875,0.060109663754701614,-1.507272720336914,-0.8157389760017395
1667709583955679500,4.652679443359375,0.2666788101196289,-1.340444564819336,-0.6027321815490723
1667709583965730300,4.662730224609375,0.24208492040634155,-1.1436556577682495,-0.2558780908584595
1667709583975781000,4.672781005859375,0.09661482274532318,-0.8782143592834473,0.09373210370540619
1667709583985832200,4.682832275390625,-0.03046579100191593,-0.674075722694397,0.34938502311706543
1667709583995882200,4.69288232421875,-0.10546307265758514,-0.5940743684768677,0.4499342739582062
1667709584005933300,4.702933349609375,-0.1523953229188919,-0.5788570046424866,0.42206844687461853
1667709584015984400,4.712984375,-0.18985827267169952,-0.5237029194831848,0.3425957262516022
1667709584026035200,4.72303515625,-0.15958087146282196,-0.41608187556266785,0.31094813346862793
1667709584036086300,4.733086181640625,-0.05387654900550842,-0.40589529275894165,0.38242578506469727
1667709584046137300,4.743137451171875,0.03821534663438797,-0.48718464374542236,0.5083734393119812
1667709584056188400,4.7531884765625,0.06796792149543762,-0.5678979158401489,0.5811113119125366
1667709584066238500,4.763238525390625,0.08304069191217422,-0.6227594614028931,0.5767347812652588
1667709584076289500,4.77328955078125,0.09956427663564682,-0.6874375343322754,0.4985209107398987
1667709584086340400,4.78334033203125,0.12028087675571442,-0.8106383681297302,0.3630990982055664
1667709584096391200,4.79339111328125,0.1430319994688034,-0.8614996671676636,0.26093626022338867
1667709584106442200,4.803442138671875,0.14418116211891174,-0.8105074167251587,0.2758975327014923
1667709584116493300,4.813493408203125,0.12216561287641525,-0.7715344429016113,0.4173302948474884
1667709584126543400,4.82354345703125,0.05686496943235397,-0.7946805953979492,0.5602610111236572
1667709584136594200,4.83359423828125,0.013414697721600533,-0.8321022987365723,0.6424434781074524
1667709584146645200,4.843645263671875,0.00022457586601376534,-0.8798454403877258,0.6733344197273254
1667709584156696300,4.8536962890625,0.010777884162962437,-0.8664622902870178,0.6818951368331909
1667709584166747400,4.863747314453125,0.036257755011320114,-0.7634857892990112,0.6641800999641418
1667709584176798500,4.873798583984375,0.05988958105444908,-0.6159546375274658,0.6366411447525024
1667709584186848500,4.8838486328125,0.10179571807384491,-0.522453248500824,0.6415415406227112
1667709584196899300,4.8938994140625,0.17754215002059937,-0.5373408794403076,0.6664234399795532
1667709584206950400,4.903950439453125,0.26220372319221497,-0.6456950306892395,0.6533920168876648
1667709584217001500,4.91400146484375,0.3224897086620331,-0.7955009937286377,0.5575712323188782
1667709584227052300,4.92405224609375,0.31317293643951416,-0.939149022102356,0.44886600971221924
1667709584237103000,4.93410302734375,0.23048071563243866,-1.0505863428115845,0.3960299789905548
1667709584247153400,4.9441533203125,0.11704972386360168,-1.0300555229187012,0.4252859354019165
1667709584257204200,4.954204345703125,0.004191887099295855,-0.9100611805915833,0.527374804019928
1667709584267255300,4.96425537109375,-0.12347547709941864,-0.7444083094596863,0.6134549975395203
1667709584277306400,4.974306396484375,-0.20760872960090637,-0.46937432885169983,0.6815211772918701
1667709584287357400,4.984357421875,-0.27668583393096924,-0.18787671625614166,0.7572371959686279
1667709584297408300,4.994408203125,-0.32384535670280457,0.06142418831586838,0.7857921123504639
1667709584307459300,5.004459228515625,-0.316183865070343,0.2801479995250702,0.7445620894432068
1667709584317509400,5.01450927734375,-0.2394598126411438,0.33525463938713074,0.6604989171028137
1667709584327560400,5.024560546875,-0.16108660399913788,0.20641931891441345,0.48053351044654846
1667709584337611500,5.034611572265625,-0.0662815272808075,0.08221693336963654,0.21410979330539703
1667709584347662300,5.044662353515625,0.022849183529615402,-0.012179020792245865,-0.06475658714771271
1667709584357713200,5.054713134765625,0.05567237734794617,0.020303022116422653,-0.25271183252334595
1667709584367764200,5.06476416015625,0.04474650323390961,0.11554531753063202,-0.3592408299446106
1667709584377814300,5.074814208984375,-0.006539586931467056,0.137175515294075,-0.39709365367889404
1667709584387865300,5.084865234375,-0.018687697127461433,0.23685210943222046,-0.3727867603302002
1667709584397916400,5.09491650390625,-0.03576894849538803,0.3608339726924896,-0.312543660402298
1667709584407967200,5.10496728515625,-0.017038632184267044,0.5755479335784912,-0.24587103724479675
1667709584418018300,5.115018310546875,0.008755947463214397,0.6439117789268494,-0.13268296420574188
1667709584428069400,5.1250693359375,-0.01223059557378292,0.5041821002960205,-0.07147113233804703
1667709584438120400,5.135120361328125,-0.03667282313108444,0.38821473717689514,-0.1766771823167801
1667709584448170500,5.14517041015625,-0.022178899496793747,0.34999558329582214,-0.2982160449028015
1667709584458221300,5.15522119140625,0.011836325749754906,0.38090980052948,-0.32626020908355713
1667709584468272000,5.165272216796875,0.05894686281681061,0.5327231884002686,-0.29559555649757385
1667709584478323200,5.1753232421875,0.11882457882165909,0.6904670596122742,-0.21245992183685303
1667709584488374300,5.185374267578125,0.1489737331867218,0.738690197467804,-0.16654625535011292
1667709584498425300,5.19542529296875,0.13869260251522064,0.7751065492630005,-0.25075405836105347
1667709584508475400,5.205475341796875,0.06109735742211342,0.8555923700332642,-0.4121187925338745
1667709584518526200,5.215526123046875,-0.08060464262962341,1.1128625869750977,-0.6074986457824707
1667709584528577300,5.225577392578125,-0.24721409380435944,1.5407302379608154,-0.7294048070907593
1667709584538628400,5.23562841796875,-0.4107593297958374,2.081937074661255,-0.7975929379463196
1667709584548679400,5.245679443359375,-0.561241865158081,2.663640260696411,-0.8778994679450989
1667709584558730200,5.255730224609375,-0.7693833708763123,3.2210774421691895,-0.9324724078178406
1667709584568781300,5.26578125,-1.0265980958938599,3.764849901199341,-0.9075655341148376
1667709584578831400,5.275831298828125,-1.3214808702468872,4.302895545959473,-0.7216614484786987
1667709584588882200,5.285882080078125,-1.7146885395050049,4.7735490798950195,-0.34692928194999695
1667709584598933200,5.295933349609375,-2.187952756881714,5.24152946472168,0.0686144083738327
1667709584608984300,5.305984375,-2.634059429168701,5.576521873474121,0.38345617055892944
1667709584619035100,5.31603515625,-3.0780234336853027,5.621884346008301,0.555341899394989
1667709584629086200,5.326086181640625,-3.529664993286133,5.455469131469727,0.5137273073196411
1667709584639136300,5.33613623046875,-3.9704718589782715,5.265756130218506,0.26278507709503174
1667709584649187300,5.346187255859375,-4.2797980308532715,5.28005313873291,-0.22333233058452606
1667709584659238400,5.35623828125,-4.69708776473999,5.352124214172363,-0.8934731483459473
1667709584669289500,5.36628955078125,-5.253422260284424,5.353734016418457,-1.705476999282837
1667709584679340300,5.37634033203125,-5.905827045440674,5.453793525695801,-2.5168659687042236
1667709584689391400,5.386391357421875,-6.548490047454834,5.640792369842529,-3.2402117252349854
1667709584699442400,5.3964423828125,-6.978763103485107,5.750234127044678,-3.704345464706421
1667709584709492200,5.4064921875,-7.055207252502441,5.684652328491211,-3.7757508754730225
1667709584719543300,5.416543212890625,-6.6825175285339355,5.689634323120117,-3.4987118244171143
1667709584729594000,5.426593994140625,-5.8481974601745605,5.850895881652832,-2.8399548530578613
1667709584739645200,5.436645263671875,-4.841613292694092,5.991818428039551,-1.7855497598648071
1667709584749696300,5.4466962890625,-3.95885968208313,5.662840366363525,-0.3685080111026764
1667709584759747300,5.456747314453125,-3.4774343967437744,4.951618194580078,1.258829116821289
1667709584769798400,5.46679833984375,-3.4942526817321777,4.769542217254639,2.697436809539795
1667709584779848400,5.476848388671875,-3.8769657611846924,4.807487487792969,3.8011012077331543
1667709584789899300,5.486899169921875,-4.339485168457031,4.758477687835693,4.640959739685059
1667709584799950300,5.496950439453125,-4.868705749511719,4.585206031799316,5.176476955413818
1667709584810001400,5.50700146484375,-5.394824981689453,4.180798530578613,5.406744480133057
1667709584820052500,5.517052490234375,-5.87167501449585,3.4970645904541016,5.405636787414551
1667709584830103300,5.527103271484375,-6.2377166748046875,2.530953884124756,5.325289726257324
1667709584840153300,5.5371533203125,-6.326241493225098,1.6155441999435425,5.2396039962768555
1667709584850204400,5.547204345703125,-6.017799377441406,0.9501346945762634,5.211582183837891
1667709584860255500,5.55725537109375,-5.482935905456543,0.6501874327659607,5.319849967956543
1667709584870306600,5.567306640625,-4.8213348388671875,0.6823005080223083,5.449361324310303
1667709584880357400,5.577357421875,-4.050466537475586,0.4556042551994324,5.392055511474609
1667709584890408400,5.587408447265625,-3.1935477256774902,-0.07488959282636642,4.99232292175293
1667709584900459500,5.59745947265625,-2.1992156505584717,-0.7298994064331055,4.177523612976074
1667709584910509300,5.60750927734375,-1.3077504634857178,-1.1156716346740723,3.0989139080047607
1667709584920560400,5.617560302734375,-0.6444284319877625,-1.0223782062530518,2.0930709838867188
1667709584930611500,5.627611572265625,-0.3214116096496582,-0.8930341005325317,1.3594655990600586
1667709584940662300,5.637662353515625,-0.399733304977417,-0.8614252805709839,0.9230182766914368
1667709584950713300,5.64771337890625,-0.7494562268257141,-0.952259361743927,0.6841486096382141
1667709584960764400,5.657764404296875,-1.2346609830856323,-0.9799309372901917,0.6291404962539673
1667709584970815500,5.6678154296875,-1.6272377967834473,-0.6438202857971191,0.8091529607772827
1667709584980865500,5.677865478515625,-1.7634038925170898,0.08069638907909393,1.1759841442108154
1667709584990916600,5.68791650390625,-1.684478521347046,1.0618786811828613,1.6768808364868164
1667709585000967400,5.697967529296875,-1.6246751546859741,1.9689140319824219,2.185807943344116
1667709585011018500,5.7080185546875,-1.4646258354187012,2.465604305267334,2.2639482021331787
1667709585021069600,5.718069580078125,-1.1646018028259277,2.5473623275756836,1.772521734237671
1667709585031120600,5.72812060546875,-0.7969492673873901,2.3586318492889404,0.9830707311630249
1667709585041170400,5.73817041015625,-0.38560378551483154,2.323026180267334,0.4718708097934723
1667709585051221200,5.74822119140625,0.10305141657590866,2.523966073989868,0.6843199729919434
1667709585061272300,5.758272216796875,0.2311049848794937,2.6358039379119873,0.859489381313324
1667709585071323400,5.768323486328125,0.5603939294815063,2.7754695415496826,0.854397714138031
1667709585081374500,5.77837451171875,1.0271211862564087,3.319650173187256,1.4584723711013794
1667709585091425500,5.788425537109375,0.8210304379463196,3.0657548904418945,1.8137308359146118
1667709585101476400,5.798476318359375,0.2983746826648712,2.171360492706299,1.4174333810806274
1667709585111526400,5.8085263671875,-0.11031565815210342,1.8640389442443848,1.33627188205719
1667709585121577500,5.818577392578125,-0.5047146081924438,2.018568992614746,1.3849278688430786
1667709585131628500,5.828628662109375,-0.7557111978530884,2.3325564861297607,1.265746831893921
1667709585141679600,5.8386796875,-0.7207950353622437,2.4458441734313965,0.9427183270454407
1667709585151730400,5.84873046875,-0.5084533095359802,2.1640005111694336,0.5137895941734314
1667709585161781500,5.858781494140625,-0.24648454785346985,2.1323840618133545,0.7116938829421997
1667709585171831300,5.868831298828125,-0.18830442428588867,2.255488634109497,1.2048910856246948
1667709585181882400,5.87888232421875,-0.2416856288909912,1.535383939743042,1.0064926147460938
1667709585191933400,5.888933349609375,-0.31352928280830383,0.5743128657341003,0.35373932123184204
1667709585201984500,5.898984619140625,-0.282807320356369,0.21197490394115448,0.03177938610315323
1667709585212035300,5.909035400390625,-0.23882253468036652,0.16172030568122864,0.0627099946141243
1667709585222086400,5.91908642578125,-0.16212962567806244,0.26547732949256897,0.034058112651109695
1667709585232137500,5.929137451171875,-0.04749654233455658,0.4924783706665039,-0.08074429631233215
1667709585242187500,5.9391875,0.20275697112083435,0.7166102528572083,-0.1536073237657547
1667709585252238600,5.949238525390625,0.6087532043457031,0.9205676913261414,-0.23581749200820923
1667709585262289400,5.959289306640625,1.066283106803894,1.1145421266555786,-0.38012832403182983
1667709585272340500,5.969340576171875,1.6437782049179077,1.2880281209945679,-0.6126474738121033
1667709585282391600,5.9793916015625,2.278130531311035,1.5623570680618286,-0.8426678776741028
1667709585292442600,5.989442626953125,2.6059927940368652,1.8627651929855347,-1.115792989730835
1667709585302493400,5.999493408203125,2.329918622970581,2.1448469161987305,-1.466191053390503
1667709585312543500,6.00954345703125,2.588679075241089,2.0067903995513916,-1.7368637323379517
1667709585322594300,6.01959423828125,2.8424718379974365,1.188204050064087,-2.104281425476074
1667709585332645400,6.029645263671875,2.518812656402588,0.08567379415035248,-2.504108190536499
1667709585342696400,6.039696533203125,2.0172746181488037,-0.32463783025741577,-2.664290189743042
1667709585352747500,6.04974755859375,1.3588249683380127,-0.1947421133518219,-2.5811550617218018
1667709585362798300,6.05979833984375,0.7923181653022766,0.20637787878513336,-2.287055730819702
1667709585372848400,6.069848388671875,0.5809133648872375,0.7868735194206238,-1.8480101823806763
1667709585382899500,6.0798994140625,0.6991462707519531,1.405575156211853,-1.4481106996536255
1667709585392950500,6.089950439453125,1.0122092962265015,1.7426726818084717,-1.131060004234314
1667709585403001600,6.100001708984375,1.3328789472579956,1.9356011152267456,-0.9806435108184814
1667709585413052700,6.110052734375,1.6607580184936523,2.3394999504089355,-0.9946948289871216
1667709585423103200,6.120103271484375,2.0164313316345215,2.8374247550964355,-1.0490179061889648
1667709585433154300,6.130154296875,2.3809974193573,3.038547992706299,-1.0631835460662842
1667709585443204400,6.140204345703125,2.566869020462036,2.865924835205078,-1.1295896768569946
1667709585453255400,6.15025537109375,2.415670394897461,2.653985023498535,-1.3986408710479736
1667709585463306500,6.160306396484375,2.1773674488067627,2.6897988319396973,-1.8150333166122437
1667709585473357300,6.170357421875,2.2695868015289307,2.96555495262146,-2.0683443546295166
1667709585483408400,6.180408447265625,2.673353910446167,2.959146022796631,-2.1472015380859375
1667709585493459500,6.19045947265625,2.8646810054779053,2.8440206050872803,-2.012753963470459
1667709585503510500,6.200510498046875,2.5040571689605713,2.6915230751037598,-1.5526955127716064
1667709585513560600,6.210560546875,1.889001727104187,2.3783252239227295,-1.1516172885894775
1667709585523611600,6.220611572265625,1.0774343013763428,1.9996097087860107,-0.923687756061554
1667709585533662500,6.230662353515625,0.28061622381210327,1.316374659538269,-0.9044166207313538
1667709585543713300,6.24071337890625,-0.13984152674674988,1.383548378944397,-0.8920424580574036
1667709585553764400,6.250764404296875,-0.39562270045280457,1.4624444246292114,-0.722588837146759
1667709585563815400,6.2608154296875,-0.14199601113796234,1.7073758840560913,-0.9842023253440857
1667709585573865500,6.270865478515625,0.5391709208488464,1.460923671722412,-1.6843043565750122
1667709585583916500,6.28091650390625,1.0799055099487305,0.6803921461105347,-2.1201658248901367
1667709585593967400,6.29096728515625,1.297723650932312,0.04443736746907234,-2.005610704421997
1667709585604018400,6.301018310546875,1.2325189113616943,-0.307275652885437,-1.5826141834259033
1667709585614069500,6.311069580078125,0.9986937642097473,-0.24196402728557587,-1.0652265548706055
1667709585624120600,6.32112060546875,0.7133840322494507,0.18794766068458557,-0.5196122527122498
1667709585634170600,6.331170654296875,0.5799879431724548,0.5310977697372437,0.024990370497107506
1667709585644221400,6.341221435546875,0.652977466583252,0.6801325082778931,0.5361010432243347
1667709585654272500,6.3512724609375,0.9036835432052612,0.7084759473800659,0.9774160981178284
1667709585664323300,6.3613232421875,1.0276384353637695,1.1528569459915161,1.399659514427185
1667709585674374400,6.37137451171875,0.9274119734764099,2.0128889083862305,1.7097409963607788
1667709585684425500,6.381425537109375,0.6374161243438721,2.8528411388397217,1.8255586624145508
1667709585694476300,6.391476318359375,0.23488996922969818,3.359478235244751,1.8060359954833984
1667709585704526300,6.4015263671875,-0.14170338213443756,3.6416304111480713,1.6173465251922607
1667709585714577400,6.411577392578125,-0.37436434626579285,3.625147819519043,1.309220552444458
1667709585724628500,6.42162841796875,-0.4713188707828522,3.269796133041382,1.0146543979644775
1667709585734679600,6.431679443359375,-0.5329070687294006,2.717921257019043,0.8620789647102356
1667709585744730400,6.44173046875,-0.6634182333946228,1.5205386877059937,0.6596068143844604
1667709585754781400,6.451781494140625,-1.1046050786972046,0.0016661493573337793,0.3961777687072754
1667709585764832500,6.46183251953125,-1.642862319946289,-1.0898886919021606,0.3305705189704895
1667709585774882600,6.471882568359375,-2.1138556003570557,-2.2801461219787598,0.6015605330467224
1667709585784933400,6.481933349609375,-2.5422961711883545,-3.6808130741119385,1.2214025259017944
1667709585794984400,6.491984375,-3.185596466064453,-4.2536773681640625,1.942816138267517
1667709585805035300,6.50203515625,-3.6222100257873535,-0.6556806564331055,0.8421760201454163
1667709585815086300,6.51208642578125,-3.0524518489837646,2.4433579444885254,-0.6243880391120911
1667709585825137200,6.52213720703125,-1.9276270866394043,2.297105550765991,-1.4707767963409424
1667709585835187000,6.53218701171875,-0.8578762412071228,1.199912190437317,-2.043612480163574
1667709585845238000,6.542238037109375,-0.20646381378173828,0.4589022696018219,-2.270250082015991
1667709585855289000,6.5522890625,-0.2422153651714325,0.3915628492832184,-2.1329338550567627
1667709585865340000,6.56233984375,-0.5219879150390625,0.6290802955627441,-1.4257779121398926
1667709585875391000,6.572390869140625,-0.7025405168533325,1.038631558418274,-0.5252087712287903
1667709585885442000,6.582442138671875,-0.6246164441108704,1.2530527114868164,0.6639975905418396
1667709585895493000,6.5924931640625,-0.54771888256073,1.29111647605896,1.7961845397949219
1667709585905543200,6.602543212890625,-0.6903886795043945,1.2224622964859009,2.441006660461426
1667709585915594000,6.612593994140625,-0.945206880569458,1.4235740900039673,2.3761842250823975
1667709585925645000,6.62264501953125,-1.0842170715332031,2.0786163806915283,1.7702603340148926
1667709585935696100,6.632696044921875,-1.0654078722000122,2.92545747756958,0.9333441257476807
1667709585945747200,6.642747314453125,-0.9398897290229797,2.540330171585083,0.4989801347255707
1667709585955798300,6.65279833984375,-0.8503956198692322,1.001928687095642,0.6802845001220703
1667709585965848000,6.66284814453125,-0.8924307227134705,-0.4052383005619049,1.119883418083191
1667709585975899000,6.67289892578125,-1.0534497499465942,-1.381067156791687,1.6767181158065796
1667709585985950000,6.682949951171875,-1.3776371479034424,-1.9491177797317505,2.1932690143585205
1667709585996001000,6.6930009765625,-1.8550630807876587,-2.145784854888916,2.515552043914795
1667709586006052000,6.703052001953125,-2.5262653827667236,-2.1966238021850586,2.6608479022979736
1667709586016103000,6.71310302734375,-3.1100451946258545,-2.1062967777252197,2.7542295455932617
1667709586026154000,6.723154052734375,-3.5876755714416504,-1.7810678482055664,2.8702499866485596
1667709586036204000,6.7332041015625,-3.87509822845459,-1.033366322517395,3.088371992111206
1667709586046255000,6.743255126953125,-3.9003584384918213,-0.04073302075266838,3.3706023693084717
1667709586056306200,6.75330615234375,-3.869969129562378,0.3705536723136902,3.3549225330352783
1667709586066357200,6.763357177734375,-3.9542882442474365,-0.15958288311958313,2.6772079467773438
1667709586076408000,6.773407958984375,-3.96561861038208,-0.15213549137115479,2.1797797679901123
1667709586086459100,6.783459228515625,-3.817793846130371,0.31801044940948486,2.2378451824188232
1667709586096510200,6.79351025390625,-3.5207793712615967,0.6880040764808655,2.6630852222442627
1667709586106560000,6.80356005859375,-3.101550817489624,0.8522798418998718,3.216334342956543
1667709586116611000,6.813611083984375,-2.548431634902954,0.8399091362953186,3.629244327545166
1667709586126662000,6.823661865234375,-1.9119415283203125,0.65546715259552,3.51876163482666
1667709586136713000,6.833712890625,-1.1459085941314697,0.3610948622226715,2.879457712173462
1667709586146764000,6.843763916015625,-0.7326530814170837,-0.042816389352083206,1.9522911310195923
1667709586156815000,6.853815185546875,-1.1243923902511597,-0.34117257595062256,1.0753028392791748
1667709586166865200,6.863865234375,-2.058279275894165,-1.1240519285202026,0.6285804510116577
1667709586176916200,6.873916259765625,-2.52022123336792,-1.7648863792419434,1.1307761669158936
1667709586186967000,6.883967041015625,-2.2948718070983887,-2.470196485519409,1.8155931234359741
1667709586197018000,6.89401806640625,-1.9776818752288818,-3.1804111003875732,2.2326416969299316
1667709586207069200,6.904069091796875,-1.7979544401168823,-3.3307571411132812,2.4409801959991455
1667709586217120300,6.914120361328125,-1.8245477676391602,-3.07704496383667,2.510854721069336
1667709586227171000,6.924171142578125,-2.252058982849121,-2.6412298679351807,2.4663641452789307
1667709586237221000,6.93422119140625,-2.8298683166503906,-2.0700631141662598,2.2847766876220703
1667709586247272000,6.94427197265625,-3.188979387283325,-1.3503087759017944,1.910786747932434
1667709586257323000,6.954322998046875,-3.232861280441284,-0.5400770306587219,1.4533761739730835
1667709586267374000,6.9643740234375,-2.87178373336792,0.15098397433757782,0.8908939361572266
1667709586277425200,6.974425048828125,-2.512427806854248,0.5798459649085999,0.28019043803215027
1667709586287476000,6.98447607421875,-2.1168713569641113,0.799574077129364,-0.139774352312088
1667709586297527000,6.994527099609375,-1.6058886051177979,1.0537962913513184,-0.033180516213178635
1667709586307577000,7.0045771484375,-1.0322431325912476,1.1171725988388062,0.5934263467788696
1667709586317628200,7.014628173828125,-0.6654803156852722,0.7817303538322449,1.328163743019104
1667709586327679200,7.02467919921875,-0.31610366702079773,0.1712869256734848,1.7686610221862793
1667709586337730000,7.03472998046875,0.10530591756105423,-0.549095630645752,1.7312819957733154
1667709586347781000,7.044781005859375,0.4046657383441925,-1.0800203084945679,1.4585500955581665
1667709586357832000,7.05483203125,0.5291779637336731,-1.4771533012390137,1.069337248802185
1667709586367882000,7.064882080078125,0.5089595317840576,-1.4821659326553345,0.7904819250106812
1667709586377933000,7.07493310546875,0.3691277801990509,-1.0508654117584229,0.71819007396698
1667709586387984100,7.084984130859375,0.11897972971200943,-0.5349845290184021,0.7387014627456665
1667709586398035000,7.095034912109375,-0.09089706093072891,-0.21566332876682281,0.6912266612052917
1667709586408086000,7.1050859375,-0.24254196882247925,-0.24185818433761597,0.4561867415904999
1667709586418137000,7.11513720703125,-0.380087286233902,-0.7143169045448303,0.06169181317090988
1667709586428188200,7.125188232421875,-0.4990972876548767,-1.309150218963623,-0.3801604211330414
1667709586438238200,7.13523828125,-0.4686465263366699,-1.2657830715179443,-0.6352805495262146
1667709586448289300,7.145289306640625,-0.1820581704378128,-1.2776695489883423,-0.853435218334198
1667709586458340000,7.155340087890625,0.06925592571496964,-1.4236570596694946,-1.0993661880493164
1667709586468391200,7.16539111328125,0.28344863653182983,-1.279648780822754,-1.371796727180481
1667709586478442000,7.17544189453125,0.39098575711250305,-0.9369679689407349,-1.7290053367614746
1667709586488493000,7.1854931640625,0.38570335507392883,-0.5846823453903198,-2.1332905292510986
1667709586498543900,7.1955439453125,0.2848803400993347,-0.3458288013935089,-2.539365768432617
1667709586508594000,7.205593994140625,0.1205529123544693,-0.3011673092842102,-2.9905691146850586
1667709586518645000,7.21564501953125,-0.11801794916391373,-0.500178873538971,-3.473928928375244
1667709586528696000,7.225696044921875,-0.3430231213569641,-0.9271264672279358,-3.820930242538452
1667709586538747100,7.2357470703125,-0.2591007351875305,-1.4262908697128296,-3.9596872329711914
1667709586548798200,7.245798095703125,-0.18085680902004242,-1.7562922239303589,-3.9312922954559326
1667709586558849000,7.25584912109375,-0.652649462223053,-1.456102967262268,-3.6725881099700928
1667709586568900000,7.265900146484375,-0.9963650107383728,-0.4249376356601715,-3.1246390342712402
1667709586578950100,7.2759501953125,0.10584580898284912,-0.3884166181087494,-2.948760986328125
1667709586589001200,7.286001220703125,0.6411928534507751,-0.0027578636072576046,-2.855837345123291
1667709586599052000,7.296052001953125,0.6619306206703186,0.7202638983726501,-2.688549041748047
1667709586609102800,7.306102783203125,0.5628538131713867,1.2181720733642578,-2.304722547531128
1667709586619154000,7.31615380859375,0.49167928099632263,0.6907688975334167,-2.20705509185791
1667709586629205000,7.326205078125,0.5347604155540466,-0.5813493728637695,-2.2484261989593506
1667709586639255000,7.336255126953125,0.6493002772331238,-2.0642662048339844,-2.235358476638794
1667709586649306000,7.34630615234375,0.7094874382019043,-3.259744644165039,-2.1186020374298096
1667709586659357200,7.356357177734375,0.7442694902420044,-3.789639472961426,-1.92025887966156
1667709586669408000,7.366407958984375,0.8133055567741394,-3.5249788761138916,-1.6112475395202637
1667709586679459000,7.376458984375,0.9038437008857727,-2.5595920085906982,-1.2149559259414673
1667709586689510100,7.38651025390625,1.0219454765319824,-0.8758069276809692,-0.867399275302887
1667709586699561200,7.396561279296875,1.129041314125061,0.6699997186660767,-0.6917546987533569
1667709586709611300,7.406611328125,1.191850185394287,1.3132154941558838,-0.714460015296936
1667709586719661800,7.416661865234375,1.1944366693496704,1.0957813262939453,-0.8754568099975586
1667709586729713000,7.426712890625,1.1179884672164917,0.48554664850234985,-1.0924426317214966
1667709586739764000,7.436763916015625,0.9709075689315796,-0.12306682765483856,-1.3215138912200928
1667709586749815000,7.44681494140625,0.839906632900238,-0.6207644939422607,-1.6627695560455322
1667709586759866000,7.4568662109375,0.7068824768066406,-0.9223164319992065,-2.0248782634735107
1667709586769917000,7.4669169921875,0.540161669254303,-0.8802576661109924,-2.2467973232269287
1667709586779967000,7.476967041015625,0.3299327790737152,-0.6015475392341614,-2.195773124694824
1667709586790018000,7.48701806640625,0.12331011146306992,-0.19741873443126678,-1.8983306884765625
1667709586800069000,7.497069091796875,-0.02012285776436329,0.18639203906059265,-1.4462252855300903
1667709586810120200,7.5071201171875,-0.10681433975696564,0.5276125073432922,-0.9232196807861328
1667709586820171000,7.5171708984375,-0.1576201170682907,0.8730449080467224,-0.44465628266334534
1667709586830222300,7.527222412109375,-0.1725575178861618,1.2206753492355347,-0.11233077943325043
1667709586840272400,7.5372724609375,-0.20231816172599792,1.5484347343444824,0.11087430268526077
1667709586850323200,7.5473232421875,-0.18184298276901245,1.8258144855499268,0.3401511609554291
1667709586860374300,7.557374267578125,-0.08630721271038055,2.0298562049865723,0.6374298930168152
1667709586870425300,7.56742529296875,0.1126793846487999,2.220452070236206,1.0147584676742554
1667709586880476200,7.57747607421875,0.3911157548427582,2.4678518772125244,1.4968324899673462
1667709586890527200,7.58752734375,0.6738675832748413,2.7108426094055176,1.986236810684204
1667709586900578300,7.597578369140625,0.9826884269714355,2.2778868675231934,1.807224154472351
1667709586910628400,7.60762841796875,1.3049707412719727,0.20978103578090668,0.6384974718093872
1667709586920679400,7.617679443359375,1.2645455598831177,-2.452218770980835,-1.3320074081420898
1667709586930730200,7.627730224609375,0.7624952793121338,-2.049696207046509,-2.1096127033233643
1667709586940781300,7.63778125,0.8152586221694946,-0.07670371234416962,-1.8904956579208374
1667709586950832400,7.647832275390625,1.15442955493927,0.9393463134765625,-1.5535986423492432
1667709586960883500,7.657883544921875,1.381253957748413,1.3624054193496704,-1.231656551361084
1667709586970934300,7.667934326171875,1.371190071105957,1.7445842027664185,-0.8922531604766846
1667709586980984300,7.677984375,0.9490355253219604,1.9078963994979858,-0.5362561941146851
1667709586991035100,7.68803515625,0.2076762467622757,1.8964747190475464,-0.245199054479599
1667709587001086200,7.698086181640625,-0.4960240423679352,1.6161373853683472,-0.22341589629650116
1667709587011137300,7.70813720703125,-1.0761066675186157,0.8278893232345581,-0.5027812123298645
1667709587021188400,7.718188232421875,-1.2389686107635498,-0.6466080546379089,-0.7043168544769287
1667709587031239200,7.7282392578125,-0.9143246412277222,-1.9064311981201172,-0.3858371078968048
1667709587041290200,7.738290283203125,-0.6037772297859192,-1.2780303955078125,-0.3568088710308075
1667709587051340300,7.74834033203125,-1.0076791048049927,1.2480324506759644,-0.39451709389686584
1667709587061391400,7.758391357421875,-1.3937469720840454,2.3955116271972656,0.02005261555314064
1667709587071442400,7.7684423828125,-1.2600208520889282,1.260166049003601,0.6784731149673462
1667709587081493500,7.778493408203125,-0.8279179930686951,-0.5389800667762756,1.6013948917388916
1667709587091544300,7.78854443359375,-0.2620551586151123,-2.16485595703125,2.3801870346069336
1667709587101595400,7.798595458984375,0.29742178320884705,-3.008659601211548,2.8942291736602783
1667709587111646500,7.808646484375,0.7898072600364685,-2.992363691329956,3.251620292663574
1667709587121696300,7.8186962890625,1.1647874116897583,-2.3511977195739746,3.520660161972046
1667709587131747300,7.828747314453125,1.24512779712677,-1.404067039489746,3.637322425842285
1667709587141798100,7.838798095703125,1.0806900262832642,-0.6045482158660889,3.4520959854125977
1667709587151849200,7.84884912109375,0.9385471940040588,-0.051580674946308136,3.1200482845306396
1667709587161900300,7.858900390625,0.8651422262191772,0.28273269534111023,2.7712454795837402
1667709587171951400,7.868951416015625,0.8647832274436951,0.5203948020935059,2.3909802436828613
1667709587182001400,7.87900146484375,0.8736883997917175,0.7796380519866943,2.04082989692688
1667709587192052500,7.889052490234375,0.7425399422645569,0.9683701395988464,1.7619534730911255
1667709587202103300,7.899103271484375,0.5055505633354187,1.062779426574707,1.603594422340393
1667709587212154400,7.909154296875,0.25406718254089355,1.0819350481033325,1.5647519826889038
1667709587222205400,7.919205322265625,0.06269282102584839,0.9906527400016785,1.5973976850509644
1667709587232256500,7.929256591796875,-0.05356001853942871,0.8344420790672302,1.6742578744888306
1667709587242307300,7.939307373046875,-0.12811265885829926,0.6479687094688416,1.7828648090362549
1667709587252357000,7.949357177734375,-0.15730009973049164,0.3937476575374603,1.935585379600525
1667709587262408200,7.959408203125,-0.15066705644130707,-0.022987032309174538,2.150709867477417
1667709587272459300,7.969459228515625,-0.11010152101516724,-0.6551128029823303,2.3753395080566406
1667709587282510300,7.97951025390625,-0.05010383576154709,-1.43990159034729,2.568944215774536
1667709587292561400,7.9895615234375,0.014401123858988285,-2.17767596244812,2.6843626499176025
1667709587302612200,7.9996123046875,0.028965555131435394,-2.6833150386810303,2.7197649478912354
1667709587312663300,8.009663330078125,-0.017909009009599686,-2.850905179977417,2.6796462535858154
1667709587322713300,8.01971337890625,-0.11909432709217072,-2.7630600929260254,2.5705151557922363
1667709587332764400,8.029764404296875,-0.2605403959751129,-2.545536994934082,2.3719325065612793
1667709587342815500,8.0398154296875,-0.38983264565467834,-2.2678284645080566,2.098884105682373
1667709587352866300,8.0498662109375,-0.5024641156196594,-2.0112125873565674,1.8197940587997437
1667709587362917400,8.05991748046875,-0.6351813077926636,-1.8352004289627075,1.5961495637893677
1667709587372968400,8.069968505859375,-0.7575469017028809,-1.7055784463882446,1.4756397008895874
1667709587383019300,8.080019287109375,-0.8859754800796509,-1.52299964427948,1.4435001611709595
1667709587393069300,8.0900693359375,-1.0060161352157593,-1.256182074546814,1.4275448322296143
1667709587403120400,8.100120361328125,-1.114824891090393,-0.938118040561676,1.3812613487243652
1667709587413171200,8.110171142578125,-1.1973751783370972,-0.5953934788703918,1.3076318502426147
1667709587423222300,8.12022216796875,-1.2146912813186646,-0.17169533669948578,1.2942368984222412
1667709587433273300,8.1302734375,-1.127766489982605,0.3177662491798401,1.4044272899627686
1667709587443324400,8.140324462890625,-0.9479914307594299,0.7343305349349976,1.588846206665039
1667709587453375200,8.150375244140625,-0.7379359602928162,0.8871099352836609,1.7097837924957275
1667709587463425300,8.16042529296875,-0.5473625659942627,0.6849967241287231,1.6434189081192017
1667709587473476400,8.170476318359375,-0.3531917929649353,0.26195093989372253,1.3785063028335571
1667709587483527400,8.18052734375,-0.180547833442688,-0.20284636318683624,1.039148211479187
1667709587493578500,8.19057861328125,-0.06000518053770065,-0.5228299498558044,0.7907965183258057
1667709587503629300,8.20062939453125,-0.019183550029993057,-0.5504679083824158,0.6612411141395569
1667709587513680100,8.21068017578125,-0.03989868238568306,-0.3204954266548157,0.5998754501342773
1667709587523731200,8.220731201171875,-0.10827489197254181,-0.10253357142210007,0.5289306640625
1667709587533781200,8.23078125,-0.25605183839797974,-0.08216678351163864,0.3541090190410614
1667709587543832300,8.240832275390625,-0.421634703874588,-0.20445063710212708,0.02609207294881344
1667709587553883400,8.25088330078125,-0.45271673798561096,-0.26512542366981506,-0.3887389302253723
1667709587563934200,8.260934326171874,-0.28770625591278076,-0.21280106902122498,-0.8323372006416321
1667709587573985300,8.2709853515625,-0.0032564057037234306,-0.1843089759349823,-1.229475498199463
1667709587584036400,8.281036376953125,0.30603379011154175,-0.33998337388038635,-1.5232714414596558
1667709587594087400,8.29108740234375,0.5549224019050598,-0.5555300712585449,-1.7598577737808228
1667709587604137500,8.301137451171876,0.6829058527946472,-0.6198700070381165,-2.0605998039245605
1667709587614188500,8.3111884765625,0.7215086817741394,-0.4435511827468872,-2.399292469024658
1667709587624239000,8.321239013671875,0.6819831728935242,-0.14590004086494446,-2.7741076946258545
1667709587634290200,8.331290283203124,0.6052018404006958,0.18409863114356995,-3.2165071964263916
1667709587644341200,8.34134130859375,0.5463588237762451,0.5239972472190857,-3.5911169052124023
1667709587654392300,8.351392333984375,0.6222022175788879,0.7673020958900452,-3.6321449279785156
1667709587664443100,8.361443115234374,0.7678429484367371,0.993034839630127,-3.448493003845215
1667709587674493400,8.371493408203126,0.8236860036849976,1.1989542245864868,-3.216461420059204
1667709587684544300,8.381544189453125,0.8159182667732239,1.1646090745925903,-3.0212080478668213
1667709587694595300,8.39159521484375,0.7848734855651855,0.8248041272163391,-2.947382688522339
1667709587704646400,8.401646484375,0.782180905342102,0.2502555847167969,-3.028815746307373
1667709587714697500,8.411697509765625,0.7822831869125366,-0.3017021119594574,-3.18391752243042
1667709587724748300,8.421748291015625,0.7959265112876892,-0.5484486222267151,-3.1777186393737793
1667709587734799400,8.43179931640625,0.8302775621414185,-0.6898834705352783,-2.9156973361968994
1667709587744850400,8.441850341796876,0.8939747214317322,-1.016425609588623,-2.5057966709136963
1667709587754900200,8.451900146484375,0.9840418100357056,-1.4544628858566284,-2.090789794921875
1667709587764951300,8.461951416015625,1.1089777946472168,-1.7542444467544556,-1.736837387084961
1667709587775002400,8.47200244140625,1.2084732055664062,-1.7830060720443726,-1.4824055433273315
1667709587785053200,8.48205322265625,1.263803243637085,-1.491822600364685,-1.2991759777069092
1667709587795104300,8.492104248046875,1.320642352104187,-0.9421706199645996,-1.1793456077575684
1667709587805155300,8.5021552734375,1.3381452560424805,-0.24142441153526306,-1.141591191291809
1667709587815205400,8.512205322265626,1.288114070892334,0.30620408058166504,-1.2342358827590942
1667709587825256400,8.52225634765625,1.1840970516204834,0.5157555341720581,-1.4172104597091675
1667709587835307800,8.532307861328125,1.061906099319458,0.5929363369941711,-1.615248680114746
1667709587845358800,8.54235888671875,0.9022464752197266,0.7064592838287354,-1.8174716234207153
1667709587855410000,8.552409912109376,0.7367454171180725,0.9175393581390381,-2.0109024047851562
1667709587865461000,8.5624609375,0.5715996026992798,1.1197853088378906,-2.144150733947754
1667709587875511800,8.57251171875,0.4302917420864105,1.2941786050796509,-2.2130990028381348
1667709587885563000,8.58256298828125,0.36573508381843567,1.3733797073364258,-2.1749958992004395
1667709587895613000,8.592613037109375,0.33566561341285706,1.358891248703003,-2.016069173812866
1667709587905664000,8.6026640625,0.2664162218570709,1.3165358304977417,-1.784553050994873
1667709587915715000,8.612715087890624,0.08172840625047684,1.3433040380477905,-1.4640003442764282
1667709587925765600,8.622765625,-0.059761978685855865,1.419808268547058,-1.11923348903656
1667709587935816700,8.632816650390625,-0.2777140140533447,1.4959222078323364,-0.7568609118461609
1667709587945867800,8.64286767578125,-0.43051522970199585,1.569567322731018,-0.44679614901542664
1667709587955918800,8.6529189453125,-0.49839016795158386,1.6968408823013306,-0.2189352661371231
1667709587965969000,8.662968994140625,-0.5651442408561707,1.9138474464416504,-0.005552991293370724
1667709587976020000,8.67302001953125,-0.498093843460083,2.1545047760009766,0.246068075299263
1667709587986070800,8.68307080078125,-0.32662317156791687,2.422711133956909,0.5956195592880249
1667709587996121900,8.693121826171875,-0.09323997795581818,2.7412290573120117,0.975333034992218
1667709588006173000,8.7031728515625,0.10506734997034073,2.8615517616271973,1.060713529586792
1667709588016224000,8.71322412109375,0.5095556974411011,1.9261049032211304,0.6064093708992004
1667709588026274800,8.72327490234375,1.0593065023422241,-0.5748531222343445,-0.4619619846343994
1667709588036324900,8.733324951171875,0.680083155632019,-2.112628221511841,-1.759223461151123
1667709588046375700,8.743375732421875,0.4993096590042114,-1.3134487867355347,-1.8355516195297241
1667709588056426800,8.7534267578125,0.9167367219924927,-0.07097847014665604,-1.4632776975631714
1667709588066477800,8.763477783203125,1.140939712524414,0.4267783463001251,-1.1343876123428345
1667709588076529000,8.77352880859375,1.1559617519378662,0.5843155384063721,-0.8247437477111816
1667709588086579700,8.783579833984374,0.9500394463539124,0.7423309683799744,-0.5100760459899902
1667709588096630800,8.793630859375,0.5423781871795654,0.9798276424407959,-0.4025210738182068
1667709588106681900,8.803681884765625,-0.0061516836285591125,1.1997050046920776,-0.434017151594162
1667709588116732000,8.81373193359375,-0.5937560200691223,1.2045173645019531,-0.5628325939178467
1667709588126783000,8.823782958984374,-1.0993561744689941,0.7025274634361267,-0.8760370016098022
1667709588136833800,8.833833740234375,-1.1965279579162598,-0.07978195697069168,-0.3988267183303833
1667709588146884900,8.843884765625,-0.7981476187705994,-1.0328259468078613,0.411232590675354
1667709588156936000,8.85393603515625,-0.17945508658885956,-0.6224930286407471,0.6092188954353333
1667709588166987000,8.863987060546876,-0.33173537254333496,0.38564741611480713,0.3061566948890686
1667709588177038000,8.8740380859375,-0.842051088809967,0.7267922163009644,0.3269818127155304
1667709588187088000,8.884087890625,-1.0459281206130981,0.35548707842826843,0.8434731960296631
1667709588197138700,8.894138671875,-0.9895114302635193,-0.8254320621490479,1.5973670482635498
1667709588207189800,8.904189697265625,-0.7689207196235657,-2.1473844051361084,2.3441317081451416
1667709588217240800,8.91424072265625,-0.48276615142822266,-2.853398084640503,2.919660806655884
1667709588227292000,8.9242919921875,-0.12553386390209198,-2.9458439350128174,3.395218849182129
1667709588237342700,8.9343427734375,0.36234578490257263,-2.5010223388671875,3.876974105834961
1667709588247393800,8.944393798828125,0.717138946056366,-1.867287039756775,4.205443859100342
1667709588257443800,8.95444384765625,0.7699917554855347,-1.3989770412445068,4.0963544845581055
1667709588267495000,8.964494873046876,0.6941547393798828,-0.9226109981536865,3.6788229942321777
1667709588277546000,8.9745458984375,0.6102367043495178,-0.3722626566886902,3.117516279220581
1667709588287597000,8.98459716796875,0.6260732412338257,0.2343444675207138,2.590055465698242
1667709588297647900,8.99464794921875,0.6497929692268372,0.8386537432670593,2.1717588901519775
1667709588307699000,9.004698974609376,0.5075814723968506,1.3324137926101685,1.9086506366729736
1667709588317750000,9.01475,0.24581378698349,1.6416999101638794,1.784379005432129
1667709588327800800,9.02480078125,-0.06732170283794403,1.801853895187378,1.7526507377624512
1667709588337851000,9.034850830078126,-0.3227417469024658,1.8315038681030273,1.7592476606369019
1667709588347901700,9.044901611328125,-0.5351074934005737,1.7818886041641235,1.8254786729812622
1667709588357952800,9.054952880859375,-0.6705849170684814,1.629568338394165,1.9236090183258057
1667709588368003800,9.06500390625,-0.753847599029541,1.3822606801986694,2.0407657623291016
1667709588378055000,9.075054931640626,-0.8176156878471375,1.0219757556915283,2.201380968093872
1667709588388106000,9.08510595703125,-0.774407684803009,0.5354938507080078,2.3743534088134766
1667709588398156800,9.09515673828125,-0.6100261807441711,-0.17741622030735016,2.5540688037872314
1667709588408206800,9.105206787109376,-0.343440443277359,-1.0656311511993408,2.7383499145507812
1667709588418258000,9.1152578125,-0.12506017088890076,-1.8917977809906006,2.8640098571777344
1667709588428309000,9.12530908203125,-0.11195109784603119,-2.4844236373901367,2.9285213947296143
1667709588438360000,9.135360107421874,-0.2218962460756302,-2.765411138534546,2.9275317192077637
1667709588448410600,9.14541064453125,-0.36994582414627075,-2.7426629066467285,2.831892490386963
1667709588458461700,9.155461669921875,-0.5049982070922852,-2.5665788650512695,2.5973703861236572
1667709588468512800,9.1655126953125,-0.6128121018409729,-2.3224079608917236,2.2569940090179443
1667709588478562800,9.175562744140626,-0.7155001759529114,-2.1110010147094727,1.9281060695648193
1667709588488614000,9.18561376953125,-0.8420134782791138,-1.9762223958969116,1.7097320556640625
1667709588498665000,9.1956650390625,-0.9668651223182678,-1.8498938083648682,1.5905086994171143
1667709588508715800,9.2057158203125,-1.0814365148544312,-1.5315485000610352,1.5155760049819946
1667709588518766800,9.215766845703126,-1.188152551651001,-0.8583729863166809,1.4154675006866455
1667709588528818000,9.22581787109375,-1.2781620025634766,0.07892939448356628,1.2404472827911377
1667709588538869000,9.235868896484375,-1.2917656898498535,0.8992559909820557,1.0896010398864746
1667709588548919800,9.245919921875,-1.0947130918502808,1.1723623275756836,1.1392877101898193
1667709588558969900,9.255969970703125,-0.6897130608558655,0.9539700150489807,1.3712900876998901
1667709588569020700,9.266020751953125,-0.22442170977592468,0.5277020335197449,1.6005834341049194
1667709588579071700,9.27607177734375,0.0989864394068718,0.06463555991649628,1.616371750831604
1667709588589122800,9.286122802734376,0.19782136380672455,-0.46155741810798645,1.350642204284668
1667709588599174000,9.296173828125,0.19342447817325592,-0.9675092697143555,0.9558404684066772
1667709588609224700,9.306224609375,0.21969714760780334,-1.177551031112671,0.5971987843513489
1667709588619275800,9.31627587890625,0.14665117859840393,-0.8863265514373779,0.25051671266555786
1667709588629325800,9.326325927734375,-0.06286592781543732,-0.05103856697678566,-0.12375226616859436
1667709588639377000,9.336376953125,-0.2125888466835022,0.658904492855072,-0.5608859658241272
1667709588649428000,9.346427978515624,-0.16048353910446167,0.8220863342285156,-1.0484199523925781
1667709588659478800,9.356478759765626,0.06919226795434952,0.6099849939346313,-1.5594289302825928
1667709588669529900,9.36652978515625,0.39736858010292053,0.21837329864501953,-2.010906457901001
1667709588679581000,9.376580810546875,0.696986198425293,-0.037890441715717316,-2.411025285720825
1667709588689632000,9.386632080078124,0.8690410852432251,-0.05055335909128189,-2.722503185272217
1667709588699683000,9.39668310546875,0.8043776750564575,0.024201836436986923,-2.9846227169036865
1667709588709732900,9.40673291015625,0.5984917283058167,0.07576926052570343,-3.3255422115325928
1667709588719783700,9.41678369140625,0.5515151619911194,0.19688396155834198,-3.6686129570007324
1667709588729834800,9.426834716796876,0.6838364601135254,0.3873257339000702,-3.6777851581573486
1667709588739885800,9.4368857421875,0.9128145575523376,0.5881355404853821,-3.3294014930725098
1667709588749937000,9.44693701171875,1.0859780311584473,0.7992753982543945,-2.9583868980407715
1667709588759987700,9.45698779296875,1.0769480466842651,0.8800991177558899,-2.7275116443634033
1667709588770038800,9.467038818359375,0.9347816705703735,0.8329805135726929,-2.754368543624878
1667709588780088800,9.4770888671875,0.7822811007499695,0.6275219321250916,-2.967859983444214
1667709588790140000,9.487139892578124,0.7075187563896179,0.3074255585670471,-3.1435537338256836
1667709588800191000,9.49719091796875,0.7196494936943054,0.06392501294612885,-3.2209019660949707
1667709588810242000,9.507241943359375,0.847521960735321,-0.0630909726023674,-3.1730079650878906
1667709588820292900,9.51729296875,0.9825119972229004,-0.11688096821308136,-2.9650156497955322
1667709588830342700,9.5273427734375,1.0913830995559692,-0.34250423312187195,-2.642239570617676
1667709588840393700,9.537393798828125,1.1296449899673462,-0.7865551710128784,-2.301604986190796
1667709588850444800,9.54744482421875,1.2031959295272827,-1.2690315246582031,-2.020714044570923
1667709588860494600,9.55749462890625,1.3273420333862305,-1.4370423555374146,-1.804060459136963
1667709588870545700,9.567545654296875,1.4432045221328735,-1.0861462354660034,-1.616033673286438
1667709588880596700,9.5775966796875,1.4709563255310059,-0.39007294178009033,-1.4352551698684692
1667709588890647600,9.5876474609375,1.3752256631851196,0.3741680681705475,-1.2871294021606445
1667709588900698600,9.59769873046875,1.1696498394012451,0.8700981736183167,-1.2746835947036743
1667709588910749700,9.607749755859375,0.9239410758018494,1.0465489625930786,-1.3509252071380615
1667709588920800800,9.61780078125,0.6394254565238953,1.0968842506408691,-1.3168926239013672
1667709588930851600,9.6278515625,0.4050562083721161,1.0423119068145752,-1.1318879127502441
1667709588940901600,9.637901611328125,0.24678748846054077,0.9706590175628662,-0.8750737905502319
1667709588950952700,9.64795263671875,0.15244826674461365,0.8857670426368713,-0.6058136820793152
1667709588961003800,9.658003662109374,0.08851270377635956,0.7614197731018066,-0.30005165934562683
1667709588971054800,9.668054931640626,0.05514363944530487,0.6045689582824707,0.0429135337471962
1667709588981106000,9.67810595703125,0.028054766356945038,0.4050755798816681,0.46335554122924805
1667709588991156500,9.688156494140625,-0.007793356664478779,0.14046961069107056,0.9533706903457642
1667709589001207600,9.69820751953125,-0.05724426358938217,-0.16302768886089325,1.5063518285751343
1667709589011257600,9.708257568359375,-0.0929299145936966,-0.378410279750824,2.031109571456909
1667709589021308700,9.71830859375,-0.1893318146467209,-0.3345485329627991,2.4345016479492188
1667709589031359700,9.72835986328125,-0.35670921206474304,0.002578263869509101,2.7757232189178467
1667709589041410600,9.73841064453125,-0.48170387744903564,0.4681885540485382,3.0529348850250244
1667709589051461600,9.748461669921875,-0.4643966853618622,0.6439800262451172,3.1135804653167725
1667709589061512700,9.7585126953125,-0.27367761731147766,0.4065280854701996,2.8263072967529297
1667709589071563800,9.768563720703124,-0.01265270821750164,0.051788561046123505,2.189650535583496
1667709589081614800,9.77861474609375,0.32081475853919983,-0.14665473997592926,0.6594343781471252
1667709589091665000,9.788664794921875,1.2093982696533203,-0.033763304352760315,-3.467923641204834
1667709589101715700,9.7987158203125,2.420989990234375,0.33136409521102905,-5.960587024688721
1667709589111766500,9.8087666015625,2.8696281909942627,-2.1038012504577637,-2.3830268383026123
1667709589121817600,9.818817626953125,1.9447243213653564,-5.68116569519043,2.35872745513916
1667709589131868700,9.82886865234375,0.10981050133705139,-5.996607303619385,4.5865654945373535
1667709589141919500,9.83891943359375,-1.2825173139572144,-5.222439289093018,4.605943202972412
1667709589151970600,9.848970458984375,-1.9631271362304688,-3.344498872756958,2.8537793159484863
1667709589162021600,9.859021728515625,-2.170747995376587,-0.7084554433822632,0.3197624385356903
1667709589172071700,9.86907177734375,-1.9244626760482788,0.40200814604759216,-0.7623460292816162
1667709589182122800,9.879122802734376,-1.765364170074463,0.7643857598304749,-0.6623288989067078
1667709589192173800,9.889173828125,-1.8343145847320557,0.8377003073692322,0.09711357951164246
1667709589202224600,9.899224609375,-2.026348114013672,0.8032797574996948,1.076579213142395
1667709589212275700,9.909275634765624,-2.230006217956543,1.2729203701019287,1.865417718887329
1667709589222326800,9.919326904296875,-2.2324962615966797,2.293882131576538,2.398902416229248
1667709589232377900,9.9293779296875,-2.293243885040283,4.199468612670898,3.0431742668151855
1667709589242428700,9.9394287109375,-2.3032314777374268,5.776150226593018,3.7300350666046143
1667709589252478700,9.949478759765626,-1.5943340063095093,5.6357293128967285,3.6761012077331543
1667709589262529500,9.959529541015625,-0.17201101779937744,3.647573471069336,2.554752826690674
1667709589272580600,9.96958056640625,0.6251784563064575,1.6179413795471191,1.8253084421157837
1667709589282631700,9.979631591796876,0.8596687316894531,0.5010417103767395,2.0511789321899414
1667709589292682800,9.989682861328125,0.7135523557662964,-0.21280968189239502,2.850562810897827
1667709589302733600,9.999733642578125,0.2812451720237732,-0.536323606967926,3.308602809906006
1667709589312784600,10.00978466796875,-0.2940659523010254,-0.48388129472732544,2.8890628814697266
1667709589322834700,10.019834716796876,-0.722599983215332,-0.5247787237167358,2.0157575607299805
1667709589332885800,10.0298857421875,-0.7397147417068481,-0.6818040013313293,1.1602592468261719
1667709589342936800,10.039936767578125,-0.5680433511734009,-0.7075186371803284,0.5107048749923706
1667709589352987600,10.049987548828126,-0.4254797697067261,-0.8801525831222534,0.15550720691680908
1667709589363038700,10.060038818359375,-0.2302093207836151,-1.2818553447723389,-0.05605404078960419
1667709589373089800,10.07008984375,0.08255214244127274,-1.7708587646484375,-0.3512987792491913
1667709589383140900,10.080140869140624,0.4931250214576721,-2.000337839126587,-0.7478687763214111
1667709589393191700,10.090191650390626,0.9434248805046082,-1.753292441368103,-1.110357642173767
1667709589403241700,10.10024169921875,1.296999454498291,-1.1483896970748901,-1.398867130279541
1667709589413292500,10.11029248046875,1.4224995374679565,-0.27239495515823364,-1.7604992389678955
1667709589423343600,10.120343505859376,1.2593399286270142,0.8275438547134399,-2.286888360977173
1667709589433394700,10.130394775390625,0.8569575548171997,1.897871971130371,-2.800243854522705
1667709589443445800,10.14044580078125,0.5432329177856445,2.5249364376068115,-2.9689412117004395
1667709589453496600,10.15049658203125,0.3747272491455078,2.4607982635498047,-3.0043537616729736
1667709589463547600,10.160547607421876,0.3321904242038727,1.8524017333984375,-3.059211492538452
1667709589473598700,10.1705986328125,0.4254000782966614,1.1308962106704712,-3.2286221981048584
1667709589483648800,10.180648681640625,0.5591744184494019,0.62813800573349,-3.7562263011932373
1667709589493699800,10.190699951171876,0.523687481880188,0.5553176403045654,-4.1867547035217285
1667709589503751000,10.2007509765625,0.4830223619937897,0.8336583971977234,-4.110321521759033
1667709589513801700,10.2108017578125,0.2444791942834854,0.48526614904403687,-3.856462240219116
1667709589523852500,10.2208525390625,0.03385591134428978,-1.075201153755188,-3.5401904582977295
1667709589533903600,10.230903564453126,-0.00840371660888195,-3.7800941467285156,-3.164130449295044
1667709589543954700,10.24095458984375,0.07671011239290237,-6.5419793128967285,-2.6600985527038574
1667709589554005500,10.251005615234375,0.4273167550563812,-8.024252891540527,-2.222476005554199
1667709589564055800,10.261055908203126,0.8454010486602783,-7.503884792327881,-1.8379427194595337
1667709589574106600,10.271106689453125,1.1263257265090942,-5.288485527038574,-1.5558090209960938
1667709589584157700,10.28115771484375,1.2616773843765259,-2.3963420391082764,-1.5132200717926025
1667709589594208800,10.291208740234374,1.2577687501907349,0.04057106748223305,-1.7174229621887207
1667709589604259800,10.301259765625,1.2273436784744263,1.7517670392990112,-1.9386847019195557
1667709589614310700,10.311310546875,1.1774158477783203,2.431114673614502,-2.041947841644287
1667709589624361700,10.32136181640625,1.1218682527542114,2.2860803604125977,-1.883618712425232
1667709589634412800,10.331412841796874,0.8957281112670898,1.8279106616973877,-1.54451322555542
1667709589644462600,10.341462646484375,0.46906328201293945,1.3659839630126953,-1.127821445465088
1667709589654513700,10.351513671875,0.016950586810708046,0.9901422262191772,-0.6806836724281311
1667709589664564700,10.361564697265624,-0.31633228063583374,0.7305641770362854,-0.2345259040594101
1667709589674615600,10.371615478515626,-0.46875256299972534,0.6958563923835754,0.19665227830410004
1667709589684666600,10.38166650390625,-0.49900585412979126,0.7472553849220276,0.6155992150306702
1667709589694717700,10.3917177734375,-0.40947064757347107,0.8759925961494446,1.0586416721343994
1667709589704768800,10.401768798828124,-0.21017007529735565,1.1746593713760376,1.6300228834152222
1667709589714819600,10.411819580078125,-0.011119544506072998,1.4313801527023315,2.4344112873077393
1667709589724869600,10.42186962890625,-0.011633267626166344,1.5025211572647095,3.287032127380371
1667709589734920700,10.431920654296874,-0.116496242582798,1.5023390054702759,3.893364906311035
1667709589744971800,10.4419716796875,-0.1893739253282547,1.1414023637771606,4.0797624588012695
1667709589755022800,10.45202294921875,-0.2082514762878418,0.36090758442878723,3.7070415019989014
1667709589765073700,10.46207373046875,-0.09668365865945816,-0.43483296036720276,2.4881837368011475
1667709589775124700,10.472124755859374,0.39196446537971497,-1.7553128004074097,-0.6665073037147522
1667709589785175800,10.48217578125,0.992134153842926,-2.3906381130218506,-3.376906633377075
1667709589795227000,10.492226806640625,1.2287909984588623,-1.437235713005066,-3.7256362438201904
1667709589805276700,10.502276611328124,1.4598807096481323,0.39195746183395386,-2.0993402004241943
1667709589815327700,10.51232763671875,1.8271470069885254,0.6300878524780273,0.5892197489738464
1667709589825378600,10.522378662109375,2.20076847076416,-3.2566468715667725,2.1422665119171143
1667709589835430000,10.532429931640625,1.4123971462249756,-5.948111057281494,3.2430102825164795
1667709589845481000,10.54248095703125,-0.014173813164234161,-5.544597148895264,2.7468419075012207
1667709589855532000,10.552531982421876,-0.8732507824897766,-2.694791555404663,0.521346390247345
1667709589865582600,10.56258251953125,-1.5657404661178589,0.5441578030586243,-2.3072218894958496
1667709589875633700,10.572633544921874,-1.8976657390594482,1.310811161994934,-3.083864450454712
1667709589885683700,10.58268359375,-2.0034544467926025,1.0377663373947144,-2.4320132732391357
1667709589895734800,10.59273486328125,-2.0944604873657227,0.6916016936302185,-1.2171767950057983
1667709589905785900,10.602785888671875,-2.063732862472534,0.7212684750556946,0.17434456944465637
1667709589915837000,10.6128369140625,-1.7539249658584595,1.6187748908996582,1.7294005155563354
1667709589925887700,10.6228876953125,-1.3177242279052734,2.6488466262817383,3.125033140182495
1667709589935938800,10.632938720703125,-1.069811463356018,3.166714668273926,4.198478698730469
1667709589945990000,10.642989990234375,-1.1235820055007935,3.2249021530151367,5.140166759490967
1667709589956041000,10.653041015625,-1.184952735900879,2.907104730606079,5.138815879821777
1667709589966091000,10.663091064453125,-0.9231805801391602,2.3768556118011475,3.914553642272949
1667709589976141800,10.673141845703125,-0.44410035014152527,2.0085220336914062,2.609593152999878
1667709589986192600,10.683192626953126,0.03242466598749161,1.7516461610794067,2.0017647743225098
1667709589996243700,10.69324365234375,0.2559274435043335,1.2721349000930786,2.1812665462493896
1667709590006294800,10.703294677734375,0.1461854875087738,0.5814498662948608,2.968411445617676
1667709590016345900,10.713345947265625,-0.07003036886453629,-0.12129668146371841,3.5784473419189453
1667709590026396700,10.723396728515626,-0.4000583291053772,-0.5663127899169922,3.389580488204956
1667709590036447700,10.73344775390625,-0.6800775527954102,-0.7914618849754333,2.6338083744049072
1667709590046497800,10.743497802734375,-0.7461516261100769,-0.8257378339767456,1.8523527383804321
1667709590056548900,10.753548828125,-0.7182987928390503,-0.7670266032218933,1.2889893054962158
1667709590066600000,10.763599853515625,-0.6622733473777771,-0.9512715339660645,0.9358911514282227
1667709590076650800,10.773650634765625,-0.5456550121307373,-1.4055291414260864,0.6957795023918152
1667709590086701800,10.783701904296874,-0.33561548590660095,-1.988573670387268,0.40310075879096985
1667709590096753000,10.7937529296875,-0.04423260688781738,-2.4608428478240967,0.005853688344359398
1667709590106804000,10.803803955078125,0.30831214785575867,-2.61435604095459,-0.4230153560638428
1667709590116854800,10.813854736328125,0.6420204043388367,-2.3103482723236084,-0.7863450050354004
1667709590126904800,10.82390478515625,0.899179220199585,-1.7441306114196777,-1.105116605758667
1667709590136955600,10.83395556640625,1.0446867942810059,-1.1122339963912964,-1.4414223432540894
1667709590147006700,10.8440068359375,1.0484274625778198,-0.4441000819206238,-1.9091017246246338
1667709590157057800,10.854057861328124,0.8931629061698914,0.40291622281074524,-2.4409568309783936
1667709590167108900,10.86410888671875,0.6175971031188965,1.599568486213684,-2.8232016563415527
1667709590177159700,10.87415966796875,0.3596184551715851,2.7589399814605713,-2.9929862022399902
1667709590187210800,10.884210693359375,0.2397109866142273,3.2788217067718506,-3.0314853191375732
1667709590197261800,10.89426171875,0.3599271774291992,2.9542384147644043,-2.99704909324646
1667709590207312000,10.904311767578125,0.6681817173957825,2.3415117263793945,-3.180492639541626
1667709590217363000,10.914363037109375,0.9042039513587952,2.0621964931488037,-3.7862918376922607
1667709590227414000,10.9244140625,0.992010235786438,2.100902557373047,-4.124380111694336
1667709590237464800,10.93446484375,0.9206540584564209,1.56940495967865,-3.8759219646453857
1667709590247516000,10.944515869140625,0.7108944654464722,-0.3490137457847595,-3.4397644996643066
1667709590257567000,10.95456689453125,0.639782190322876,-3.14453387260437,-3.1283552646636963
1667709590267617800,10.96461767578125,0.7261255979537964,-5.666004180908203,-2.830824613571167
1667709590277668600,10.974668701171876,0.944728434085846,-6.87404203414917,-2.487212657928467
1667709590287719700,10.9847197265625,1.1789904832839966,-6.165398597717285,-2.1845157146453857
1667709590297769700,10.994769775390624,1.234878659248352,-4.10158634185791,-2.0067262649536133
1667709590307820800,11.00482080078125,1.0552394390106201,-1.7814255952835083,-1.8780637979507446
1667709590317871900,11.014871826171875,0.7971614003181458,-0.06222989037632942,-1.8884831666946411
1667709590327923000,11.0249228515625,0.588824450969696,0.8357526063919067,-2.039919137954712
1667709590337973800,11.034973876953124,0.4206790030002594,1.2993299961090088,-2.130450963973999
1667709590348024800,11.04502490234375,0.33836573362350464,1.272564172744751,-2.024872064590454
1667709590358076000,11.055075927734375,0.3151422142982483,1.0528650283813477,-1.682897925376892
1667709590368127000,11.065126953125,0.14755959808826447,0.9637676477432251,-1.2399215698242188
1667709590378177000,11.075177001953126,-0.1297515332698822,1.0961971282958984,-0.794556200504303
1667709590388227600,11.0852275390625,-0.387095183134079,1.203356385231018,-0.37929484248161316
1667709590398278700,11.095278564453125,-0.5413299202919006,1.1757407188415527,0.009057000279426575
1667709590408329700,11.105329833984374,-0.6247595548629761,0.9669561386108398,0.3725353181362152
1667709590418380800,11.115380859375,-0.6953237652778625,0.7867599129676819,0.7392719984054565
1667709590428432000,11.125431884765625,-0.684449315071106,0.7440404295921326,1.1666430234909058
1667709590438482700,11.135482666015625,-0.5432973504066467,0.869299054145813,1.783712387084961
1667709590448533800,11.14553369140625,-0.390708327293396,1.081120252609253,2.6469950675964355
1667709590458583800,11.155583740234375,-0.37615159153938293,1.2798829078674316,3.5138895511627197
1667709590468635000,11.165634765625,-0.3611800968647003,1.5707885026931763,4.0913615226745605
1667709590478686000,11.17568603515625,-0.3316301703453064,1.2992671728134155,4.278693675994873
1667709590488736800,11.18573681640625,-0.3302711546421051,0.23824159801006317,3.70717453956604
1667709590498787800,11.195787841796875,-0.1506708264350891,-1.3423137664794922,1.0837295055389404
1667709590508839000,11.2058388671875,0.5029804706573486,-2.2981162071228027,-2.3774471282958984
1667709590518890000,11.215889892578126,0.9092239141464233,-1.4068573713302612,-3.4935975074768066
1667709590528940800,11.22594091796875,1.2535991668701172,0.17694346606731415,-2.5537924766540527
1667709590538991900,11.235991943359375,1.6403485536575317,1.944511890411377,-0.16778279840946198
1667709590549041700,11.246041748046874,2.0096628665924072,-1.014356017112732,1.8863778114318848
1667709590559092700,11.2560927734375,2.023221015930176,-4.44193172454834,2.145732879638672
1667709590569143800,11.266143798828125,0.9271420836448669,-4.920760631561279,1.2111481428146362
1667709590579195000,11.27619482421875,-0.2781827747821808,-6.080541133880615,0.8319266438484192
1667709590589245700,11.28624560546875,-1.8713842630386353,0.29131433367729187,-2.5512232780456543
1667709590599296800,11.296296875,-2.7047202587127686,4.619009494781494,-3.066549301147461
1667709590609347800,11.306347900390625,-2.558345079421997,3.422677993774414,-1.5134804248809814
1667709590619399000,11.31639892578125,-2.077275276184082,0.3954654335975647,0.004108735825866461
1667709590629449000,11.326448974609375,-1.4430683851242065,-1.3001351356506348,1.1538933515548706
1667709590639499800,11.336499755859375,-0.8066923022270203,-1.1177345514297485,2.1004865169525146
1667709590649550800,11.34655078125,-0.21758031845092773,0.07093580067157745,2.925015449523926
1667709590659602000,11.356601806640626,0.14284707605838776,1.2233812808990479,3.44743013381958
1667709590669652700,11.36665283203125,-0.09236730635166168,1.7045193910598755,3.572021007537842
1667709590679703800,11.376703857421875,-0.8157973289489746,1.4644578695297241,3.5174148082733154
1667709590689754600,11.386754638671874,-1.582321047782898,1.3668642044067383,3.3291120529174805
1667709590699805700,11.3968056640625,-1.7290693521499634,1.9857991933822632,2.8713576793670654
1667709590709855700,11.406855712890625,-1.1820251941680908,2.798645257949829,2.532972812652588
1667709590719906800,11.41690673828125,-0.6123616695404053,3.2133631706237793,2.552905559539795
1667709590729958000,11.4269580078125,-0.2425820678472519,2.863128185272217,2.859290599822998
1667709590740008700,11.4370087890625,-0.19133928418159485,1.7614834308624268,3.2527406215667725
1667709590750059800,11.447059814453125,-0.30059680342674255,0.527301549911499,3.4963669776916504
1667709590760110800,11.45711083984375,-0.4708210527896881,-0.28138402104377747,3.390477418899536
1667709590770162000,11.467161865234376,-0.6861842274665833,-0.5520749092102051,3.0275559425354004
1667709590780213000,11.477212890625,-0.852384090423584,-0.6008901000022888,2.5309269428253174
1667709590790263800,11.487263916015625,-0.8483068346977234,-0.6192196011543274,1.9885021448135376
1667709590800313600,11.497313720703126,-0.7284078598022461,-0.6746113300323486,1.5729023218154907
1667709590810364700,11.50736474609375,-0.6195831298828125,-0.8984545469284058,1.298527479171753
1667709590820415700,11.517415771484375,-0.492748498916626,-1.4150644540786743,0.9606576561927795
1667709590830467600,11.527467529296874,-0.24667373299598694,-1.928713083267212,0.3915744721889496
1667709590840518400,11.537518310546876,0.0847446396946907,-2.069438934326172,-0.2764158844947815
1667709590850569500,11.547569580078125,0.45275941491127014,-1.8512026071548462,-0.8600159287452698
1667709590860620500,11.55762060546875,0.8190791606903076,-1.5237159729003906,-1.3558263778686523
1667709590870671600,11.567671630859374,1.0611867904663086,-1.2905093431472778,-1.8097320795059204
1667709590880721400,11.577721435546875,1.1224620342254639,-0.986396312713623,-2.308368444442749
1667709590890772200,11.587772216796875,1.0283262729644775,-0.11932908743619919,-2.9060919284820557
1667709590900823300,11.5978232421875,0.8649848103523254,1.583126425743103,-3.218432664871216
1667709590910874400,11.607874267578126,0.6545116901397705,3.1716103553771973,-3.092602014541626
1667709590920925400,11.617925537109375,0.5809451341629028,3.7104618549346924,-2.8867835998535156
1667709590930976500,11.6279765625,0.6502600312232971,3.246375560760498,-2.9258031845092773
1667709590941027300,11.63802734375,0.8345247507095337,2.490983009338379,-3.4191060066223145
1667709590951078400,11.648078369140626,0.9095020890235901,1.8813363313674927,-4.0597991943359375
1667709590961128400,11.65812841796875,0.9897794723510742,1.3955564498901367,-3.975285053253174
1667709590971179500,11.668179443359374,0.9442673325538635,0.21948929131031036,-3.548708438873291
1667709590981230600,11.678230712890626,0.830790102481842,-1.9385305643081665,-3.2344038486480713
1667709590991281400,11.688281494140625,0.8422989845275879,-4.488487720489502,-3.071012258529663
1667709591001332500,11.69833251953125,0.9389060139656067,-6.560778617858887,-2.7793967723846436
1667709591011383600,11.708383544921874,1.0651483535766602,-7.160184860229492,-2.520355463027954
1667709591021434600,11.7184345703125,1.071746587753296,-5.816757678985596,-2.342506170272827
1667709591031485400,11.7284853515625,1.0199108123779297,-3.367614269256592,-2.2302331924438477
1667709591041536300,11.738536376953125,0.8464242219924927,-1.2349239587783813,-2.18446946144104
1667709591051586300,11.74858642578125,0.6608312129974365,-0.08600278198719025,-2.191969394683838
1667709591061637400,11.758637451171875,0.6162193417549133,0.29242557287216187,-2.1479547023773193
1667709591071688400,11.7686884765625,0.6891191005706787,0.32387006282806396,-1.9143410921096802
1667709591081739500,11.778739501953124,0.7227692008018494,0.34480413794517517,-1.5062540769577026
1667709591091790300,11.788790283203125,0.5720281600952148,0.5696700215339661,-1.1004600524902344
1667709591101841400,11.79884130859375,0.28533950448036194,0.9833600521087646,-0.7761265635490417
1667709591111892500,11.808892578125,0.005593078210949898,1.353186845779419,-0.5370743274688721
1667709591121943600,11.818943603515624,-0.2067643404006958,1.5866217613220215,-0.325366348028183
1667709591131993600,11.82899365234375,-0.3929392695426941,1.694235920906067,-0.0905652865767479
1667709591142044700,11.839044677734375,-0.6021916270256042,1.598675012588501,0.19155485928058624
1667709591152095500,11.849095458984374,-0.7557891607284546,1.3635571002960205,0.5154352188110352
1667709591162146300,11.859146240234375,-0.7832791209220886,1.0139729976654053,0.929006040096283
1667709591172197400,11.869197265625,-0.6603795886039734,0.8110570907592773,1.5945485830307007
1667709591182248400,11.87924853515625,-0.6323827505111694,0.789413332939148,2.5423977375030518
1667709591192299300,11.88929931640625,-0.7088892459869385,1.0022659301757812,3.4441099166870117
1667709591202350300,11.899350341796875,-0.6844990253448486,1.2931894063949585,3.9379279613494873
1667709591212401400,11.9094013671875,-0.579957127571106,0.8870964646339417,3.967386245727539
1667709591222451500,11.919451416015624,-0.47036123275756836,0.0536617785692215,3.247006893157959
1667709591232502500,11.92950244140625,-0.15922729671001434,-0.970096230506897,0.7375687956809998
1667709591242553600,11.9395537109375,0.8378627896308899,-1.2996306419372559,-2.7161591053009033
1667709591252604400,11.9496044921875,1.6520416736602783,-0.37785595655441284,-3.503662109375
1667709591262655500,11.959655517578126,2.0671262741088867,0.10624862462282181,-1.8835506439208984
1667709591272706600,11.96970654296875,2.458004951477051,-2.028559684753418,0.8959299325942993
1667709591282757600,11.979757568359375,2.803173542022705,-6.137168884277344,2.2665112018585205
1667709591292808400,11.989808349609374,1.8007529973983765,-5.9919352531433105,2.3981378078460693
1667709591302858200,11.999858154296875,0.01748105138540268,-3.2604408264160156,1.1758748292922974
1667709591312909300,12.009909423828125,-1.6734920740127563,2.1271283626556396,-2.535417079925537
1667709591322960400,12.01996044921875,-2.694002151489258,4.103763103485107,-3.89974308013916
1667709591333011500,12.030011474609376,-2.7714591026306152,3.456389904022217,-2.9021005630493164
1667709591343062500,12.0400625,-2.522857666015625,1.4865152835845947,-1.2073791027069092
1667709591353113300,12.05011328125,-2.2420945167541504,0.3746630847454071,0.2116577923297882
1667709591363164400,12.060164306640624,-1.9237117767333984,0.6973080635070801,1.544395089149475
1667709591373215500,12.070215576171876,-1.5042724609375,1.7895705699920654,2.8665013313293457
1667709591383265500,12.080265625,-1.1320286989212036,2.7248542308807373,3.9964990615844727
1667709591393316600,12.090316650390625,-1.085889220237732,3.5029244422912598,4.95920467376709
1667709591403367400,12.100367431640626,-1.3818042278289795,3.8296709060668945,5.429479598999023
1667709591413418500,12.11041845703125,-1.4035332202911377,3.626047372817993,4.187143325805664
1667709591423469600,12.120469482421875,-1.0023356676101685,3.2672276496887207,2.5255982875823975
1667709591433520600,12.130520751953124,-0.4810517430305481,3.035088062286377,1.7534489631652832
1667709591443571500,12.140571533203126,-0.09692711383104324,2.635744333267212,1.8812882900238037
1667709591453622300,12.150622314453125,0.0030729847494512796,1.996130108833313,2.6299679279327393
1667709591463673300,12.16067333984375,-0.06712818145751953,1.1329141855239868,3.454329252243042
1667709591473723400,12.170723388671876,-0.23276720941066742,0.2758346199989319,3.6466832160949707
1667709591483774500,12.1807744140625,-0.4570638835430145,-0.4596345126628876,3.210545301437378
1667709591493825500,12.190825439453125,-0.6237665414810181,-0.7477506995201111,2.6121368408203125
1667709591503876400,12.20087646484375,-0.7487422227859497,-0.49887654185295105,2.1653897762298584
1667709591513927400,12.210927490234376,-0.8614842295646667,-0.3626004457473755,1.859514594078064
1667709591523978500,12.220978515625,-0.9292025566101074,-0.7025352120399475,1.573433518409729
1667709591534029600,12.231029541015625,-0.8884924054145813,-1.4444855451583862,1.3040465116500854
1667709591544080400,12.241080322265624,-0.6646361351013184,-2.2124924659729004,0.9320927262306213
1667709591554130400,12.25113037109375,-0.3121230900287628,-2.5579562187194824,0.39813482761383057
1667709591564181200,12.26118115234375,0.14668576419353485,-2.4341518878936768,-0.24979087710380554
1667709591574232300,12.271232421875,0.6123027205467224,-2.0219919681549072,-0.8356908559799194
1667709591584283400,12.281283447265626,0.9581868052482605,-1.53797447681427,-1.3079781532287598
1667709591594334500,12.29133447265625,1.1087263822555542,-1.0927610397338867,-1.8739395141601562
1667709591604385300,12.30138525390625,1.10373854637146,-0.38572078943252563,-2.44635009765625
1667709591614436400,12.311436279296874,0.9893664121627808,0.9192848801612854,-2.821784734725952
1667709591624487400,12.3214873046875,0.7617883682250977,2.350475549697876,-3.0869078636169434
1667709591634538500,12.33153857421875,0.5044271349906921,3.3168697357177734,-3.1562018394470215
1667709591644588500,12.341588623046874,0.38350194692611694,3.34377121925354,-3.006972074508667
1667709591654639400,12.351639404296876,0.44775497913360596,2.5684711933135986,-2.9807372093200684
1667709591664690400,12.3616904296875,0.583977997303009,1.7754929065704346,-3.348900079727173
1667709591674741500,12.371741455078125,0.5983713269233704,1.1617666482925415,-3.9262306690216064
1667709591684792600,12.38179248046875,0.6150552034378052,0.5474597811698914,-3.9643590450286865
1667709591694843600,12.39184375,0.5562691688537598,-0.8125462532043457,-3.5555856227874756
1667709591704894500,12.40189453125,0.6547854542732239,-2.9943599700927734,-3.152214527130127
1667709591714945500,12.411945556640624,1.064455270767212,-5.052017688751221,-2.8436601161956787
1667709591724995300,12.421995361328126,1.4226270914077759,-6.547050952911377,-2.473737955093384
1667709591735046400,12.43204638671875,1.5498263835906982,-6.67282772064209,-2.1836307048797607
1667709591745097500,12.442097412109375,1.5343313217163086,-5.094975471496582,-1.9650315046310425
1667709591755148300,12.452148193359376,1.5611116886138916,-2.6407408714294434,-1.803682804107666
1667709591765199400,12.462199462890625,1.555870532989502,-0.7050564289093018,-1.6698566675186157
1667709591775250400,12.47225048828125,1.4669462442398071,0.03734445944428444,-1.6071504354476929
1667709591785301500,12.482301513671874,1.4334734678268433,0.21505621075630188,-1.5033013820648193
1667709591795352600,12.4923525390625,1.4688799381256104,0.19220629334449768,-1.3566416501998901
1667709591805403400,12.5024033203125,1.401466727256775,0.17135688662528992,-1.1223113536834717
1667709591815453400,12.512453369140625,1.1313213109970093,0.328965961933136,-0.8482730388641357
1667709591825504500,12.52250439453125,0.8220052719116211,0.691172182559967,-0.5815672278404236
1667709591835555000,12.53255517578125,0.5116181373596191,1.0357683897018433,-0.32257992029190063
1667709591845606100,12.542606201171875,0.22138583660125732,1.2360347509384155,-0.05998832732439041
1667709591855657200,12.5526572265625,-0.10357281565666199,1.3829094171524048,0.223320871591568
1667709591865708000,12.5627080078125,-0.5196227431297302,1.5241045951843262,0.5185412168502808
1667709591875759000,12.572759033203125,-0.9015847444534302,1.437442660331726,0.80963134765625
1667709591885810200,12.58281005859375,-1.0342034101486206,1.14864981174469,1.0708999633789062
1667709591895861200,12.592861328125,-1.0139734745025635,0.9542694091796875,1.3823329210281372
1667709591905911000,12.6029111328125,-1.1418739557266235,0.9655749797821045,1.754972219467163
1667709591915961900,12.6129619140625,-1.3803517818450928,1.1475293636322021,1.981675386428833
1667709591926013000,12.623012939453124,-1.543921947479248,1.5206142663955688,2.037966728210449
1667709591936064000,12.63306396484375,-1.5042855739593506,1.8255735635757446,1.9530467987060547
