time,seconds_elapsed,z,y,x
1667776735252813300,0.039813232421875,1.3510077817201613,1.099428391355276,3.1454344534784555
1667776735262865400,0.049865478515625,2.023947375050187,0.9140817608326673,3.1262837628066538
1667776735272916200,0.059916259765625,2.5504806016266346,0.8113701588988304,2.8920588273465633
1667776735282967300,0.06996728515625,2.7778116859197617,0.732240508082509,2.5526164446115494
1667776735293018400,0.080018310546875,2.8134593378841877,0.6779509917512536,2.210119935002923
1667776735303070200,0.0900703125,2.682231251040101,0.6568295855283737,1.8731638161256907
1667776735313121300,0.100121337890625,2.130476489445567,0.6621785453408956,1.6196622255265711
1667776735323172400,0.11017236328125,1.5394488711267709,0.7707911880120635,1.5994246164008974
1667776735333223400,0.120223388671875,1.3322627492398023,0.8016849234476685,1.7650930252462624
1667776735343275300,0.130275146484375,1.3277116618067026,0.582305090419948,1.6245472210891543
1667776735353326300,0.140326416015625,1.4257184470504523,0.22756372400522232,1.4480929220743477
1667776735363377400,0.15037744140625,2.176712170919776,-0.06329319925904274,1.4461043786056338
1667776735373428200,0.16042822265625,2.8702620060801505,0.5301774282976984,1.6760986907586455
1667776735383480300,0.170480224609375,3.5519986538499593,1.364505561196804,1.5501917989373206
1667776735393531400,0.180531494140625,4.178194616183639,1.196257657252252,0.7902521136768161
1667776735403582200,0.190582275390625,4.589864615261554,0.6464905623435974,-0.24975714337378738
1667776735413633300,0.20063330078125,4.370257403218746,0.15328151322007177,-1.2025955550368874
1667776735423685400,0.210685302734375,3.7227018419921394,-0.2252718136757612,-1.4144156934000551
1667776735433736400,0.220736328125,2.9393454791784284,-0.18609949471652507,-0.8032710235953331
1667776735443787300,0.230787353515625,2.447729252204299,0.03930237507969141,0.24185648978445679
1667776735453838300,0.24083837890625,2.2174089229673144,0.2534872698128223,0.9230039029568433
1667776735463890400,0.250890380859375,1.931461399054527,0.2540542560458183,1.0474930369347333
1667776735473941200,0.260941162109375,1.1570020439237356,-0.3251984610661864,0.8561880825296044
1667776735483992300,0.270992431640625,-0.19478841260671614,-1.3366262051463127,0.5415488632701337
1667776735494043400,0.28104345703125,0.32891631254553794,-1.5457666759714483,0.6149307642146945
1667776735504095200,0.29109521484375,1.4526409407675265,-1.0775459376320242,0.8327702359326183
1667776735514146300,0.301146240234375,1.4228829313635825,-1.3898580291181801,0.42309813267365093
1667776735524197400,0.311197265625,1.751730854848027,-2.317236201636493,0.04549655354470014
1667776735534248400,0.32124853515625,2.7969407492816445,-3.146729753986001,-0.19293270173743365
1667776735544300300,0.33130029296875,3.3083559017032385,-2.7198931654363867,-0.25236820265501736
1667776735554351400,0.341351318359375,2.3358038317233323,-1.5248814165920017,0.7543100088104605
1667776735564402400,0.35140234375,1.27387368863523,-0.5529881027817726,1.0023908895350992
1667776735574453200,0.361453369140625,0.4110878152757883,-0.4324801473945379,0.05147372825816273
1667776735584505300,0.37150537109375,-0.19323650698959827,-0.6698100631326437,-0.5580150275656953
1667776735594556400,0.381556396484375,-0.5871306108802556,-1.3059738772511482,-0.8277360411576926
1667776735604607200,0.391607177734375,-1.0295774410158396,-1.7122271119773387,-0.7057448614753782
1667776735614658300,0.401658203125,-1.724768613642454,-2.0497975633606313,-0.5437085620546713
1667776735624710400,0.41171044921875,-2.381724455899,-2.047772779534757,-0.4340785225018859
1667776735634761200,0.42176123046875,-2.7686732706964015,-1.5692191554903983,-0.5261034568570554
1667776735644812300,0.431812255859375,-2.6027806977063417,-1.3822057607993483,-1.2820333219543099
1667776735654863400,0.44186328125,-2.510878074556589,-1.6641817507326602,-2.627039525172114
1667776735664915200,0.451915283203125,-2.450072015938163,-1.4110156756982206,-2.5503216116726395
1667776735674966300,0.46196630859375,-2.6793039654165507,-0.7364782917827367,-1.4181146940484641
1667776735685017300,0.472017333984375,-3.35417598811388,-0.44599049409180874,-0.888599675182253
1667776735695068400,0.482068359375,-3.764246735301614,-0.4193780892372131,-0.8292109360158443
1667776735705120300,0.492120361328125,-3.6621442051768303,-0.33769992298185825,-0.8785675259895622
1667776735715171300,0.50217138671875,-3.367145359802246,-0.3225096603736281,-1.3150161386236547
1667776735725222400,0.512222412109375,-3.2402327980697154,-0.21334669034332035,-1.7216244703978298
1667776735735273500,0.5222734375,-3.2876895457714794,-0.02523731710910797,-1.662065196970105
1667776735745325300,0.5323251953125,-3.305184285929799,0.18056173433363437,-1.4553325179390608
1667776735755376400,0.54237646484375,-3.0249679991453884,0.35943858432024717,-1.5476041205316782
1667776735765427500,0.552427490234375,-2.697011471542716,0.443770772215724,-1.5472059149943291
1667776735775478300,0.562478271484375,-2.152873614692688,0.5649333921194076,-1.5075674398280678
1667776735785530400,0.5725302734375,-1.5578461130827665,0.6287015154138207,-1.3112230299510061
1667776735795581400,0.58258154296875,-1.3647370318651197,0.48408846181780096,-1.1444187489435076
1667776735805632300,0.59263232421875,-1.3475965119719504,0.3687903500333428,-1.339762457345426
1667776735815683300,0.602683349609375,-1.1221820749551057,0.4784697451531887,-1.6002639898344873
1667776735825735400,0.6127353515625,-0.9232359581470488,0.6639423401430249,-1.9720972146950662
1667776735835786200,0.6227861328125,-0.9308651378512381,0.752835844604671,-1.8954868532232938
1667776735845837300,0.63283740234375,-0.9974059407293796,0.9205939192056656,-1.6062655683368443
1667776735855888400,0.642888427734375,-1.1261515631079673,1.1857044067949056,-1.4135165526032447
1667776735865940200,0.652940185546875,-1.3708756807506084,1.019621279668808,-1.1332511659801006
1667776735875991300,0.6629912109375,-0.8482862233638763,0.9300120281532406,-0.9165512196861207
1667776735886042400,0.67304248046875,-0.011863456273078919,0.4951803491964936,-0.835502145114541
1667776735896093400,0.683093505859375,0.8218383614212275,0.2112602394580841,-1.0637982750475405
1667776735906145300,0.693145263671875,2.007936151447892,0.24448855532109737,-0.7263212010361254
1667776735916196400,0.7031962890625,2.3080168301314115,0.8824515278160572,0.18717289610169827
1667776735926247400,0.713247314453125,1.5038462273478508,1.4739499785169958,0.5353291850376873
1667776735936298500,0.723298583984375,1.2634341276854275,1.5549927694782615,0.7831288376681507
1667776735946350300,0.733350341796875,1.3906576550632714,1.419694948977232,1.0983694568868725
1667776735956401400,0.7434013671875,1.523418942824006,1.2429600794553757,1.2023889996141195
1667776735966452500,0.753452392578125,2.0605156489908696,1.0779098025083542,1.2398089219480752
1667776735976503300,0.76350341796875,2.2837603407531977,0.6789952401071786,1.5351728012427688
1667776735986555400,0.773555419921875,1.8165742061585186,0.39518180561363697,1.1860030244152993
1667776735996606500,0.7836064453125,1.6179817250937223,0.3573629470899701,0.44945535719078034
1667776736006657300,0.7936572265625,1.8034399992972612,0.38696664271503683,-0.04446516467034817
1667776736016708400,0.803708251953125,1.8897832347542047,0.29146073437631126,-0.39036914463490247
1667776736026760400,0.813760498046875,1.4638298587799072,0.06763268976807595,-0.9093000795140862
1667776736036811300,0.823811279296875,0.8648603415459394,-0.19028700953423977,-1.4921436607249081
1667776736046862300,0.8338623046875,0.2859428477376699,-0.27616671913266183,-1.5583016017653046
1667776736056913400,0.843913330078125,-0.489737573620677,-0.14748656320571898,-1.496358648071438
1667776736066965200,0.85396533203125,-0.35567572465538977,0.17960048808604478,-1.3741333673723042
1667776736077016300,0.864016357421875,0.7270639822274446,0.5566647454679012,-1.1307101031951605
1667776736087067400,0.8740673828125,2.0169395421147347,0.7200757307752966,-0.07213073183968663
1667776736097118500,0.884118408203125,2.477850834223628,0.6666030837848782,0.07017112220451235
1667776736107170300,0.89417041015625,2.785803853717446,0.4759814354687929,-0.42020284962356086
1667776736117221400,0.904221435546875,2.8912071789532896,0.06408902581185102,-0.5615796977773309
1667776736127272400,0.9142724609375,2.247878880032897,-0.5604591693148017,-0.6515192041605711
1667776736137323300,0.9243232421875,1.0796376492142676,-0.9697305828183889,-0.3743710727751255
1667776736147375400,0.934375244140625,-0.12622574851214885,-0.8545254100143909,0.30267902461364865
1667776736157426400,0.944426513671875,-1.1424638154834508,-0.4374924225986004,0.6531957590706646
1667776736167477200,0.954477294921875,-1.5804852303922174,-0.1037976436048746,0.7922361271008849
1667776736177528300,0.9645283203125,-1.4020985020101069,0.02641103706359863,0.6402293099917471
1667776736187580400,0.974580322265625,-0.8138789268493651,0.05477905341386795,0.34019173979759215
1667776736197631200,0.98463134765625,0.3189747642457485,-0.019807693275809286,0.3344983504615724
1667776736207682300,0.994682373046875,0.4791138882756233,-0.27007220164984463,0.18410028372332451
1667776736217733400,1.0047333984375,0.49314942789077754,-0.22261574620902538,-0.9661968557342886
1667776736227785500,1.014785400390625,0.2545674662649631,-0.33969431166946884,-1.4262255197897553
1667776736237836300,1.024836181640625,-0.4446200825214386,-0.29376521192640065,-1.0859206750065087
1667776736247887400,1.034887451171875,-1.2870301073282957,-0.16985826175063848,-0.8235837437838316
1667776736257938400,1.0449384765625,-1.8521657440215349,-0.16333412067890166,-0.28043314440548417
1667776736267990300,1.054990234375,-2.460985624140501,-0.3512871343076229,0.5591172531865537
1667776736278041300,1.065041259765625,-2.907569115689397,-0.7034452062308788,1.3117742340929806
1667776736288092400,1.075092529296875,-3.070301178821921,-0.4268424337685108,1.7607237241208553
1667776736298143500,1.0851435546875,-2.887230676537752,-0.38972909316569565,1.534395533259958
1667776736308195300,1.0951953125,-2.2804069386720656,-0.33132980342805385,0.7652372071467339
1667776736318246400,1.105246337890625,-1.8261866686344146,-0.20743308238536118,-0.035502836666256185
1667776736328297500,1.11529736328125,-1.5758604932010172,-0.17857552895247936,0.031070114915817973
1667776736338348300,1.125348388671875,-1.4981103140443564,-0.19145985270589588,0.7557894337132572
1667776736348400400,1.135400390625,-1.7632424289435147,-0.1606900359109044,1.2564959989853202
1667776736358451500,1.145451416015625,-1.8586551060408352,-0.06223346107304096,1.483894887817651
1667776736368502300,1.155502197265625,-2.0796201624333857,0.08440642217546701,1.7188474068999289
1667776736378553300,1.16555322265625,-2.530548405188322,0.3862076410412788,1.8721388569921253
1667776736388605400,1.17560546875,-2.869604418954253,0.8857748270198702,1.8755485193051398
1667776736398656300,1.18565625,-2.8563018697887657,1.4340607434600592,1.8200294611789285
1667776736408707300,1.195707275390625,-2.774544793078303,1.7918552138350903,1.7902714517749845
1667776736418758400,1.20575830078125,-2.4688036044150588,1.9758008915185927,1.790670534095168
1667776736428810200,1.215810302734375,-1.9332704943031072,2.1813810395136475,1.678697475080192
1667776736438861300,1.225861328125,-1.2047615739643573,2.2869505150966343,2.14572725006938
1667776736448912400,1.235912353515625,-0.6589560761630535,2.151118003197014,2.588102476273477
1667776736458963500,1.24596337890625,-0.06271569163203239,1.7238915385469793,1.579897201371193
1667776736469015300,1.256015380859375,0.6101853232532739,1.3753303220719097,0.8424632893640548
1667776736479066400,1.26606640625,1.0487404066473245,1.305293493771553,0.5082127761837095
1667776736489117400,1.276117431640625,1.4686328751474618,1.2063058807969094,0.1685015133794397
1667776736499168500,1.28616845703125,1.740235062843561,1.1940186461538076,0.163830525893718
1667776736509220400,1.296220458984375,1.9623218167424201,1.3484107509642838,0.338358679151535
1667776736519271400,1.306271484375,2.2815023326933384,1.4609788532629608,0.5331331362981349
1667776736529322500,1.316322509765625,2.7378964396387335,1.464762755715847,0.5523903560843318
1667776736539373300,1.326373291015625,3.29024332190752,1.385182730783522,0.6057820467930287
1667776736549425400,1.33642529296875,3.8440275435030458,1.2598752661600707,0.7362346922852099
1667776736559476500,1.3464765625,4.200796324092149,1.2005424949645995,0.5995158260051161
1667776736569527300,1.35652734375,4.225247459259629,0.8889256922662258,0.7128237868856638
1667776736579578400,1.366578369140625,4.342562756085395,-0.06130056413710117,0.7170013648312539
1667776736589630500,1.37663037109375,4.611286173474788,-0.6263184196695685,0.613113558724895
1667776736599681300,1.386681396484375,4.62476700181663,-0.6287012231528759,0.38080775475911793
1667776736609732400,1.396732421875,4.16683384873569,-0.6520645630836487,-0.2235251892041415
1667776736619783400,1.406783447265625,3.557366318362951,-0.7932806677177547,-1.190091462772712
1667776736629835300,1.416835205078125,3.1341420750916003,-0.8019789379581809,-1.9383853530988095
1667776736639886300,1.42688623046875,2.883502595925331,-0.7406530932493507,-2.2725817980043588
1667776736649937400,1.4369375,2.7518331950545307,-0.847410317312181,-1.8962939318224787
1667776736659988500,1.446988525390625,1.6160452040731905,-1.3835963383749126,-1.2320675140410662
1667776736670040300,1.457040283203125,0.5335714546501636,-2.2679608602054415,-0.7486855930574238
1667776736680091400,1.46709130859375,2.2338842569500206,-2.0926967938885093,0.22473946036472917
1667776736690142500,1.477142578125,2.586463184633851,-1.3305053841784595,0.3030519495792687
1667776736700193300,1.487193359375,2.226391855368018,-1.4101507294319569,-0.0814558470078744
1667776736710245400,1.497245361328125,1.8410206651508807,-1.5250957899950444,-0.8350599543049931
1667776736720296400,1.50729638671875,1.0947224056214093,-1.3798429771907628,-1.8284842780523
1667776736730347500,1.517347412109375,0.2079880859196186,-1.4308672081157565,-2.181057798908651
1667776736740398300,1.5273984375,-0.15928279946148394,-1.4565353178575635,-1.3447824774645267
1667776736750450400,1.537450439453125,-0.6410071624964475,-1.5203300368979573,-0.5758588368900119
1667776736760501500,1.54750146484375,-1.4078916984587906,-1.6232894761130212,-0.24726160023100674
1667776736770552300,1.55755224609375,-2.4119798934310674,-1.447196411626041,0.17896080194301903
1667776736780604400,1.5676044921875,-3.3117753547579047,-1.2257336348444223,0.3572652588691562
1667776736790655500,1.577655517578125,-3.399135658302903,-1.3157125964552163,0.22742168518602845
1667776736800706300,1.587706298828125,-3.0573756462752817,-1.3513942968197166,0.07591123675908892
1667776736810757400,1.59775732421875,-2.6600147430568932,-1.307164256079495,-0.23337328706681726
1667776736820808400,1.607808349609375,-2.8726135376423594,-1.1275098458491266,-0.772751601364836
1667776736830860300,1.6178603515625,-3.229415051457286,-1.0360801009081304,-1.1221490494683384
1667776736840911400,1.627911376953125,-3.128463444933295,-0.9340366074942051,-1.0345751031726598
1667776736850962400,1.63796240234375,-2.8625258588701485,-0.7190913959130645,-0.4095388688007369
1667776736861013500,1.648013427734375,-2.7121242850005625,-0.5470911536976695,0.10531330886483192
1667776736871065300,1.6580654296875,-2.7512521802961825,-0.4091350737728178,0.5411127368751913
1667776736881116400,1.668116455078125,-2.65884628379941,-0.22530703111961484,0.665706061879918
1667776736891167500,1.67816748046875,-2.341175587889552,-0.10941694479137658,0.0645620501510799
1667776736901219300,1.68821923828125,-1.7405629796236752,-0.08914236465618014,-1.1095995106272398
1667776736911270400,1.6982705078125,-1.1784592579722404,0.06676701284945011,-1.98467422606498
1667776736921321500,1.708321533203125,-1.0244576137840746,0.19361206230372188,-2.166535206428915
1667776736931372300,1.718372314453125,-1.1707739641666413,0.21432488772571084,-2.23772266606912
1667776736941423400,1.72842333984375,-1.5435668278396129,0.3078353844635188,-2.0798685842365026
1667776736951475500,1.738475341796875,-1.942269793316722,0.45977980386093253,-1.862503305901587
1667776736961526300,1.7485263671875,-2.1452432659447194,0.7130978545866906,-1.4364271803304551
1667776736971577300,1.758577392578125,-2.1041303343117237,0.7716039656996726,-1.0468243438929319
1667776736981629400,1.76862939453125,-1.7971762627273797,0.626286709357053,-0.7380418147724122
1667776736991680300,1.77868017578125,-1.4476163906037807,0.6114084353074432,-0.5228793071787804
1667776737001731300,1.7887314453125,-0.9008651363849639,0.5398404519170522,-0.8816253061249851
1667776737011782400,1.798782470703125,-0.3083820585608482,0.5004679342105984,-1.4539568456716834
1667776737021834500,1.80883447265625,-0.008840309059619904,0.6297513167276978,-1.8798279501900075
1667776737031885300,1.81888525390625,0.03518587967157364,0.8226645831122994,-2.1223981046691534
1667776737041936400,1.828936279296875,-0.0969920552432537,0.9530414599545299,-2.15125171257928
1667776737051987500,1.838987548828125,-0.3839157307118177,1.1015450912483036,-2.0503272863231596
1667776737062039300,1.849039306640625,-0.7976157743126153,1.326621528482437,-1.7435842271409927
1667776737072090400,1.85909033203125,-1.2085861006885765,1.4447393738627432,-1.0133942218475043
1667776737082141400,1.869141357421875,-1.2242173850625753,1.3174237842872738,-0.12884995953589676
1667776737092192500,1.879192626953125,-0.6719254478514194,1.2057416710428892,0.4170557837694883
1667776737102244600,1.88924462890625,0.19246318452954292,1.1992337504535913,0.5359253242999314
1667776737112295700,1.899295654296875,1.1476245592474936,1.2562972615428267,0.282762738130521
1667776737122346800,1.9093466796875,2.0108231050610543,1.3312959500342607,-0.160122903547436
1667776737132397300,1.919397216796875,2.5872838533669706,1.3287861591704189,-0.6034628465978429
1667776737142449700,1.92944970703125,2.8788486326396465,1.2041843585982919,-0.8892070664908737
1667776737152500700,1.939500732421875,2.7745255038559433,1.1126442851506173,-0.8480936964664608
1667776737162551600,1.949551513671875,2.2292571816712616,1.0485226722434162,-0.48473695232179015
1667776737172602400,1.959602294921875,1.653430055093765,0.9036386927515268,-0.07899174018297345
1667776737182654700,1.96965478515625,1.3886521604597568,0.6940241746738552,0.2001847186923027
1667776737192705500,1.97970556640625,1.6194634880840777,0.5739617710970342,0.19529501042198388
1667776737202756600,1.989756591796875,2.014948660558462,0.538011482924223,0.011788272145017981
1667776737212807400,1.999807373046875,2.5417788242548705,0.45391456508934497,-0.052045244535803795
1667776737222859500,2.009859619140625,3.0745752028793096,0.35751229243278504,-0.2738411987945437
1667776737232910600,2.01991064453125,3.4052310525685545,0.27476415885835886,-0.5481756609987467
1667776737242961700,2.029961669921875,3.2838083204239603,0.2812555667042732,-0.47218204318583007
1667776737253012500,2.040012451171875,3.0108968036949633,0.04737067685350775,-0.3504351936534047
1667776737263064600,2.050064697265625,2.96330795404613,-0.05555836722329258,-0.065444459008798
1667776737273115600,2.06011572265625,2.8771897595167157,-0.02821457935422659,0.25428528832271696
1667776737283166700,2.070166748046875,2.469091189184785,-0.0424846583776176,0.4231719285622239
1667776737293217500,2.080217529296875,1.8697271196752785,-0.021349515890330076,0.45811362421438095
1667776737303269600,2.09026953125,1.3610750022262335,0.03663198682665825,0.1760854657024145
1667776737313320700,2.10032080078125,1.1171259606093167,0.09311711350604891,-0.1941933693230152
1667776737323371800,2.110371826171875,1.1812772380024195,0.18823007700443267,-0.4636848484754562
1667776737333422300,2.12042236328125,1.317212479624152,0.2570977153949439,-0.6815463858947157
1667776737343474700,2.130474609375,1.4616981074482203,0.4596253439515829,-0.7746481557011604
1667776737353525800,2.14052587890625,1.5850877557516097,0.707725075507164,-0.7521545843422413
1667776737363576600,2.15057666015625,1.865499857369065,0.7594358273915947,-0.739979431771487
1667776737373627400,2.16062744140625,2.1097622027188536,0.9936410352379083,-0.8547790925145149
1667776737383679700,2.1706796875,2.078209711113572,1.2719755999289453,-0.7376455819964408
1667776737393730600,2.18073046875,1.7682091114401817,1.3125833585187792,-0.4092221675343811
1667776737403781400,2.190781494140625,1.3235399290800094,1.2843424756795168,0.02455664136856794
1667776737413832400,2.20083251953125,0.9985843368589877,1.4216795469231902,0.521139696969837
1667776737423884500,2.210884521484375,0.9791127436697482,1.5372181894652543,0.8568933081895113
1667776737433935600,2.220935546875,1.274548811417818,1.6396328542791305,1.0645412023693321
1667776737443986400,2.230986328125,1.320017600172758,1.8767052881248294,1.3801862376704812
1667776737454037500,2.24103759765625,1.2469997102349997,1.7783681018829345,1.840536973287165
1667776737464089600,2.251089599609375,1.1842688210338352,1.8186853530935942,2.150377706223726
1667776737474140700,2.261140625,0.8111784357190132,2.0793961444191633,2.102913359737396
1667776737484191500,2.27119140625,0.6582417904138564,2.031349175739288,2.1920184611231086
1667776737494242300,2.2812421875,0.5787088194936514,2.304350416578352,2.3466496353864668
1667776737504294700,2.291294677734375,0.10200491496920586,2.6773721205711363,2.9058856926470993
1667776737514345700,2.301345703125,-0.6857698488086461,2.81832197548449,3.2153327500909565
1667776737524396500,2.311396484375,-2.0215110878139733,3.112477063511312,3.102789782233536
1667776737534447400,2.321447265625,-3.275338598242402,3.408175289326906,3.171021022416651
1667776737544499700,2.331499755859375,-3.97934436096549,3.172982970139384,3.0411914041936394
1667776737554550500,2.341550537109375,-3.880222892478108,2.817134227004647,2.972817832930386
1667776737564601300,2.351601318359375,-2.9459552527070043,2.5173054772555825,2.4790303993970153
1667776737574652400,2.36165234375,-1.556819108122587,2.3620573401376603,1.8590198476999997
1667776737584704500,2.37170458984375,-0.09892156200110912,2.260618826879561,1.5567928046375512
1667776737594755600,2.381755615234375,1.3314590316414832,2.1306090297840536,1.7091893517166374
1667776737604806400,2.391806396484375,2.7811633344352242,1.847351183346659,2.062306624060869
1667776737614857500,2.401857421875,3.964122241914272,1.767445725852251,2.070056215274334
1667776737624909600,2.41190966796875,4.647827559408546,1.952495126993954,1.7921856148332356
1667776737634960600,2.421960693359375,4.836099137467146,2.010198251160979,1.2461796260237694
1667776737645011500,2.432011474609375,4.720362049743533,2.0811352431714534,0.4351671945214271
1667776737655062500,2.4420625,4.035847169432044,2.450360477490723,-0.47817456159889693
1667776737665114600,2.452114501953125,2.7703602008700368,2.722425314262509,-1.574631828188896
1667776737675165400,2.46216552734375,1.3909984313249588,2.807622886815667,-2.444965048187971
1667776737685216500,2.472216552734375,-0.050097033077478405,2.739599151903391,-3.2201129701048132
1667776737695267300,2.482267333984375,-1.3274772685289382,2.5647046495512127,-3.739872757023573
1667776737705319700,2.492319580078125,-1.8082038526982067,2.3772999174550176,-4.039869264554977
1667776737715370500,2.50237060546875,-1.4724690923094748,1.8826883080571888,-4.4962546036720275
1667776737725421300,2.51242138671875,-1.2170996620118617,1.2031757660776377,-4.86686369356513
1667776737735472400,2.522472412109375,-0.5572673875361681,1.3249740535363554,-5.318907788607478
1667776737745524700,2.532524658203125,-0.1431944189697504,1.4483409054860472,-4.82736287330389
1667776737755575300,2.5425751953125,-0.017094634924829006,1.197723638151586,-4.093071277910471
1667776737765626400,2.55262646484375,-0.02645955238044262,0.9283616305977106,-3.435145129317045
1667776737775677400,2.562677490234375,-0.09144260442256927,0.8007368289425969,-2.4381547836512327
1667776737785729500,2.5727294921875,-0.3753010471016168,0.5001727506563067,-1.4291829082906244
1667776737795780400,2.5827802734375,-1.174233749231696,0.022072131076455115,-0.5212777902662754
1667776737805831400,2.59283154296875,-1.9691502014577387,-0.3839858733385801,0.3840262053489685
1667776737815882500,2.602882568359375,-2.394173603105545,-0.6729211808905005,1.5012486120700834
1667776737825934600,2.6129345703125,-2.3164503119558093,-1.013953170904517,2.3194342962026595
1667776737835985400,2.6229853515625,-1.630485232836008,-1.273226330642402,3.0374522176653147
1667776737846036500,2.633036376953125,-0.6916998233795165,-1.886655165861547,4.140506982824206
1667776737856087600,2.643087646484375,0.29937106910943984,-2.3471219290733334,4.664242687636613
1667776737866139600,2.6531396484375,1.3961574215233326,-2.264520218232274,4.834826633313298
1667776737876190500,2.6631904296875,2.476897479021549,-2.0918267330557105,5.217642878350615
1667776737886241500,2.673241455078125,3.584617897903919,-1.9807748805388807,5.446658554729819
1667776737896292400,2.683292236328125,4.297601040069758,-1.9803037558957932,5.382834609594941
1667776737906344400,2.693344482421875,4.365820882076025,-2.1645228436931965,5.1796407722145315
1667776737916395500,2.7033955078125,4.138530714315176,-2.3344646920740604,5.224418656095862
1667776737926446300,2.7134462890625,3.7625370087742804,-2.3530302763342856,5.740002034112811
1667776737936497400,2.723497314453125,3.639779228633642,-2.287981757840514,6.557634760537743
1667776737946549500,2.733549560546875,8.365049508684873,-2.045081933015585,8.038078484988212
1667776737956600300,2.743600341796875,17.81901887419224,-1.107684763047099,8.175599534496664
1667776737966651400,2.7536513671875,14.025713802188633,-1.820639555901289,5.386558014032245
1667776737976702500,2.763702392578125,5.580889915043115,-4.371841749800741,5.694442644464969
1667776737986754300,2.77375439453125,1.2173159351110459,-3.5794752743184564,5.698392258873581
1667776737996805400,2.783805419921875,-0.21875746334567664,-1.6723001752585172,4.6334635184913875
1667776738006856400,2.7938564453125,0.38313057168349623,-1.3198340602993965,3.1022464691370724
1667776738016907500,2.803907470703125,1.62880780114308,-2.2161554157748817,2.741227045366168
1667776738026959400,2.81395947265625,2.672003871536255,-2.518237497408688,2.2895330789357424
1667776738037010400,2.824010498046875,1.7233963023759424,-2.117834157754481,1.911662473607063
1667776738047061500,2.8340615234375,-0.03968669822216034,-1.8341282752886414,2.3418518797159193
1667776738057112600,2.844112548828125,0.029932196927070616,-1.649647906206548,2.5089053131788965
1667776738067164400,2.854164306640625,1.0646458317875862,-0.8402394027695059,2.6126333986788985
1667776738077215500,2.864215576171875,3.100255295319855,-0.5475248689398169,2.624347217348218
1667776738087266600,2.8742666015625,3.0150235282361506,-1.7009256735011935,3.2445693659693
1667776738097317600,2.884317626953125,0.017176467989385127,-2.003372789055109,4.359823102965951
1667776738107370000,2.894369873046875,-2.579898419290781,-1.3861325788542627,4.511726898092031
1667776738117420800,2.9044208984375,-4.161447771783173,-0.8367802022263408,3.2837650658041238
1667776738127471600,2.9144716796875,-5.468801997476816,-0.4120689352676272,2.50442261480689
1667776738137522700,2.924522705078125,-6.820911018437147,0.06900836203545331,1.5544634849071501
1667776738147574800,2.93457470703125,-7.733121724700927,0.8473927816554904,-0.0360936421662569
1667776738157625600,2.94462548828125,-7.433682851052284,1.900286216329038,-1.9703566546380518
1667776738167676700,2.9546767578125,-7.092638878339528,2.4829338365763425,-3.883667479974031
1667776738177727700,2.964727783203125,-6.130992817777395,2.706176190251112,-4.822660979223251
1667776738187779600,2.974779541015625,-4.969115276771784,3.115410486614704,-4.712456975707411
1667776738197830700,2.98483056640625,-3.773688517385721,3.5343338178217407,-4.162749794292449
1667776738207881700,2.9948818359375,-3.2800200340569017,2.5999136178374287,-2.814379375338554
1667776738217932800,3.004932861328125,-3.155726130390167,2.337175120076537,-2.0294442189007995
1667776738227984600,3.014984619140625,-2.471778236311674,2.471613693399727,-1.6479887408226728
1667776738238035700,3.02503564453125,-1.3664426667392253,2.0615414849072695,-1.6299311060845851
1667776738248086800,3.035086669921875,-0.957698345849663,1.121304999859631,-2.3551754716694355
1667776738258137600,3.0451376953125,-0.6703576140128076,0.49139703126549716,-2.9038176542013883
1667776738268189700,3.055189697265625,-0.492546201300621,0.11014525906592607,-3.4342262609064576
1667776738278240800,3.06524072265625,-0.9126761318184435,0.20801000549048185,-4.1280081512570375
1667776738288291600,3.07529150390625,-1.2211327169202268,0.605746464022994,-4.838990767255425
1667776738298342700,3.0853427734375,-2.16068399618268,0.21300795990824697,-4.725539744642377
1667776738308394800,3.095394775390625,-2.961019550848007,-0.6107645844459534,-4.725504673328995
1667776738318445600,3.105445556640625,-2.712069339942932,-1.2813795342206955,-4.418034468916058
1667776738328496600,3.11549658203125,-1.2406605703413485,-2.2064298483133316,-3.78391063619256
1667776738338547700,3.125547607421875,-0.4194224398355931,-3.0479151594907044,-2.883528314888477
1667776738348599600,3.135599609375,0.6253109961926937,-1.088333581367135,-2.0717916607648132
1667776738358650600,3.145650634765625,2.8438837022423744,0.49872167506515974,-1.6073486873984335
1667776738368701700,3.15570166015625,2.7816917422235012,-0.04616963050067425,-0.45838557302355765
1667776738378752800,3.165752685546875,2.427127778202295,-0.42833764076232905,1.0652432131588458
1667776738388804600,3.1758046875,1.9652543630629777,-0.6219687000274657,1.0117705661684273
1667776738398855700,3.185855712890625,0.5787760760435834,-0.38867256985008714,0.211609199026227
1667776738408906800,3.19590673828125,-0.601450739590451,-0.618875994709134,-0.6748305216431617
1667776738418957800,3.205957763671875,-0.62925995301418,-0.8043997353643179,-1.6249176618367434
1667776738429009700,3.216009765625,-0.5940173747193068,-2.2941882112652063,-3.5867560789763924
1667776738439060700,3.226060791015625,-0.036457653173059226,-1.2751912009745836,-2.0893243948459626
1667776738449111800,3.23611181640625,1.0993440740726887,0.22535598482787608,1.2968705333411692
1667776738459162600,3.24616259765625,2.022213098603487,0.6345020183861255,3.375775825503468
1667776738469214700,3.256214599609375,1.7640272957108913,-0.3024555911213159,5.422644641935825
1667776738479265800,3.266265869140625,-0.6546994416318833,-2.127938495400548,7.384706346437334
1667776738489316600,3.276316650390625,-1.5044194971911609,-3.3021628922820088,8.163381857958436
1667776738499367700,3.28636767578125,-1.2752553522519767,-3.569284135171771,7.797085370567441
1667776738509419800,3.296419677734375,-1.1497919664144516,-2.493114454329014,5.815819199380278
1667776738519470600,3.306470703125,1.241250937449932,-1.1287696366518736,2.8955326409369704
1667776738529521700,3.316521728515625,2.779264807337522,-0.4080553157120943,1.7092916430473326
1667776738539572700,3.32657275390625,2.20984520971477,0.2458417234957218,2.649272984290123
1667776738549624600,3.33662451171875,1.1186248208649456,0.7521165904194116,2.865777554142475
1667776738559675600,3.346675537109375,1.41602415151,0.8925169947564602,2.7046605249911546
1667776738569726700,3.356726806640625,2.9759999700978397,0.8793424558848142,3.1156781976401806
1667776738579777800,3.36677783203125,3.9438820024400947,0.2873977227210998,3.6404648728102442
1667776738589829600,3.37682958984375,3.2256782030165194,-0.47377778794467446,5.189630835831165
1667776738599880700,3.386880615234375,1.7969835166342556,-0.8129922071427106,6.194738436979055
1667776738609931800,3.396931884765625,0.566319147389382,-1.114327854323387,5.839034070751071
1667776738619982600,3.406982666015625,-0.04542436509132385,-1.1581366009116172,5.487993604680896
1667776738630034700,3.41703466796875,0.04840820320770144,-0.8053665345698594,5.596759099826216
1667776738640085800,3.427085693359375,0.21594357496872543,-0.5979512801021337,5.779619758751988
1667776738650136800,3.43713671875,0.3296540522355586,-0.5711369229346513,6.214974584800005
1667776738660187600,3.447187744140625,-0.5580255124270915,0.056283612757921216,6.448679880300164
1667776738670239700,3.45723974609375,-1.8072797235906124,1.3220119888603687,5.828085391235351
1667776738680290800,3.467290771484375,-1.822704087215662,2.607956639039516,4.290021836987138
1667776738690341600,3.477341552734375,-0.9242635476291179,3.614465339156985,2.54931389593482
1667776738700392700,3.487392822265625,-0.7862965809840708,4.245645519644022,1.4356933130979537
1667776738710444800,3.49744482421875,-1.8420716355085371,4.424393482553959,1.3008406060159206
1667776738720495600,3.50749560546875,-2.8591221879065034,4.235826720941066,1.1463859573632478
1667776738730546700,3.517546630859375,-3.041515229320526,3.5344098056674,0.9103770610958337
1667776738740597800,3.52759765625,-2.5318285081267353,2.7850416371732947,0.2559492760121822
1667776738750649600,3.537649658203125,-1.3457307181000708,2.9830969426214695,-0.20541151342988012
1667776738760700700,3.54770068359375,-0.8502129536427557,2.4022142862200737,0.0942781201094389
1667776738770751700,3.557751708984375,-0.6094561321958899,1.6286784756749868,0.4225549657076597
1667776738780802800,3.567802734375,-0.3384308676049113,1.1219470971554517,-0.1170341417968273
1667776738790854700,3.577854736328125,-0.08510814070403576,0.6053326225250959,-0.7693219922423362
1667776738800905700,3.58790576171875,-0.17763503323197363,0.2741793447077274,-0.9626479310810565
1667776738810956800,3.597956787109375,-0.3913362361013889,0.32776538894474505,-1.2135936997175216
1667776738821007600,3.608007568359375,-0.49699762775152917,0.6352127970039844,-1.483660932931304
1667776738831059700,3.618059814453125,-1.4124904244259,0.9721551796168089,-1.4192209017246962
1667776738841110800,3.62811083984375,-2.3957898061305283,1.3629378734886646,-1.1281629029303788
1667776738851161600,3.63816162109375,-2.931619268840551,1.9001672661244868,-0.7075526415497064
1667776738861212700,3.648212646484375,-3.318765652036667,1.9536188703268764,-0.41209319292604923
1667776738871264800,3.6582646484375,-3.8482726337268947,2.130253202083707,0.1471329274624586
1667776738881315600,3.668315673828125,-4.110129087956249,2.13601015817523,0.29876491990983484
1667776738891366700,3.67836669921875,-4.561534592834115,1.4278309091597794,-0.09658931966125965
1667776738901417700,3.688417724609375,-5.221255223628878,0.11244389139711856,-0.7506248905569315
1667776738911469800,3.6984697265625,-6.03200695836842,-1.686149836912751,-1.78331841776669
1667776738921520600,3.708520751953125,-6.377213311457633,-2.740120545428991,-2.814892585557699
1667776738931571700,3.71857177734375,-6.40687253666222,-3.226326437792182,-3.911344591450691
1667776738941622800,3.728622802734375,-6.396387383005022,-3.3214573753386736,-4.88944786581695
1667776738951674600,3.738674560546875,-6.093035719826817,-3.3210856194168326,-5.3953270114213225
1667776738961725700,3.7487255859375,-5.411102088180184,-3.2080759108304977,-5.439977469530701
1667776738971776800,3.75877685546875,-5.048428467461466,-3.2952439066737886,-5.296102667081356
1667776738981827800,3.768827880859375,-5.135489495798945,-3.2351369362354276,-5.15334663952887
1667776738991879700,3.778879638671875,-5.272378677144646,-2.8620243390887974,-5.271660299742222
1667776739001930800,3.7889306640625,-5.232365231186151,-3.197492557495832,-5.690790551698208
1667776739011981800,3.79898193359375,-4.592848014986515,-3.856427006348967,-6.0032385445237155
1667776739022032600,3.80903271484375,-3.4119635756939646,-4.209847061032057,-5.973176583737135
1667776739032084700,3.819084716796875,-1.7216677250176666,-3.8628275210410354,-5.803209308654069
1667776739042135800,3.8291357421875,0.005502104547619819,-3.324164296209812,-5.443289955079555
1667776739052186600,3.8391865234375,1.677932628187537,-2.8492174644857644,-4.34453201033175
1667776739062237700,3.84923779296875,2.7353584455937145,-2.4014286888003347,-2.1787486451834437
1667776739072289800,3.859289794921875,3.411396589460969,-0.5095762465566397,1.127420267869532
1667776739082340600,3.869340576171875,4.11931221910417,5.301829228034615,4.875292791475355
1667776739092391700,3.8793916015625,8.454684771424532,8.765336528483033,7.526279301685094
1667776739102443300,3.889443359375,16.511763724958897,11.901377715194224,10.195939240443705
1667776739112494300,3.899494384765625,18.95526980651021,17.254931869769095,11.365450637328625
1667776739122545200,3.909545166015625,14.438062431180477,16.690558449620006,4.617660092420876
1667776739132596200,3.91959619140625,7.175571428570151,-0.7928805624842643,-3.12671017152518
1667776739142647300,3.929647216796875,1.2770792066782712,-13.649163631808756,-8.062638925749063
1667776739152699100,3.93969921875,-2.5306252698168157,-7.156106265121698,-8.700527663964033
1667776739162750200,3.949750244140625,-4.380951815712452,-3.9785675313740967,-6.87321754425764
1667776739172801300,3.95980126953125,-1.8706413119107483,-0.27799861073493953,-4.609197969023883
1667776739182853000,3.96985302734375,-0.2583510764569044,3.321699951922893,-2.2674846209958193
1667776739192904200,3.979904296875,-3.6089112121611833,4.593239644652605,-2.3126719624608754
1667776739202955300,3.989955322265625,-7.160806990158558,4.371620508265495,-2.310889462958276
1667776739213006300,4.00000634765625,-6.475269196540117,5.0309746438354255,0.7132403317973017
1667776739223058200,4.01005810546875,0.3373486253261566,5.431640433818101,4.904174310305715
1667776739233109200,4.020109130859375,6.972569898891448,4.157928657746314,6.683531423225999
1667776739243160300,4.030160400390625,6.933531435444951,3.554417989951372,5.496234778803586
1667776739253211100,4.040211181640625,-1.1152446769073605,1.656235175642371,3.7304923497378826
1667776739263263200,4.05026318359375,-8.687183029222489,-2.357186226969957,1.9534715708106756
1667776739273314300,4.060314208984375,-9.493930789017677,-4.939387662506103,0.3430848308905959
1667776739283365400,4.070365478515625,-8.607975636994839,-7.322688573941588,0.21690248312875626
1667776739293416200,4.080416259765625,-6.8035951419770715,-9.533186110085248,0.6114060972198844
1667776739303468300,4.09046826171875,-5.482943920075893,-9.63325625759959,0.36215251945406196
1667776739313519400,4.100519287109375,-5.782186394369602,-8.766361779877544,-0.44365123748928303
1667776739323570200,4.110570068359375,-6.46674102216959,-6.857206905177235,-1.329785691601783
1667776739333621200,4.120621337890625,-7.345169870340824,-4.974483525806665,-1.565375924065709
1667776739343673300,4.13067333984375,-8.776742888638376,-2.860450806161761,-1.9499340443342923
1667776739353724200,4.14072412109375,-8.624680103558301,0.6658031655788421,-2.7657825176909565
1667776739363775200,4.150775146484375,-8.362020516252517,3.415862921220064,-2.910676141794026
1667776739373826300,4.160826416015625,-6.9667106514692305,4.606667866024375,-2.0406547642230985
1667776739383878100,4.170878173828125,-5.5805450471282,5.685213628348708,-1.2988938558623193
1667776739393929200,4.18092919921875,-2.8973206933975217,6.59393415440917,0.7036477430656551
1667776739403980300,4.190980224609375,0.4345617759741843,11.380982552981376,4.612998238089681
1667776739414031400,4.20103125,1.1217162110090255,17.819100707256794,8.724792336648703
1667776739424083200,4.211083251953125,-0.6380079806804657,15.45774917730093,8.31162362344563
1667776739434134300,4.22113427734375,-0.6776864955961703,5.414015345278382,3.201375244148075
1667776739444185300,4.231185302734375,0.4375859461009502,-0.4962994163542986,-1.8880822760552167
1667776739454236200,4.241236083984375,1.6655027702033518,-9.89454572559595,-6.450810462588072
1667776739464288300,4.251288330078125,2.1937819636642932,-18.532475771349667,-8.206320835974813
1667776739474339300,4.26133935546875,1.8656687841951847,0.41786710015237327,-1.9423416895091532
1667776739484390100,4.27139013671875,0.823284468576312,2.4858915173381564,-1.4631559050410985
1667776739494441200,4.281441162109375,0.4660860643982887,-3.1991444163560865,-3.0764646698877214
1667776739504492300,4.2914921875,0.3929774274371564,0.777466720253229,-1.5549847323022783
1667776739514544000,4.301544189453125,0.8962148263610898,1.053378003320098,-0.8092238675851374
1667776739524595200,4.31159521484375,1.3820869567252694,0.7185562661230563,0.03336969709508121
1667776739534646300,4.321646240234375,1.7688976782262325,0.7219733810901642,0.7954360921859741
1667776739544698000,4.331697998046875,2.4115818340241906,0.40971243526935575,1.1451651833966374
1667776739554749200,4.341749267578125,3.6683892370462416,0.8967074321836233,1.8829148102894424
1667776739564800300,4.35180029296875,4.91857985227704,1.47840900375247,3.1348949392855165
1667776739574851300,4.361851318359375,5.283716063717008,2.228579136279225,4.434144184456765
1667776739584903200,4.371903076171875,4.911104986351728,2.6643951500982044,5.030291337746381
1667776739594954200,4.381954345703125,4.014533163246512,2.502992874264717,4.7858065818175675
1667776739605005300,4.39200537109375,2.7055250328660008,2.091811535486579,3.843887842771411
1667776739615056400,4.402056396484375,1.6534712638869882,1.2552496521860361,2.7245938904732463
1667776739625107200,4.412107177734375,1.376967275623977,-0.6147048465043305,1.6070038194835186
1667776739635159300,4.4221591796875,1.7090771235138178,-3.434581650215387,1.0807380116716028
1667776739645210400,4.43221044921875,2.120834800875187,-4.431767226192355,2.0206860351666807
1667776739655261200,4.44226123046875,2.111869988653064,-3.1493443203985687,4.267575027379394
1667776739665313300,4.452313232421875,1.4661621011197565,-0.47566988530158993,6.4471723983466624
1667776739675364400,4.4623642578125,0.7471475698351859,2.076798675271869,7.019324635803699
1667776739685415200,4.472415283203125,0.5381976531460881,3.412653311523795,6.3086249283999205
1667776739695466200,4.48246630859375,1.0833359192103147,2.435067923551798,6.02865004915595
1667776739705517300,4.492517333984375,2.4985493388593194,1.9728490559756755,5.293895512425899
1667776739715569200,4.502569091796875,4.3043303483247755,3.0976433592557906,2.814642410188913
1667776739725620200,4.5126201171875,5.448477002328634,4.892091658324003,0.0009162380620837211
1667776739735671300,4.52267138671875,5.6352913673162455,5.9803270400136705,-0.8630255273342132
1667776739745722400,4.532722412109375,6.116190385442972,5.557608408176899,0.6989920262143016
1667776739755774200,4.542774169921875,6.998997302567958,3.5535026286721227,3.999384693953395
1667776739765825300,4.5528251953125,7.279498836034536,1.752646800649166,6.382938703367114
1667776739775876400,4.56287646484375,6.779211226826906,2.727463308429718,7.225277416503429
1667776739785927200,4.57292724609375,5.943440786164999,4.547157107913494,6.8668041700839995
1667776739795979300,4.582979248046875,4.691842642223834,4.361175102096796,6.68388388992548
1667776739806030300,4.5930302734375,3.452314875304699,4.8318975941240785,5.500353320038318
1667776739816081400,4.603081298828125,2.480452541154623,5.201583723953366,3.9406434589102863
1667776739826132200,4.61313232421875,0.40460824399814005,3.618134383058548,3.9442479131430384
1667776739836184300,4.623184326171875,-3.5769442945361134,3.644460664448142,2.7767262287706136
1667776739846235400,4.6332353515625,-6.060064593595266,3.2691888434410092,1.5853922916561365
1667776739856286200,4.6432861328125,-6.950100292930006,3.4508816276311873,0.08873217642009258
1667776739866337300,4.653337158203125,-6.49174920669794,4.3934395413637155,-0.8229169504381716
1667776739876389400,4.663389404296875,-5.409330402332544,5.600894592195749,-2.200174733441323
1667776739886440200,4.673440185546875,-3.785874629741907,7.030167516857385,-3.490485323745012
1667776739896491300,4.6834912109375,-1.4283528872072695,8.779476112994551,-3.512176931071281
1667776739906542300,4.693542236328125,0.5873788865529,9.837354934865235,-3.0050603526264426
1667776739916594200,4.70359423828125,1.408417183637619,9.520609537106752,-2.0596330209374427
1667776739926645200,4.713645263671875,0.6515561751700938,8.101393896079063,-1.1772963516727089
1667776739936696300,4.7236962890625,-0.8874563503660261,5.8772267310231925,-0.702226039699465
1667776739946747400,4.733747314453125,-2.316224248114973,3.6179444134443997,-0.5374805909179151
1667776739956799200,4.74379931640625,-3.2693136388644572,2.0203543189942836,-0.4927697809234261
1667776739966850300,4.753850341796875,-4.03882063228488,1.0431617297321558,-0.10692717380225658
1667776739976901400,4.7639013671875,-4.673659043018519,0.3156207776427269,0.15754706171005964
1667776739986952200,4.7739521484375,-5.234570047754049,-0.2571908005058765,-0.31453911988586186
1667776739997004300,4.78400439453125,-5.836779569822549,-0.8298995028018951,-1.207668109060824
1667776740007055400,4.794055419921875,-6.247245453807711,-1.3316969320505856,-1.9105790622845291
1667776740017106200,4.804106201171875,-6.372359441685676,-1.6614450192451475,-2.252828611394763
1667776740027157200,4.8141572265625,-6.508657671400904,-1.9945909321844577,-2.307605618982017
1667776740037209300,4.824209228515625,-6.805602390146255,-2.3665520212084052,-2.3226082500636576
1667776740047260200,4.83426025390625,-7.45301182090044,-2.439696752396226,-2.070586084367335
1667776740057311200,4.844311279296875,-7.554255688369274,-2.5166227556884286,-2.127786081317812
1667776740067362300,4.8543623046875,-7.657268319076299,-3.2207126895636318,-2.209298974008858
1667776740077413400,4.864413330078125,-8.004879395219684,-4.460601106488705,-1.7494865830525754
1667776740087465200,4.87446533203125,-8.304321191477776,-5.877638818955421,-1.1994608372077344
1667776740097516300,4.884516357421875,-8.501510235485433,-7.366914084637164,-0.8096062179662287
1667776740107567400,4.8945673828125,-8.531696114912629,-8.740864350527524,-0.8175034009568393
1667776740117618200,4.9046181640625,-8.796608449581266,-9.797683434212207,-1.4479672498680651
1667776740127670300,4.914670166015625,-8.865911118388176,-10.582979240655899,-2.39439718272835
1667776740137721300,4.924721435546875,-8.501417296504973,-10.478174465835094,-4.110010137751698
1667776740147772400,4.9347724609375,-8.051858004015683,-9.16113208208084,-4.910180857244134
1667776740157823000,4.944822998046875,-7.5120970470756285,-6.592365297657251,-3.5979651629939675
1667776740167875300,4.954875244140625,-6.485941397202015,-3.9497400808185334,-1.7083508550658821
1667776740177926400,4.964926513671875,-5.114016499659419,-1.6773668109983204,1.1961080196484923
1667776740187977200,4.974977294921875,-2.977817833174765,0.0011444938600063323,2.891664859592914
1667776740198028000,4.985028076171875,0.6525345186829566,2.3363386692523953,3.685193949113786
1667776740208080400,4.995080322265625,7.515186245262623,6.621768502274155,5.034370131492614
1667776740218131200,5.005131103515625,20.411901862740514,13.017110760140419,7.571060108175874
1667776740228182300,5.015182373046875,26.680118208384513,25.768885991764066,0.3443634725242853
1667776740238233000,5.025233154296875,21.706239078211784,28.187876056218144,-5.224709163475036
1667776740248285200,5.03528515625,14.566877027142047,13.64878486162424,-2.3773078085005284
1667776740258336300,5.045336181640625,10.047502244645356,3.4288112501204013,-1.937043583101034
1667776740268387300,5.05538720703125,6.377243122074008,-3.8109044415801763,-0.5924319321587681
1667776740278438100,5.065438232421875,2.92382525396347,-13.161138122802972,3.5743276822969317
1667776740288490200,5.075490234375,-1.4959107581734656,-15.3349002117455,5.646182763686776
1667776740298541300,5.085541259765625,-3.9651603527903556,-14.481456167227028,5.541151194372773
1667776740308592000,5.095592041015625,-4.972034379088878,-13.309570442426203,4.3710207888066765
1667776740318643200,5.105643310546875,-9.125902947789431,-8.14104903011918,4.63322415677756
1667776740328695300,5.1156953125,-15.783856277644633,-1.2666028208494187,4.443456787203252
1667776740338746400,5.125746337890625,-17.33260313847065,2.445208209294081,2.692190334996581
1667776740348797200,5.135797119140625,-13.181135785692929,2.1747078453600404,-0.7484510536491871
1667776740358848000,5.145847900390625,-5.231038366496563,0.9194096778571605,-3.9267473277658222
1667776740368900400,5.155900390625,1.5056591219887137,1.062902202990651,-6.441421287474036
1667776740378951400,5.165951416015625,6.880803469341993,5.109379487508535,-8.740707698661089
1667776740389002000,5.176001953125,10.045358218353986,12.747220637059211,-8.848406441357731
1667776740399053000,5.186052978515625,8.884537492924927,16.874017658960817,-5.971838028609752
1667776740409104100,5.196104248046875,6.496302632218599,12.622628627228735,-1.4275748885720967
1667776740419156200,5.20615625,3.130306150190532,4.26620081641674,-0.38241734538022426
1667776740429207000,5.21620703125,-2.440437341630459,-1.7027005742192267,-1.4314102289512753
1667776740439258000,5.226258056640625,-7.896098117983341,-4.820684126192331,-2.3752236957028505
1667776740449309200,5.23630908203125,-11.310692626702785,-6.652500325146317,-2.7586799922093745
1667776740459361300,5.246361328125,-11.89709550783038,-6.957427859339117,-2.163218190835416
1667776740469412000,5.256412109375,-10.300207424169779,-6.540152295339107,-1.4548451728135348
1667776740479463200,5.266463134765625,-8.341637068915366,-5.831100355142355,-0.7418459562957287
1667776740489514200,5.27651416015625,-6.797159555971622,-4.084357810100912,0.16086743830442427
1667776740499566300,5.28656640625,-5.1647886555194855,-1.3999147282302378,1.2502677721202373
1667776740509617200,5.2966171875,-2.714942849552631,1.4240227490484714,2.5092694703161715
1667776740519668200,5.306668212890625,0.35477563401050866,4.1584506357938045,4.13120285564512
1667776740529719000,5.316718994140625,3.3442157351136204,6.085504155278206,5.608420896047353
1667776740539771100,5.326771240234375,4.071039478844404,5.9354644004583355,6.508365410456061
1667776740549822200,5.336822265625,3.4221301649212834,3.7829473441183565,6.593155571252107
1667776740559873000,5.346873046875,3.249588655436039,1.4992144758939743,5.451701225072145
1667776740569924000,5.356924072265625,2.628879015558958,0.05094166720807552,3.3682664727866647
1667776740579976200,5.36697607421875,1.316612175643444,-1.4267249937444924,0.5955391774591058
1667776740590027000,5.377027099609375,-0.3195101862967014,-2.5358307295054194,-2.341572770513594
1667776740600078000,5.387078125,-1.6994728443443774,-3.731431091892719,-5.166600088855624
1667776740610129200,5.397129150390625,-2.3662124139904974,-4.499174875032901,-6.951314344894886
1667776740620181000,5.407180908203125,-1.9379829097777603,-4.364674634650349,-6.418187126880884
1667776740630232000,5.417232177734375,-1.1072107157945632,-4.2224949456810945,-5.280190812200307
1667776740640283100,5.427283203125,0.183436412987113,-3.4794378600299356,-4.26731053122431
1667776740650334200,5.437334228515625,1.5570722061008213,-2.7322213166117666,-2.995952624802291
1667776740660385000,5.447385009765625,2.8150071518480777,-1.7633318607926367,-1.5396636829212307
1667776740670437000,5.45743701171875,3.4547990933358665,-0.9159668439269065,0.17760346904993057
1667776740680488200,5.46748828125,3.0498358984202145,-0.4206470862597227,1.4806380779787898
1667776740690539000,5.4775390625,1.7787844275988638,-0.44292672260701654,2.140703868949413
1667776740700590000,5.487590087890625,0.43748540833592414,-1.079127946126461,2.0878367866367102
1667776740710642200,5.49764208984375,-0.8360755610883236,-1.7977321430444717,1.756693737952411
1667776740720693000,5.50769287109375,-1.5162977126419543,-2.1260803003132343,2.0391537120103833
1667776740730744000,5.517744140625,-0.9935416665166615,-1.8173668178409337,2.5529519601762294
1667776740740795100,5.527795166015625,0.31041882508546115,-0.9750970782876014,2.969637449328601
1667776740750847000,5.537846923828125,1.3783302345402537,-0.02223696624934673,3.3502824878066777
1667776740760898000,5.54789794921875,1.6935443310782312,0.5860913309603929,3.8292929157078266
1667776740770949000,5.55794921875,1.349232150349766,0.6912427272617816,4.168639144591987
1667776740781000200,5.568000244140625,0.9906023981943726,2.0342823065817357,4.564192121605575
1667776740791052000,5.578052001953125,1.1126422393240034,2.280769926765561,4.396531662160158
1667776740801103000,5.58810302734375,1.8524366699174046,1.8129004860818385,3.5418411247119304
1667776740811154200,5.598154296875,2.439693829786777,1.9886942753612995,2.585944129195809
1667776740821205200,5.608205322265625,2.8621047108486293,2.8238147276818752,2.3354548721551893
1667776740831257000,5.618257080078125,3.4786055008590218,3.7767835607916114,2.703295958639681
1667776740841308200,5.62830810546875,3.9394115790277717,4.293270025128126,3.4946085411548613
1667776740851359200,5.638359130859375,3.958198697084188,4.5267543713539835,5.1040042242109775
1667776740861410000,5.64841015625,3.748081490181386,4.277108579400181,6.441918715602159
1667776740871462100,5.658462158203125,3.9145384190559387,4.055186076152324,6.517072448524832
1667776740881513200,5.66851318359375,4.883814243844151,4.065124701842666,5.598728354072571
1667776740891564000,5.67856396484375,6.052270578718185,3.5423435212761163,4.29513611126095
1667776740901615000,5.688614990234375,6.659755995362997,2.9163498035162685,3.81285557564795
1667776740911666200,5.698666259765625,6.05578706240654,3.066731503641605,3.669871000036597
1667776740921718000,5.708718017578125,4.894163203901052,4.116521127080917,3.261772137443721
1667776740931769000,5.71876904296875,3.58623819258213,4.689865789192915,2.431344811375439
1667776740941820200,5.728820068359375,1.777021509579569,4.493840528267622,1.8673656512409447
1667776740951871200,5.738871337890625,-0.721196989890188,4.077560405045747,1.4859519664779304
1667776740961923000,5.748923095703125,-3.319893779283762,3.0280355700224635,0.9504922138631343
1667776740971974100,5.75897412109375,-5.064332139036059,2.7518898936778307,0.7749801641345023
1667776740982025200,5.769025146484375,-5.691329480880499,3.801613466143608,0.4861807579219341
1667776740992076000,5.779075927734375,-5.525507635039091,5.4461915217399595,-0.6396490258857608
1667776741002128100,5.789128173828125,-4.36842083544135,7.362513219329714,-1.723217000286281
1667776741012179200,5.79917919921875,-2.345819614303112,8.458756550908088,-1.8411591968387364
1667776741022230300,5.809230224609375,-0.5297194553971291,7.931846307712793,-1.1860311545312403
1667776741032281000,5.819281005859375,0.35046851140111684,6.623613253358006,-0.4261829469464719
1667776741042333200,5.829333251953125,0.31671485648974773,5.401399024811386,0.116996951591596
1667776741052384300,5.83938427734375,-0.3031936961375177,4.38729621630311,0.5277982780762016
1667776741062435000,5.84943505859375,-1.280544836962223,3.57105699006319,0.6930784182563424
1667776741072486100,5.859486083984375,-2.487090371733904,2.8500129987776277,0.6468228630378842
1667776741082538200,5.869538330078125,-3.6469688478767868,2.4554642303705214,0.7530678997948765
1667776741092589000,5.879589111328125,-4.405420194275677,2.0595231308221815,0.5678330590836703
1667776741102641200,5.88964111328125,-4.722602814407646,1.2342518723428249,0.030044278999418018
1667776741112692200,5.899692138671875,-4.885027419026196,0.08681786723136901,-0.7458687820710241
1667776741122744000,5.909744140625,-4.675332529188692,-1.1811451360553502,-1.5188273772500454
1667776741132795100,5.919795166015625,-4.597889224024117,-2.3784967260241507,-2.110179843609035
1667776741142846200,5.92984619140625,-4.8998143615305425,-3.3207319836735723,-2.4947166288286446
1667776741152897000,5.93989697265625,-5.0604702029109,-3.8708267031013963,-2.4909979005664584
1667776741162948000,5.949947998046875,-4.957033209311962,-4.41228686517477,-2.4006901453927156
1667776741173000200,5.960000244140625,-4.9768221978873015,-5.117833427599072,-2.586815359072387
1667776741183051000,5.970051025390625,-5.325854246744513,-5.649914935952425,-2.610274852854013
1667776741193102000,5.98010205078125,-5.6717252012223005,-5.938527295160293,-2.751364700759947
1667776741203153200,5.990153076171875,-5.921978311419487,-6.245213071197271,-3.063227294912934
1667776741213205000,6.000205078125,-6.182736449018121,-6.676716482514142,-3.390616544021666
1667776741223256000,6.010256103515625,-6.490865409600734,-6.8969128926217556,-3.402009460173547
1667776741233307100,6.02030712890625,-6.760172764357924,-6.840398978239297,-3.2663369611412283
1667776741243358200,6.030358154296875,-6.902236717993021,-6.534004294103384,-3.1958395295917987
1667776741253410000,6.04041015625,-6.850902252075076,-6.162056649082898,-3.0990923890203237
1667776741263461000,6.050461181640625,-6.58337768908143,-5.995801087999343,-3.008976064765453
1667776741273512200,6.06051220703125,-6.094433311665058,-5.9389089879542585,-3.066038552941382
1667776741283563300,6.070563232421875,-5.685903948700427,-5.816024951085448,-3.12364230838716
1667776741293615000,6.080614990234375,-5.0639054380565875,-5.380940174150466,-3.0752339590489863
1667776741303666200,6.090666259765625,-4.435566618475318,-4.670792255410552,-2.9570196675568816
1667776741313717200,6.10071728515625,-3.3554061144307252,-3.4702900924563407,-2.7847663273632524
1667776741323768000,6.11076806640625,-1.04287414496243,-1.3002496543854474,-2.3602375773645936
1667776741333820200,6.120820068359375,2.5467411228373646,1.8765274473398923,-0.7467932034395635
1667776741343871200,6.130871337890625,7.6250319368600845,6.596249445614219,2.166721668911725
1667776741353922000,6.140922119140625,13.736637332600354,13.598755633085965,2.439515258349478
1667776741363973000,6.15097314453125,19.59181297533512,20.21600753471851,5.460155749684572
1667776741374024000,6.16102392578125,17.831238888818024,19.53871851400733,8.548637312841414
1667776741384076000,6.171075927734375,11.505814216786622,11.337284865552187,6.548695667278766
1667776741394127000,6.181127197265625,8.227837671256065,3.414837085303664,3.7304105166733263
1667776741404178200,6.19117822265625,6.197084707844257,-2.430865211164951,1.361549634000659
1667776741414229000,6.20122900390625,3.1378140416026112,-7.1977698163747785,0.8848096352495253
1667776741424281000,6.211281005859375,-0.5611278623566031,-11.086163740348816,0.8932130141966045
1667776741434332200,6.221332275390625,-3.069603844207525,-10.859189214408397,-0.290643426644057
1667776741444383200,6.23138330078125,-4.0041497163981195,-6.009726152977347,-1.1607036749206483
1667776741454433800,6.241433837890625,-3.49688583843708,-0.9896832375228405,0.09766703189536928
1667776741464486100,6.251486083984375,-4.399672298273444,1.9198890346825122,2.030183931352198
1667776741474537200,6.261537109375,-7.938038732612132,3.9143233150005337,3.209143247801065
1667776741484588000,6.271588134765625,-10.78465799729824,6.33152649603784,3.8602854353427887
1667776741494638800,6.281638916015625,-10.269901133233308,8.825029657423496,3.7650504528999327
1667776741504691200,6.291691162109375,-1.9919585378542541,11.478394294941424,1.200894377142191
1667776741514742000,6.301741943359375,18.14215894142389,14.867693034362793,-7.7068813680291175
1667776741524793000,6.31179296875,12.045897245287895,9.725790748912095,-17.4002825899899
1667776741534844000,6.321843994140625,-5.037003987127542,0.3317681948453188,-12.920049731314181
1667776741544896000,6.33189599609375,-7.9544696429312225,-4.496330591517687,-7.539406494283676
1667776741554947000,6.341947021484375,-8.471605511087178,-8.331832298737764,-5.933593345889449
1667776741564998100,6.351998046875,-9.543321719652413,-10.931859313821793,-4.58733655808866
1667776741575049000,6.362049072265625,-9.923805722349881,-11.324340043783188,-3.5991286538153884
1667776741585100000,6.37210009765625,-9.273466667884588,-10.2175840860188,-2.4347139955475927
1667776741595152100,6.382152099609375,-8.782191217172146,-8.454030106908082,-1.2468388205848633
1667776741605203000,6.392202880859375,-8.646508489006758,-5.419816725033521,-0.17692586204931138
1667776741615254000,6.40225390625,-7.73210933278799,-0.42444297141134735,1.2480948119953275
1667776741625304800,6.412304931640625,-5.564190124654769,8.40181652006805,3.4414930370390415
1667776741635357200,6.422357177734375,-2.4125369427919385,18.05053513521552,7.63404760248661
1667776741645408000,6.432407958984375,-0.7268085461616516,19.80280199663639,12.557121259051561
1667776741655458800,6.442458740234375,-1.2301380072832107,10.012516271460056,10.390240161794424
1667776741665510000,6.452510009765625,-1.131510459792614,0.7463935365974903,4.0077509557604785
1667776741675562200,6.462562255859375,-1.3041618593931197,-3.3563889879882334,1.319827338297665
1667776741685612800,6.47261279296875,-1.4013234259843825,-5.202824079403281,-0.15031608754321932
1667776741695663900,6.482663818359375,-1.0420973153710364,-5.709848887911439,-2.098135185550153
1667776741705715000,6.49271484375,-0.4963222127079963,-5.211508321118354,-3.9649481713443993
1667776741715767000,6.50276708984375,0.06889235270665958,-4.583143782573938,-5.463229165780544
1667776741725817900,6.51281787109375,0.47023679086957126,-4.340922003141046,-6.2299973818868395
1667776741735869000,6.522868896484375,0.6470991957612335,-3.930028833654523,-6.01018675622642
1667776741745920000,6.532919921875,1.0810488311864435,-3.007417729407549,-5.069430923479795
1667776741755972000,6.54297216796875,1.6002262881726026,-1.7621113790869711,-3.2432270114496347
1667776741766023000,6.55302294921875,1.939322633948922,-0.31871699009239673,-1.8849810951694845
1667776741776074000,6.563073974609375,1.6746856090903282,0.6447901881664991,-0.8397636750165373
1667776741786125000,6.573125,1.338908178603649,1.2018886488765477,0.20396160688251255
1667776741796176000,6.58317578125,1.2071329792708159,1.5127221922427414,0.947965617994964
1667776741806228000,6.59322802734375,1.3233600424684584,1.3086036412328481,1.2629174103349448
1667776741816279000,6.603279052734375,1.8013988488584756,0.48347909774780273,1.2318123702362178
1667776741826329900,6.613329833984375,2.3424095135986804,-0.3865905028790235,1.345708214007318
1667776741836381000,6.623380859375,2.5450515623152254,-1.0876420919716359,1.542292862381041
1667776741846433000,6.63343310546875,2.3826257886528968,-1.4379986674308776,2.0630293853774666
1667776741856483800,6.64348388671875,2.042529910445213,-1.5182371562719343,2.5441192499011756
1667776741866535000,6.653534912109375,1.4409882046356797,-1.3078572067797183,2.7707100372210145
1667776741876586000,6.6635859375,0.764885471099615,-0.8038859406232833,2.7717259362652897
1667776741886637800,6.673637939453125,0.530540124130249,-0.38560909062623977,2.7468495614230632
1667776741896689000,6.68368896484375,1.1566437320053577,-0.22953180920779703,3.0744910317271947
1667776741906740000,6.693739990234375,2.360869591657817,-0.17081307825744152,3.5442604608133434
1667776741916791000,6.703791015625,3.48232978207916,0.18705811061561106,4.096205776543915
1667776741926843000,6.7138427734375,4.178756633980572,1.2225550048083067,4.633902786691486
1667776741936894000,6.72389404296875,4.067546960553527,2.204431367972493,4.598132677391171
1667776741946945000,6.733945068359375,3.380139865931868,3.1459207756906746,4.252639908576011
1667776741956995800,6.743995849609375,2.7521000292971727,3.067782473999262,3.7231700440257787
1667776741967048000,6.7540478515625,2.2417168502718208,2.4575708472609517,3.140700118432939
1667776741977099000,6.76409912109375,2.5710125175237653,2.6833126165360213,2.2573390745565294
1667776741987150000,6.774150146484375,3.843986626970768,3.5630011093795297,1.6734163198068737
1667776741997201000,6.784200927734375,4.931608845198154,4.572697207361459,2.219599418748915
1667776742007252000,6.794251953125,5.411825141757727,5.496641021516919,3.814433200228214
1667776742017304000,6.804303955078125,5.727734673213958,5.703501564711332,5.201048301902413
1667776742027355000,6.81435498046875,6.176318983191251,5.016964823183417,5.87954319127202
1667776742037406000,6.824406005859375,6.0596168498277665,4.080899778601527,6.554191342085599
1667776742047457000,6.83445703125,5.118869784909487,3.8795477696955203,7.1786506898850195
1667776742057508900,6.8445087890625,4.112280128510296,4.0613709022670985,6.941826385581493
1667776742067560000,6.854559814453125,3.140494951249659,4.330308254668116,6.225913911965489
1667776742077611000,6.864611083984375,1.6044842378780244,4.515730873036384,5.227282228833436
1667776742087662000,6.874662109375,0.07574658424928785,4.533367067492008,3.982247973452508
1667776742097714000,6.8847138671875,-0.9612297348462044,4.299022305044532,2.368896830768883
1667776742107764200,6.89476416015625,-1.754797256681323,3.9393355911821124,0.7869453272163868
1667776742117815300,6.904815185546875,-2.429201661866903,4.271334672173857,-0.28823011842463164
1667776742127866400,6.914866455078125,-2.932850856462121,5.235010777258872,-1.1949595072004944
1667776742137918200,6.924918212890625,-3.5796295880973337,6.427936367478966,-2.147427916507423
1667776742147969300,6.93496923828125,-3.5598102043837305,7.660337058997154,-3.1819284931391474
1667776742158020400,6.945020263671875,-2.7332576739221808,8.333305293899775,-4.002460448136925
1667776742168071200,6.9550712890625,-1.6266437549769877,7.9411624175906175,-4.57733889568746
1667776742178123300,6.965123291015625,-0.9623988516908139,6.831588479796052,-4.582214977291226
1667776742188174300,6.97517431640625,-0.955328474913165,5.608652951237559,-4.1005338688760995
1667776742198225200,6.98522509765625,-1.2673532008253037,4.603174178689718,-3.1181787822842595
1667776742208276200,6.995276123046875,-1.552611719560623,3.5974949151337143,-1.950629917643964
1667776742218327000,7.0053271484375,-1.8327800755500792,2.547586633750796,-1.2261141585946083
1667776742228379100,7.015379150390625,-2.0612324189580975,1.4719798474878072,-0.7264921736888587
1667776742238430200,7.02543017578125,-2.099803849414736,0.41935412383973597,-0.21933146384134888
1667776742248481300,7.035481201171875,-2.1973628908909855,-0.3437754435032606,0.3347523252226412
1667776742258532000,7.045531982421875,-2.506056645749509,-0.8632172505140304,0.5935030685216188
1667776742268584200,7.055584228515625,-3.25256065698415,-1.717127743500471,0.05507277566343546
1667776742278635300,7.06563525390625,-4.2692073047563435,-2.793195717534423,-0.40454350819885726
1667776742288686300,7.075686279296875,-4.68362718706429,-3.6007547937124964,-0.7986382492281496
1667776742298737200,7.085737060546875,-4.896593938179314,-4.1257630026787515,-1.3734813332043587
1667776742308789200,7.095789306640625,-5.2828059631347655,-4.446505945640802,-1.7684757995523512
1667776742318840300,7.10584033203125,-5.695508812391758,-4.631273899492621,-2.2340980458311734
1667776742328891100,7.11589111328125,-6.157071261885762,-4.480087312725186,-2.484469375580549
1667776742338942000,7.12594189453125,-6.512616638159751,-4.287711806479096,-2.480351418867707
1667776742348994300,7.135994384765625,-6.580109627196192,-4.463717192682624,-2.6007845554530618
1667776742359045400,7.14604541015625,-6.528288839066028,-4.657799502846598,-2.497868955379724
1667776742369096000,7.156095947265625,-6.38576077505052,-4.806699439981579,-2.417256664790213
1667776742379147000,7.16614697265625,-6.209009538915753,-4.8075522574186325,-2.3263998974315823
1667776742389199400,7.176199462890625,-5.956366903233528,-4.794961071392893,-2.2753040625751018
1667776742399250200,7.186250244140625,-5.787742859452963,-4.809380057367682,-2.0636795198492703
1667776742409301000,7.196301025390625,-5.451650371667743,-4.772241290062666,-1.876648297240585
1667776742419352000,7.20635205078125,-4.6607098373353475,-4.794615034434199,-1.8493414803810417
1667776742429403100,7.216403076171875,-3.885346226841211,-4.793665186363459,-1.403234228041768
1667776742439455200,7.226455322265625,-2.9854715627983213,-4.871442253527045,-0.9510573003999888
1667776742449506000,7.236506103515625,-1.7054133403092622,-5.017378080159426,-0.904786255351454
1667776742459557000,7.24655712890625,0.27812545198500155,-4.611886477455497,-0.8320427984409033
1667776742469608200,7.256608154296875,2.3095813029691574,-3.333649917435646,0.0014091361455619335
1667776742479660300,7.266660400390625,4.194081044362485,-0.9701099375247955,0.9059190587736665
1667776742489711000,7.276711181640625,7.278489951252937,3.3912697472333906,2.193851814030111
1667776742499762200,7.28676220703125,12.012752516055107,8.582801448249816,4.016971204048395
1667776742509813000,7.29681298828125,14.957176321411131,11.139053619015217,3.35607802234292
1667776742519865300,7.306865234375,11.899405538338423,7.799291940701007,1.5459189439237118
1667776742529916200,7.316916259765625,7.636043744739889,1.5237708250015973,-0.5727975496232509
1667776742539967000,7.326967041015625,4.701626077352464,-2.9104765275686977,-2.090289878877252
1667776742550018000,7.33701806640625,1.4009838187664747,-5.8400657518863675,-3.2357042147293686
1667776742560070400,7.3470703125,-1.6949220491722226,-6.301102131679654,-6.01598696693778
1667776742570121000,7.357120849609375,-9.505600184023379,-3.0019407593011853,-10.248929656875132
1667776742580172000,7.367172119140625,-16.860092009460924,2.196993911448121,-11.711724911910295
1667776742590223000,7.37722314453125,-6.195716342100501,5.903142093524337,-8.703131124460697
1667776742600275000,7.38727490234375,4.796051789239049,5.144717342871427,-3.6223560924068092
1667776742610326000,7.397325927734375,5.4867246076583855,2.8642110354781147,0.7132802254162728
1667776742620377000,7.407377197265625,0.10213175621926784,-0.5208148489296436,1.5450561896145343
1667776742630428200,7.41742822265625,-6.209233995321393,-3.982793040114641,2.181966584316641
1667776742640479000,7.42747900390625,-10.673401269859076,-6.96102325348258,2.22958173745051
1667776742650531000,7.437531005859375,-11.139336527609824,-8.156835797315836,1.2084662737011909
1667776742660582100,7.44758203125,-11.140421400237082,-7.102507945924997,-0.10988529295548796
1667776742670633000,7.457633056640625,-9.80987539178729,-4.1596348771423095,-0.37056802723035215
1667776742680684000,7.46768408203125,-6.504809763801098,-0.004914660048484802,-0.05635755477696657
1667776742690736000,7.477736083984375,-1.4221885193586348,5.793243794956803,0.6218645090006292
1667776742700787000,7.487786865234375,0.7710976236127316,12.728057671427726,1.7807047281369566
1667776742710838000,7.497838134765625,-3.003139029175043,17.427347122526168,3.7309663969904183
1667776742720889000,7.50788916015625,-4.086853134047985,16.078352434194088,6.369755981189012
1667776742730941200,7.517941162109375,-2.376429856622219,9.472584049606322,4.425336316362023
1667776742740992000,7.527991943359375,-1.925057377231121,3.7938837486743924,1.7928775426201522
1667776742751043000,7.53804296875,-1.9037936399281024,1.277446870946884,0.8217106433883309
1667776742761094100,7.54809423828125,-1.425506265604496,0.35667058091163634,0.24796967543512582
1667776742771146000,7.55814599609375,-0.614774989131093,0.36526889790892597,0.03334609702378511
1667776742781197000,7.568197021484375,0.938232451748848,1.029746367841959,0.17250176199674605
1667776742791248100,7.578248046875,2.7075772892206906,2.6133663891285654,1.1047663913823664
1667776742801299200,7.58829931640625,4.331001497629285,4.2668443750172855,2.022477302497625
1667776742811351000,7.59835107421875,5.866688385874032,4.729703878584504,2.3723832115799186
1667776742821402000,7.608402099609375,6.762450646162033,3.9788399185746908,2.390848842597008
1667776742831453200,7.618453125,7.653845358890295,2.577204942423105,2.158615957736969
1667776742841504000,7.62850390625,8.780737511232495,0.7610159361898898,2.342906941726804
1667776742851555000,7.63855517578125,9.705149527421593,-0.9064759620040654,2.885262883596122
1667776742861607200,7.648607177734375,10.532921955066918,-2.253231346976757,2.993055149795115
1667776742871658000,7.658657958984375,11.309931579202413,-3.303882555681467,2.4632018388852477
1667776742881709000,7.668708984375,12.262923208665846,-4.130800412324071,1.9931693749487398
1667776742891760000,7.678760009765625,13.194501463222503,-4.812047815272212,2.446298927140236
1667776742901812000,7.68881201171875,14.093949718546867,-5.179548417755961,3.8818262360215186
1667776742911863000,7.698863037109375,15.377413657826184,-5.426610622957348,5.929143965265155
1667776742921914000,7.7089140625,15.304391676235198,-6.068887951520085,7.683194202971458
1667776742931965200,7.718965087890625,11.25354041441679,-6.797956843829154,8.271068910217284
1667776742942017000,7.72901708984375,5.000415839442611,-7.486919935721159,7.6242942702353
1667776742952068000,7.739068115234375,0.11634732857644557,-8.03088243600428,5.934601061627268
1667776742962119200,7.749119140625,-0.3918991306811571,-7.7483543651461595,2.8175106591016053
1667776742972170200,7.759170166015625,2.427031332090497,-6.732357121193409,-1.192501519589126
1667776742982222000,7.76922216796875,5.578099407541751,-4.941341719183326,-5.703005890148877
1667776742992273200,7.779273193359375,4.782433598253131,-3.28334245647788,-8.331320257562398
1667776743002324200,7.78932421875,-1.8548795330248773,-0.941160321894288,-8.18403476988673
1667776743012375000,7.799375,-6.676187490203977,3.910792218264937,-5.546206139674783
1667776743022427100,7.80942724609375,-5.795633904963731,13.03745562903285,-4.2138177182286976
1667776743032478200,7.819478271484375,-6.384542046910524,21.629467973220347,-2.0729472605407238
1667776743042529000,7.829529052734375,0.6149263803005218,30.648416274678706,1.3241294194057582
1667776743052580000,7.839580078125,11.023345172864198,39.75541929168701,9.145604842603205
1667776743062632200,7.849632080078125,6.427018083590268,26.54675837020874,9.782242703974246
1667776743072683000,7.85968310546875,-2.121182153008133,13.488981253159045,3.5562416982471943
1667776743082734000,7.869734130859375,-5.375555558502674,9.918173269420862,-0.9385688440963625
1667776743092785200,7.87978515625,-5.098752295032143,9.66132499874234,-4.994155610004067
1667776743102836700,7.889836669921875,-4.944316351079941,10.258190821695328,-7.53134126124978
1667776743112888600,7.899888671875,-4.561333225043118,9.745793087977171,-6.241086931177973
1667776743122939600,7.909939697265625,-4.476315977492928,8.323786939448118,-2.842168130496144
1667776743132990700,7.91999072265625,-3.9516371466115117,6.892559373587369,-1.6178962387673557
1667776743143041500,7.93004150390625,-3.9528199266552924,5.15573558049202,0.6176767019219697
1667776743153093600,7.94009375,-4.841970367588103,3.752324826839566,2.8334768745183943
1667776743163144700,7.950144775390625,-6.192312671136856,2.6643583252191543,2.767879782231152
1667776743173195500,7.960195556640625,-7.324621587830782,0.8541565767019986,1.7485189070641993
1667776743183246600,7.97024658203125,-7.8167334893673655,-1.0990122117698191,1.1807524834759533
1667776743193298700,7.980298583984375,-7.98418439771533,-2.77274154304862,0.20057021087855098
1667776743203349500,7.990349609375,-7.995580236476659,-4.783362403535842,-1.3384957984104753
1667776743213400600,8.000400634765626,-7.734836711925268,-7.248079615420103,-2.39499397957772
1667776743223451600,8.01045166015625,-7.657935258552431,-10.254188015794753,-2.705252061143517
1667776743233503500,8.02050341796875,-9.386375838705897,-14.073589652085303,-1.7247469863325355
1667776743243554600,8.030554443359375,-12.598478520834446,-18.978282433307168,0.5315684442646801
1667776743253605600,8.040605712890626,-13.329371705961227,-22.996851720201967,2.9450471979513764
1667776743263656700,8.05065673828125,-10.662478893828391,-24.339624757540225,1.6362141318768262
1667776743273708500,8.06070849609375,-6.656016224312782,-23.065923502862454,-2.618385970856249
1667776743283759600,8.070759521484375,-1.845966012598574,-20.181422543549537,-4.3900306097030635
1667776743293810700,8.080810791015624,2.2447217311762273,-16.72569055327773,-5.1421396013379095
1667776743303861500,8.090861572265625,9.945136095148325,-13.268515962982177,-4.325208885702491
1667776743313912600,8.10091259765625,19.97218474982977,-7.422485749733448,-0.12408069930747151
1667776743323964700,8.110964599609375,20.740295612716675,-0.27218729410767556,1.7069383579194544
1667776743334015500,8.121015380859374,16.722099250787494,3.7683366349637506,1.7921059737257659
1667776743344066600,8.131066650390625,10.442045167833566,5.258371779102086,2.59707751762867
1667776743354117600,8.14111767578125,3.9418288693025705,5.023674549955129,3.6352421697258945
1667776743364169500,8.15116943359375,-1.1690218598023057,3.487255255782604,1.9905112616553902
1667776743374220500,8.161220458984374,-8.148608067196607,1.9829513477951286,-2.6311492985785008
1667776743384271600,8.171271728515626,-17.664693404877184,4.497103913977742,-9.091470516833663
1667776743394322700,8.18132275390625,-17.386616468209027,9.965914679282903,-11.984752748495339
1667776743404374500,8.19137451171875,-7.35101275115013,13.00625385056138,-10.051740028345584
1667776743414425600,8.201425537109374,14.084628932493924,15.669105278348923,-10.184044219988584
1667776743424476700,8.2114765625,-5.07449405208826,6.447870902004838,-3.5021950507611033
1667776743434527700,8.22152783203125,-11.006403390413523,-0.11540858642160892,-3.4766441376581785
1667776743444579600,8.23157958984375,-11.252183154588938,-3.4152614481955763,-2.833423683026433
1667776743454630700,8.241630615234374,-12.86578388811946,-4.125477171474695,-1.5318214449882506
1667776743464681700,8.251681640625,-15.249112272083758,-1.735304036182165,1.7500164521455763
1667776743474732500,8.261732666015625,-18.257841668611764,3.340018283423781,5.872130284667015
1667776743484784600,8.27178466796875,-18.65986647198796,10.647835451447962,7.7616615904867645
1667776743494835700,8.281835693359374,-15.061151075148581,18.923011212462185,8.320085746842622
1667776743504886500,8.291886474609376,-6.446912870627641,24.586907912015914,9.137544285744427
1667776743514937600,8.3019375,6.204112414523959,26.876980504655837,11.53745087954402
1667776743524988700,8.31198876953125,20.002166046595573,16.622545820623635,13.047138818657398
1667776743535040500,8.32204052734375,17.11625755857229,5.635441004920006,8.716109263977408
1667776743545091600,8.332091552734376,10.208183804988861,1.9244582422941923,-0.1133143175560981
1667776743555142700,8.342142578125,6.738251439929008,1.0061182394951582,-5.8464341178745025
1667776743565193700,8.35219384765625,7.160474981725216,1.7213023988366125,-5.4939627422183746
1667776743575245600,8.36224560546875,9.967059173142909,1.8471020308911799,-2.6724799646154045
1667776743585296600,8.372296630859376,13.39383979421854,1.3748743949979543,-0.8111176454424858
1667776743595347700,8.38234765625,16.97660943390727,0.33884500136375423,0.07061236316598951
1667776743605398500,8.3923984375,18.512238454484937,-0.9980062447100877,1.5160641961470245
1667776743615450600,8.40245068359375,17.20369735709429,-2.914978515163064,3.5267104833364487
1667776743625501700,8.412501708984376,15.085874012994765,-4.812002222564816,5.354460748025774
1667776743635552800,8.422552734375,13.108183946728706,-5.906769636371731,6.842082985803485
1667776743645603600,8.432603515625,10.578924996829032,-6.08739800620079,8.043311124944687
1667776743655655700,8.44265576171875,6.2710869326442475,-6.011765549850463,8.322602113577723
1667776743665706800,8.452706787109374,1.5695716221898792,-6.693551881980896,7.680621137613057
1667776743675757600,8.462757568359375,-0.33966303974837064,-8.48035054307878,6.420233538016676
1667776743685808600,8.47280859375,0.5451866352505982,-10.49336268261671,4.717192479796707
1667776743695860700,8.48286083984375,3.2173148638188835,-12.308829219794273,2.448868193106353
1667776743705911600,8.49291162109375,5.93342208097577,-12.989931661313772,-1.1980911562897265
1667776743715962600,8.502962646484375,7.046263496133685,-10.620730002379418,-6.723918378672003
1667776743726013700,8.513013671875,3.0862592109322544,-7.292314478465914,-10.23679381340146
1667776743736064800,8.523064697265625,-3.8718385104924438,-5.220232894843816,-9.320978945165873
1667776743746116600,8.53311669921875,-5.428729514807462,-3.183579767477512,-6.205711081892251
1667776743756167700,8.543167724609376,-3.0839386590301987,0.5097673852145671,-3.469842056427896
1667776743766218800,8.55321875,-2.6422879477083683,7.853783993867039,-1.6237212916590273
1667776743776269600,8.56326953125,-4.159986174798012,19.96928785934448,1.0315379274338483
1667776743786321700,8.57332177734375,3.6179040814340113,39.609195295763016,2.7944211676761506
1667776743796372700,8.583372802734376,9.117811995792389,47.89369885709286,8.58216022773683
1667776743806423600,8.593423583984375,2.1744246445044872,26.04175016222,10.338650259810686
1667776743816474600,8.603474609375,-1.3070011744722723,12.798349935793876,5.123188232630491
1667776743826526700,8.613526611328124,-5.265469043886661,9.936916548335551,0.9119941409036516
1667776743836577500,8.62357763671875,-8.049200767505168,9.80579133734405,-2.13608921476081
1667776743846628600,8.633628662109375,-7.4141668341994285,10.31784712575674,-3.1484926720052955
1667776743856679700,8.6436796875,-3.826475520199537,9.181211578035354,-0.2972644522190094
1667776743866731500,8.6537314453125,-1.5739628428861498,7.0615808922529215,2.6170290032893417
1667776743876782600,8.663782470703126,-2.2854946171998978,4.82866927972734,2.9985668989539143
1667776743886833700,8.673833740234375,-4.583871220065653,2.913019782310724,3.712190092588961
1667776743896884700,8.683884765625,-6.4697846276491875,1.379141989314556,3.4451612041577695
1667776743906936600,8.6939365234375,-7.799300708529353,-0.23098317705988883,2.145913858682662
1667776743916987600,8.703987548828126,-8.961570463722945,-2.050769915524125,1.2530391365297138
1667776743927038700,8.714038818359375,-9.447976262572407,-3.997890071481466,0.011575433111935853
1667776743937089800,8.72408984375,-9.48792015042603,-5.95854424727261,-2.2718115442842244
1667776743947141600,8.7341416015625,-10.16264019743204,-7.917621967527269,-5.305307133278251
1667776743957192700,8.744192626953126,-12.375207525587081,-10.600742860883473,-6.718589877125621
1667776743967243800,8.754243896484375,-16.16765802658796,-14.842486112391947,-4.376327078521252
1667776743977294600,8.764294677734375,-18.8753516356647,-19.07731446994543,-2.177579309143126
1667776743987345700,8.774345703125,-16.695524547594786,-21.841855170881747,-2.55282950284034
1667776743997397800,8.784397705078124,-9.56406757056117,-21.980943323576447,-2.1748652278788385
1667776744007448600,8.794448486328125,-5.102235460972786,-19.723819060814378,-3.578969078361988
1667776744017499600,8.804499755859375,-2.477871292489767,-16.09047308009863,-6.528593374970555
1667776744027550700,8.81455078125,0.9429716090999544,-12.848624663525818,-7.079912083235382
1667776744037602600,8.8246025390625,7.359476628112793,-10.676680437660217,-5.354559532225132
1667776744047653600,8.834653564453125,22.28527347639799,-6.41728111795187,-0.048645372964441776
1667776744057704700,8.84470458984375,33.77828081858158,3.742662680003047,2.7362758526995776
1667776744067755800,8.854755859375,25.462975291752812,10.515533597892523,3.0931480936631557
1667776744077807600,8.8648076171875,14.06740541049242,11.13555817811489,5.7136617241978644
1667776744087858700,8.874858642578126,1.7703509457744657,6.709818541648984,4.152820520952344
1667776744097909800,8.88490966796875,-9.0270392534554,0.5578355428129435,1.483668239454925
1667776744107960600,8.894960693359375,-12.893127822118997,-1.918240682953596,-2.865499906244874
1667776744118012700,8.9050126953125,-14.44484405414462,2.069779736420512,-9.966694431483745
1667776744128063700,8.915063720703126,-13.152239361554383,9.166271783056855,-12.669203331398963
1667776744138114800,8.92511474609375,-4.497674991863966,16.48605294511914,-13.95984870661497
1667776744148165600,8.93516552734375,-2.152398982918262,14.606942495548724,-1.1424679071366786
1667776744158216700,8.945216796875,-6.602721856498718,5.124442616605759,6.803661777472495
1667776744168268800,8.955268798828126,-3.8360722005844115,-0.4666670791566372,3.452526472228765
1667776744178319600,8.965319580078125,-3.104038028728962,-3.4644624092161656,2.2396337603874503
1667776744188370700,8.97537060546875,-3.969863415914774,-5.3678007065922015,2.261672573716193
1667776744198421800,8.985421875,-8.288920208728314,-4.217938013029098,1.8959550552569329
1667776744208473600,8.9954736328125,-13.919063107240198,0.8758511066377163,0.8031256237752735
1667776744218524700,9.005524658203125,-16.386235311061142,7.286548170024156,2.3601409851223227
1667776744228575700,9.01557568359375,-15.722603059780596,13.300720781016349,6.000038287177682
1667776744238626800,9.025626708984374,-10.506568201148509,17.637985430693625,8.492804366460442
1667776744248678700,9.0356787109375,-0.3413735699933022,20.3671345002532,10.603147583937645
1667776744258729700,9.045729736328125,10.617848309463263,18.3358823551476,9.956264222884178
1667776744268780800,9.05578076171875,14.407400750935077,8.632723124760389,4.583348949757218
1667776744278831600,9.06583154296875,9.635469841995835,2.3757892206311224,-0.42637043234258887
1667776744288883700,9.0758837890625,6.413416259217262,1.200084814324975,-4.0661216039255255
1667776744298934800,9.085934814453125,7.406565711545944,2.0361773265480996,-4.275387454695999
1667776744308985600,9.095985595703125,12.153517077529429,3.4403368527412415,-1.4551020701840518
1667776744319036700,9.10603662109375,16.038316191881894,3.9942432394117113,0.5915565375637263
1667776744329088800,9.1160888671875,17.960087387049196,1.9420096810758112,2.178665935336053
1667776744339139600,9.1261396484375,18.702831168967485,-1.0088999791681765,3.6355657025918364
1667776744349190700,9.136190673828125,17.401226008319853,-3.1501468689531085,5.245598806768656
1667776744359241700,9.14624169921875,14.77737505005598,-4.275080872964859,7.386935128402709
1667776744369293600,9.15629345703125,10.337388861572743,-4.556970061397553,8.53424872200489
1667776744379344600,9.1663447265625,4.596358653455972,-4.505653131136298,8.323507537984847
1667776744389395700,9.176395751953125,0.6063707334011793,-5.338772765028477,7.518581148397922
1667776744399446800,9.18644677734375,-0.12444821744561195,-7.219626258873939,6.3605743113458155
1667776744409497900,9.196497802734376,2.133019890318066,-9.446799035486578,4.301602676926553
1667776744419549700,9.2065498046875,5.130816243290901,-11.499172879076003,1.8302493880286812
1667776744429600800,9.216600830078125,6.873260798877477,-12.213076350957154,-1.3029064525045453
1667776744439651800,9.22665185546875,6.549776448252797,-9.455800088065862,-5.879590537545084
1667776744449702700,9.23670263671875,3.350210591614246,-6.566128448116779,-10.108652586656808
1667776744459754800,9.246754638671876,-1.1852081477105616,-5.25909307911396,-11.340583907097578
1667776744469805800,9.256805908203125,-3.1781974899172782,-4.134374179157614,-10.332156221616268
1667776744479856600,9.266856689453125,-1.562843190717697,-2.1257360169202086,-9.085763245102763
1667776744489907700,9.27690771484375,0.09158756585121154,2.7790263224065304,-8.316548804888129
1667776744499959800,9.286959716796876,-1.098789947321266,11.952927869689464,-5.048671628567576
1667776744510010600,9.2970107421875,-1.49462027997151,24.021707977914808,-1.2791522135600446
1667776744520061700,9.307061767578125,1.1404755642756819,38.76696471917629,1.4445686934709547
1667776744530112800,9.31711279296875,1.4353819090612232,40.80963959105014,7.73246355305314
1667776744540164600,9.32716455078125,-0.5093523746728896,24.66016954758167,11.340940465450286
1667776744550215700,9.337215576171875,-3.3355548742741346,12.968590767121315,7.254507602640986
1667776744560266800,9.347266845703125,-5.937565756651759,10.379589003920554,3.924356633237004
1667776744570317800,9.35731787109375,-6.922362975698709,10.217197132527827,1.4824027495637535
1667776744580369700,9.36736962890625,-5.566625827369093,10.32527289184332,0.4853904843270778
1667776744590420700,9.377420654296875,-3.224030435809493,8.829739734810591,2.042394301366806
1667776744600471800,9.387471923828125,-3.0208658245235678,6.041876025953888,3.3223809199243783
1667776744610522600,9.397522705078124,-4.41228628065288,3.277634015703201,3.366828256677091
1667776744620573700,9.40757373046875,-5.465458532267808,1.1410375820726155,2.922326832099259
1667776744630625800,9.417625732421875,-6.417372303366661,-0.6758598646908998,1.5581532793357968
1667776744640676900,9.4276767578125,-7.6411343458771706,-2.1980261771053073,0.27106062816530463
1667776744650727700,9.437727783203124,-8.538945355388522,-3.9361353338360785,-0.6952769512139261
1667776744660778800,9.44777880859375,-8.899798774942756,-5.825250460070372,-2.841160999280214
1667776744670830800,9.457830810546875,-8.878243361216782,-7.862041534602642,-5.913354275459051
1667776744680881700,9.467881591796875,-9.179009099555016,-10.364721105134487,-7.519326998329162
1667776744690932700,9.4779326171875,-11.034711785531043,-13.69830321803093,-6.148876849514246
1667776744700983800,9.48798388671875,-14.174078317272663,-17.82418254056573,-3.8235692773640153
1667776744711035600,9.49803564453125,-15.961109033560751,-20.840632302212715,-3.83980437285006
1667776744721086700,9.508086669921875,-13.428473885226248,-21.3576699706912,-4.8757282602831715
1667776744731137800,9.5181376953125,-7.539630366167426,-19.456535905361175,-3.7380958104789257
1667776744741188900,9.52818896484375,-2.698493234533071,-16.429332109987733,-3.6486008329927917
1667776744751240700,9.53824072265625,-1.4935001899003981,-12.412343370282649,-7.619865932399034
1667776744761291800,9.548291748046875,1.3681950633645057,-8.444241118821502,-8.932291762268543
1667776744771342800,9.5583427734375,9.298559023565053,-5.120357393118739,-4.958890819877386
1667776744781393700,9.5683935546875,19.89715084389448,-0.14706687648892403,3.4079338817864655
1667776744791445800,9.57844580078125,27.233351810359952,8.600598970746994,4.917746324062347
1667776744801496800,9.588496826171875,22.213571345233916,13.424522517251967,2.1614107030220326
1667776744811547600,9.598547607421875,16.122334199261665,9.682044546166061,3.5310178251415487
1667776744821598700,9.6085986328125,4.861183309841156,1.832575492888689,1.3656978397212922
1667776744831649800,9.61864990234375,-10.916297003030776,-5.0149803713679315,-1.235951808128506
1667776744841701600,9.62870166015625,-19.617314496338366,-8.854726292029023,-4.563421429494023
1667776744851752700,9.638752685546875,-19.780863721072674,-9.821791455030441,-9.469259289097785
1667776744861803800,9.6488037109375,-18.272876740658283,-3.736436937355995,-13.410984990286826
1667776744871854800,9.658854736328125,-6.746967830348014,8.20356481526494,-13.067746722400187
1667776744881906700,9.66890673828125,1.9222750530362127,17.01708172954917,-10.234960752755402
1667776744891957800,9.678957763671875,-5.153188234096765,12.509964371079207,-3.8600615634590385
1667776744902008800,9.6890087890625,-3.3441970304131505,6.818914876183867,-0.3934532282553613
1667776744912060000,9.699059814453125,-0.9513059413988143,5.01302397660315,5.009845346567034
1667776744922111700,9.70911181640625,-3.1585692448616025,3.834848796269297,8.328101880037783
1667776744932162800,9.719162841796875,-8.00018626896739,3.3432121110290285,8.435333005222677
1667776744942214000,9.7292138671875,-12.935525532865524,5.5196910577148195,9.013098406386375
1667776744952264700,9.7392646484375,-15.417473281013965,9.329003846189378,9.490136657431721
1667776744962316800,9.74931689453125,-11.766611517351866,14.178985963058471,9.392429147395491
1667776744972368000,9.759367919921875,-6.300096169507503,17.99193213959932,10.527165583497284
1667776744982418700,9.769418701171874,3.9064346075773235,18.571850334882736,9.662017072659731
1667776744992469800,9.7794697265625,18.981420146811008,12.259116802120207,3.4266605018272993
1667776745002521900,9.78952197265625,17.815702296990157,6.517230853956938,-0.9461948089301585
1667776745012572700,9.79957275390625,10.783568448495863,3.7293303202211856,-4.611230351634323
1667776745022623700,9.809623779296874,7.387142633673548,3.2238410507172346,-6.088223351109027
1667776745032674800,9.8196748046875,8.155113795828818,3.3028087889701125,-4.170070638699829
1667776745042726700,9.8297265625,10.886556529283522,3.197386174511909,-1.8709002551078795
1667776745052777700,9.83977783203125,13.993628226619958,2.0839754350334405,-0.4405386949593201
1667776745062828800,9.849828857421874,17.261309003585577,-0.06521335366666317,0.8590364576980472
1667776745072879900,9.8598798828125,18.00323796198964,-1.9722259556412696,3.337573812881112
1667776745082930700,9.8699306640625,15.710971074175834,-3.280008928140998,6.733656513354182
1667776745092982800,9.879982666015625,12.76637425034046,-4.185645516711473,9.343128817653655
1667776745103033000,9.890033203125,9.141910079738498,-4.946496617728472,10.421240864735841
1667776745113084200,9.900084228515626,4.586081589591503,-5.722021556264162,9.9469738319695
1667776745123135000,9.910135009765625,1.8345231198251246,-6.984781145688891,8.60207956469357
1667776745133187000,9.92018701171875,2.199029801189899,-8.773703374812007,7.177211012470722
1667776745143238100,9.930238037109374,3.345477717873454,-11.196422104400396,5.127922275415062
1667776745153289000,9.9402890625,4.327748048791289,-13.507620487177372,2.7054715491130947
1667776745163340000,9.950340087890625,4.501015534463525,-15.04369725152254,-0.38031770621985195
1667776745173392100,9.96039208984375,3.940298883256316,-13.202176235634088,-4.581253438782691
1667776745183443000,9.97044287109375,3.357387935897708,-7.2787915645480155,-6.7988160910069935
1667776745193494000,9.980493896484376,1.4020447259962558,-3.7090795593529937,-6.670410075846314
1667776745203545000,9.990545166015625,-1.6257354079604147,-1.3037971177339553,-5.2533986668646335
1667776745213597200,10.00059716796875,-1.7093746451556682,2.314095273262262,-3.83801398230195
1667776745223648000,10.01064794921875,0.342464507035166,9.212045692238211,-3.9341637415021657
1667776745233699000,10.020698974609376,-2.80593887925148,21.40858650345802,-0.10973346339464186
1667776745243750100,10.030750244140625,-0.22822101887017487,36.46692485927343,1.9695621432594954
1667776745253802000,10.040802001953125,10.725641160184145,44.55650907509327,5.632992442724109
1667776745263853000,10.05085302734375,9.966264223372935,25.838507225000857,7.898992670381069
1667776745273904000,10.060904052734376,3.939109088949859,13.323439977824687,2.026713624893129
1667776745283955200,10.070955078125,-1.8385542750373483,10.781051497238874,-0.9290054814592004
1667776745294006000,10.081006103515625,-7.309393623560666,11.041403392124176,-3.204326495169103
1667776745304058000,10.09105810546875,-7.5344240296959875,11.904632333076,-3.501598838433623
1667776745314109200,10.101109130859374,-2.937666440050304,11.333185029017924,-0.14111001391112804
1667776745324160000,10.111159912109375,-1.0591092404484748,9.85881039534807,3.7171848321363328
1667776745334211000,10.121211181640625,-1.822458003500104,8.165075217872857,5.502561643737554
1667776745344263200,10.13126318359375,-3.3561440733164547,5.633776286578178,4.721501282906532
1667776745354314000,10.14131396484375,-5.5074482467353345,3.1143571781694885,3.3137866945803163
1667776745364365000,10.151364990234375,-6.993591644132137,0.854724731978774,1.8979130574569105
1667776745374416100,10.161416015625,-8.236655183961988,-1.3300216923147439,0.2935536150023341
1667776745384468000,10.171468017578125,-9.524618772748113,-3.8346062196850776,-1.8372122127786277
1667776745394519000,10.18151904296875,-10.686026942676305,-6.291099793103337,-4.200627689526975
1667776745404570000,10.191570068359376,-10.67989998422861,-8.42708715492487,-6.835889976382255
1667776745414621200,10.20162109375,-10.59422310372591,-10.267852968531846,-7.497755217990279
1667776745424673000,10.211673095703125,-11.022885738658905,-12.290007614946365,-7.2765253731817
1667776745434724000,10.22172412109375,-12.209928116059302,-14.98040054513216,-8.249058153939247
1667776745444775200,10.231775146484376,-14.699300461250543,-18.510363308262825,-10.201197599363326
1667776745454826200,10.241826171875,-16.82734943128824,-21.627941202044486,-10.913672499746083
1667776745464878000,10.251878173828125,-17.288352493333814,-22.274438778650758,-9.91474446401596
1667776745474929200,10.26192919921875,-16.574071420311927,-20.52461171159744,-7.854886986672878
1667776745484980200,10.271980224609376,-13.228480889713763,-16.348013424694535,-4.029349624106287
1667776745495031000,10.282031005859375,-8.13301302317977,-10.645880810248851,-1.5422114677079022
1667776745505082000,10.29208203125,-4.7038814550638195,-4.632867890685796,-1.1611522954709828
1667776745515134200,10.30213427734375,-1.3901507284544408,1.444749310734868,-0.5835580130904913
1667776745525185000,10.31218505859375,3.204647105425596,5.006313080787659,1.2440465595178305
1667776745535236000,10.322236083984375,14.026145179343223,8.068157396909594,6.119478905594349
1667776745545287200,10.332287109375,28.78194435740709,13.676170881199836,17.939363747972248
1667776745555339000,10.342339111328124,25.61255678141117,20.9654674731493,16.877558692568538
1667776745565390000,10.35239013671875,18.59467240754366,14.184854562830925,8.491849257692694
1667776745575441200,10.362441162109375,8.692654154109954,0.2233504902243614,2.1491171847686172
1667776745585492200,10.3724921875,-5.644207664221525,-5.297404397329688,-4.378943398499489
1667776745595544000,10.3825439453125,-16.025614531219006,-5.03771710383296,-13.570609735053777
1667776745605595100,10.39259521484375,-13.597891709733009,-0.32464170396625996,-22.710085281121728
1667776745615646200,10.402646240234375,15.706090316396951,8.458841891103983,-33.04359291734695
1667776745625697000,10.412697021484375,0.013567922103404998,8.270271622359752,-17.918462414240835
1667776745635749000,10.4227490234375,-12.647322338980436,5.493624888566136,-6.710686556655168
1667776745645800200,10.43280029296875,-9.796432557368277,2.0587749428033826,-3.7174732936888932
1667776745655851000,10.44285107421875,-9.363685283470152,-0.5191472079783678,0.6658224548012018
1667776745665902000,10.452902099609375,-11.959060673356056,1.390509186503291,6.297030936717987
1667776745675954200,10.4629541015625,-16.640546756738424,5.7643988087445495,10.043382534366845
1667776745686005000,10.4730048828125,-19.811932228553292,11.707822643774747,11.153734470796584
1667776745696056000,10.48305615234375,-17.41490382053852,18.221116158282754,9.304050022196769
1667776745706107100,10.493107177734375,-8.873508733910322,21.396218020272254,10.007985057771206
1667776745716159200,10.5031591796875,2.8662334812164305,19.787749388933182,14.77618145635724
1667776745726210000,10.5132099609375,12.18082126404047,18.031878365540503,17.266967175477742
1667776745736261000,10.52326123046875,15.556203706312179,11.304470975708961,11.834604272603988
1667776745746312200,10.533312255859375,10.21564464238882,5.691658566704392,4.628018112567067
1667776745756363300,10.54336328125,4.228655221876502,3.5107185489565134,-2.4376582323059437
1667776745766415000,10.5534150390625,3.3165909383460876,2.537783032616973,-7.233675242492557
1667776745776466200,10.563466064453126,7.89518451026976,2.536342770680785,-8.06518276501298
1667776745786517200,10.573517333984375,13.093114972412586,3.7393046017467975,-5.22830105048716
1667776745796568000,10.583568115234375,14.463711251699923,4.1289223434925075,-2.894462673617899
1667776745806620200,10.5936201171875,14.321465511757134,2.7745605751693247,-1.8361422454595564
1667776745816671200,10.603671142578126,14.724796137034891,0.8531360014826059,0.6929568377032875
1667776745826722000,10.61372216796875,14.720384165811538,-1.4281658402025699,3.8081267935603855
1667776745836773000,10.623773193359375,13.794732963216305,-3.6528707653969525,6.511732841062545
1667776745846825200,10.6338251953125,13.217144672185182,-5.355521655255556,8.918511074197292
1667776745856876000,10.6438759765625,11.253253998690843,-6.758841808015108,11.023521698474884
1667776745866927000,10.653927001953125,6.143873342138528,-7.241161214333772,11.826194171655178
1667776745876978200,10.663978271484375,2.5966508166491984,-8.130821066093445,11.252704548114538
1667776745887030000,10.674030029296874,2.5415169584482906,-9.769174548086523,10.01325393808484
1667776745897081000,10.6840810546875,3.705805944509804,-11.557252143079042,7.965739809486269
1667776745907132200,10.694132080078125,3.7410727804630994,-13.118120818853377,5.626729290676117
1667776745917183200,10.704183349609375,3.1843413994997736,-14.665722016775607,3.275352042245865
1667776745927234000,10.714234130859374,5.142095177674293,-16.282142483901975,0.2334821908013895
1667776745937286100,10.7242861328125,8.613305307585,-13.513456353724003,-4.208468758416176
1667776745947337200,10.734337158203125,7.609423448839784,-5.113796134907007,-6.322492710232734
1667776745957388300,10.74438818359375,0.5220926868457347,-1.2303390828132628,-6.01546557341218
1667776745967439000,10.754439208984374,-2.9097435371190308,0.12794190478026865,-4.251643298754096
1667776745977491200,10.7644912109375,-1.8815362154126165,2.643884861510992,-3.3122102390438317
1667776745987542300,10.774542236328125,-3.715695762622356,11.884725855600832,-0.17319485882744193
1667776745997593000,10.784593017578125,-4.076346937602758,27.65859849936962,2.8224884475141763
1667776746007644200,10.79464404296875,-0.06104848907217383,41.63021480066776,0.6441081972517073
1667776746017696300,10.8046962890625,7.4713716534554955,41.436130152416226,2.9348431993231174
1667776746027747000,10.8147470703125,7.292645902377367,23.437822048044204,5.339857637655735
1667776746037798100,10.824798095703125,0.8763809757307172,14.110752384787798,3.454639811120927
1667776746047849200,10.83484912109375,-5.232014518052339,11.352114185893535,1.0602142790809272
1667776746057901000,10.844901123046874,-7.241884852433204,11.443199062919616,-0.5334992661967873
1667776746067952000,10.8549521484375,-3.956782108284533,11.49742398958206,-0.37653994124680756
1667776746078003200,10.865003173828125,-2.0752470619156957,9.435168803447484,2.237583403728902
1667776746088054300,10.87505419921875,-2.3952879940882323,7.786496756535768,4.290989220714569
1667776746098106000,10.885106201171874,-3.780971660131216,6.4812377495557065,4.205820289734006
1667776746108157400,10.895157470703126,-5.400559066855907,4.7671261390060184,2.9731492568418383
1667776746118208300,10.905208251953125,-6.60588762705326,2.84139305447042,1.492137084853649
1667776746128259000,10.915259033203125,-7.398028184825182,0.8254635661810636,-0.18915595967769622
1667776746138311400,10.9253115234375,-8.30330412338972,-0.9850053088396787,-1.7051596578091381
1667776746148362500,10.935362548828126,-9.127586955353618,-2.74743349879086,-3.2441131466343998
1667776746158413000,10.9454130859375,-9.573164484730363,-4.842173488944769,-4.943910692888498
1667776746168464100,10.955464111328125,-9.501486318963765,-7.182669277876615,-7.011188091099262
1667776746178515200,10.96551513671875,-9.153929018834233,-9.894113179397582,-8.554981713432072
1667776746188567300,10.9755673828125,-10.067919594252109,-13.512336409783362,-10.459719940733908
1667776746198618000,10.9856181640625,-12.482157495743035,-18.665807552474735,-12.802011380910873
1667776746208669200,10.995669189453125,-15.189484025073051,-23.689634078121184,-11.643210763132572
1667776746218720300,11.00572021484375,-14.414531917989253,-25.260676941907406,-9.88835563878417
1667776746228772000,11.015772216796876,-8.984943156003952,-23.23806286128759,-5.99554682097733
1667776746238823200,11.0258232421875,-3.8954713150143623,-18.91244539478421,-2.7358956212103367
1667776746248874200,11.035874267578125,-1.6574490814767777,-13.146125262588262,-4.38878674712181
1667776746258925300,11.04592529296875,0.5140403863586485,-8.347726617962122,-5.198205771952868
1667776746268977200,11.05597705078125,4.695401211488247,-5.172403222176432,-3.7517151705086227
1667776746279028200,11.0660283203125,11.371014116674662,-2.1522727261900902,1.3091047226227819
1667776746289079300,11.076079345703125,22.303138803434372,2.205240930789709,9.905499665808676
1667776746299130000,11.086130126953124,26.999571111536024,10.122408724808693,10.363978762334584
1667776746309182200,11.09618212890625,21.63291197619438,13.750109393113851,7.220013796886802
1667776746319233300,11.1062333984375,14.795626161539554,10.510005189859866,5.767761563175917
1667776746329284000,11.1162841796875,-0.8479754038490355,5.229978628310561,1.3833571227915584
1667776746339335200,11.126335205078124,-18.79793288041949,2.7246342224836346,-6.055401277959346
1667776746349386200,11.13638623046875,-20.995252370560166,6.033942310345172,-12.459670938646793
1667776746359438000,11.14643798828125,-16.847891868579385,10.601633672243356,-16.028878501451015
1667776746369489200,11.1564892578125,-5.975542728346586,8.7571543910712,-15.57746393648386
1667776746379540200,11.166540283203124,-5.9767971123218535,1.3051520394742488,-9.997126979148387
1667776746389591300,11.17659130859375,-6.3393047288239,-3.8398487965136763,-6.526593725585937
1667776746399643100,11.18664306640625,-5.2480491225302215,-6.671870211526751,-4.796325637744367
1667776746409694200,11.196694091796875,-7.048161438709497,-5.903036295062303,-3.197416569650173
1667776746419745300,11.206745361328124,-12.043919223213194,-0.5336556258022784,-2.125975232503563
1667776746429796000,11.216796142578126,-16.105692861062288,8.306966737550496,0.5796864323541522
1667776746439848200,11.22684814453125,-17.34129497897029,17.203419124674795,4.098321453523636
1667776746449899300,11.236899169921875,-12.503352259463071,22.82149749138355,7.971495012012124
1667776746459950300,11.246950439453125,-2.1259552126288415,23.255343666434285,12.032075640684365
1667776746470001200,11.257001220703126,9.695890116167067,21.15754136610031,15.553351239490508
1667776746480053200,11.26705322265625,13.310223937898874,13.775647154474258,15.005178428035974
1667776746490104300,11.277104248046875,8.524460902962089,6.470581330984831,9.116721862468124
1667776746500155100,11.287155029296875,4.706275656723976,3.5898259879410266,1.7900930264681576
1667776746510206200,11.297206298828126,4.764648350715637,2.7638421972781417,-4.438852216017246
1667776746520258300,11.30725830078125,7.293693365603685,3.229404530063271,-7.850106766659021
1667776746530309000,11.31730908203125,11.355822392761707,3.746578392142057,-8.185621162295341
1667776746540360200,11.327360107421875,14.991490094423293,3.599287643769383,-5.535238170936704
1667776746550411300,11.337411376953124,16.123095246762038,3.528960892611742,-1.8890733329191802
1667776746560463000,11.347463134765626,14.758782577788828,2.0973282530814408,-0.4479381210282445
1667776746570514200,11.35751416015625,13.090711418402194,-0.7229740825653076,-0.1678749789789319
1667776746580565200,11.367565185546875,13.877960697001217,-3.556428160730004,1.330338503178954
1667776746590616300,11.3776162109375,15.660835462653637,-5.2177212042838335,5.458288202247023
1667776746600667100,11.387667236328125,14.397942017716169,-5.590704622092843,9.916620779281853
1667776746610719200,11.39771923828125,8.105402547198533,-5.369773467969894,12.127567812758683
1667776746620770300,11.407770263671875,3.229617880553007,-6.1889090001732106,12.695536042529344
1667776746630821000,11.417821044921874,2.844636274175346,-8.26481218791008,12.388057654809952
1667776746640872200,11.4278720703125,3.0134663619220254,-9.784946117714046,10.804629941225052
1667776746650924300,11.43792431640625,2.482106738102436,-11.041062031340598,8.241731756573914
1667776746660975000,11.44797509765625,3.0553514469712972,-12.90671795605421,5.834574168732762
1667776746671026200,11.458026123046874,5.076242357060313,-14.853715946936607,3.649823945046961
1667776746681077200,11.4680771484375,8.555666773086786,-16.855560795772075,1.885826606082916
1667776746691129000,11.478129150390625,5.924357900032401,-14.616227041244507,-0.6474860761869698
1667776746701180200,11.48818017578125,-3.221728588607907,-4.402983614778519,-2.286707792381942
1667776746711231200,11.498231201171874,-5.579347946298122,-0.37107963001430033,-1.9326884566314517
1667776746721282300,11.5082822265625,0.2397136142705567,1.8473703264385462,-2.033552384871989
1667776746731334100,11.518334228515625,-0.2499789876972325,8.764486049133538,-1.0062402584396302
1667776746741385200,11.52838525390625,-1.5646119539558887,25.64377960267067,2.838260893924534
1667776746751436300,11.538436279296874,1.3610416844785214,45.52328489975929,1.0071716940708457
1667776746761487400,11.5484873046875,6.355944897979498,51.04332725512981,-2.4409936603389677
1667776746771539200,11.558539306640625,4.881737437570095,33.48552186108827,-1.0166039776742457
1667776746781590300,11.56859033203125,-0.30036899410560725,19.253306996667384,-1.3005688033372163
1667776746791641300,11.578641357421875,-5.865101993465423,14.473408469849824,-2.749574602472782
1667776746801692200,11.588692138671876,-8.283522733598947,13.033309030747413,-3.6094901810929176
1667776746811744300,11.598744140625,-5.248887326920032,11.855292840367555,-3.6612159844160077
1667776746821795300,11.60879541015625,-2.834451564769447,9.447478834444285,-1.200830664256215
1667776746831846100,11.61884619140625,-3.0288918945908545,7.679932570827007,2.2765911797761915
1667776746841897200,11.628897216796876,-4.045319346654415,6.510256338769197,4.052945019227266
1667776746851948300,11.6389482421875,-5.274114122635126,5.035251005980372,3.98976930886805
1667776746862000000,11.649000244140625,-6.978993794459104,2.7390982166439293,2.0560674374103547
1667776746872051200,11.65905126953125,-8.28185684621334,0.027497078734636304,0.36465222731530667
1667776746882102300,11.669102294921874,-9.064081574648618,-2.6109885540813207,-1.4961267390117048
1667776746892153300,11.6791533203125,-9.68840589789152,-5.353098227500915,-3.656517889727652
1667776746902205200,11.689205078125,-10.204370384180546,-8.249550905892253,-5.992615443700552
1667776746912256300,11.69925634765625,-11.496900257968901,-11.492587655466794,-8.657677533274889
1667776746922307300,11.709307373046874,-14.266224686050414,-15.770757142096757,-12.71264616728425
1667776746932358100,11.719358154296875,-17.960237024652958,-21.199012025129793,-14.151338077676295
1667776746942410200,11.72941015625,-17.851430612975356,-25.55355981804132,-11.632262668138742
1667776746952461300,11.73946142578125,-12.653002722704409,-26.623255918955802,-10.675699609929323
1667776746962512100,11.74951220703125,-6.962350118172169,-24.42905894474983,-7.49389269734323
1667776746972563200,11.759563232421876,-3.1439924379765984,-18.75015639924407,-6.477384581258892
1667776746982615300,11.769615234375,0.49873628811240195,-12.022309448951482,-7.4535016502439975
1667776746992666400,11.779666259765625,5.334040475809574,-7.1923489603698245,-7.097028637731075
1667776747002717200,11.78971728515625,15.481444525665044,-3.7396751886248585,-2.940580866192281
1667776747012768300,11.799768310546876,27.17026553184986,0.6935796457767486,6.496206186106801
1667776747022819300,11.8098193359375,27.695493521046636,9.320045463708043,10.864732820010184
1667776747032871200,11.81987109375,17.87608107010722,16.296898154485223,8.465008597040176
1667776747042922200,11.829922119140624,11.723673708379268,19.271801269257068,8.871483365562558
1667776747052973300,11.839973388671876,7.022545351415872,10.207795682454108,7.106452299636602
1667776747063024400,11.8500244140625,-2.3577463450707494,-1.529150179952383,3.0899452059686183
1667776747073076200,11.860076171875,-12.277321151852608,-6.012911797276139,-1.7195222374215722
1667776747083127300,11.870127197265624,-14.970557196509837,-7.087778578826785,-9.115742788302898
1667776747093178400,11.880178466796876,-12.910315103763342,-4.2333623766541475,-16.143410889559984
1667776747103229200,11.890229248046875,2.0193173771619795,2.806595297333598,-24.88710666412115
1667776747113281800,11.90028173828125,-0.09864859027862548,2.608102769511938,-20.899893469476698
1667776747123332900,11.910332763671875,-15.895759486293791,-0.12375848161578178,-5.776956092500686
1667776747133383700,11.9203837890625,-8.720998789584636,-2.8570085567533967,-1.7810145247384905
1667776747143434800,11.930434814453125,-4.389885648274421,-4.301476712459325,1.6690408812016249
1667776747153486800,11.94048681640625,-4.101840275299549,1.7829285416662692,4.386956024563312
1667776747163537700,11.95053759765625,-6.825505360490084,9.607386487805842,5.436391427737474
1667776747173588700,11.960588623046876,-9.68805284667015,17.074048063874244,5.46090510674715
1667776747183639800,11.970639892578125,-10.857930154258012,23.352516923463345,6.240348680031299
1667776747193691600,11.980691650390625,-8.715439401891826,24.05440145624876,8.488841892570257
1667776747203742700,11.99074267578125,-4.839509238171577,19.621431868529317,10.126507392299175
1667776747213793800,12.000793701171874,1.0822201399881393,16.199025809276105,10.76151443759799
1667776747223844900,12.010844970703126,9.146960933387279,11.43327154314518,8.103087840515375
1667776747233896700,12.020896728515625,11.928651506567,6.992786757490038,2.7004358930334447
1667776747243947800,12.03094775390625,8.51084329649806,5.206102078160643,-1.5441256307661533
1667776747253998800,12.040998779296874,7.350546302682161,4.6712727324038745,-4.9475920117497445
1667776747264049700,12.051049560546875,8.797528487035631,4.425547913286089,-6.064205346661805
1667776747274100500,12.0611005859375,10.872084936338663,3.945153922072053,-4.860433660517633
1667776747284152800,12.07115283203125,12.43524376887679,3.2518881645500657,-2.516083241984248
1667776747294203600,12.08120361328125,13.53028123179674,2.3017928410500286,-0.8977554799318314
1667776747304254700,12.091254638671876,13.934515527915954,0.25315526137948036,-0.5663242619559169
1667776747314305500,12.101305419921875,14.851293688225745,-2.3429916974008083,-1.078241810941696
1667776747324357600,12.111357666015625,16.36917896232009,-5.772493852394819,0.3493253327153623
1667776747334408700,12.12140869140625,14.920815552741288,-8.080223097756505,6.583051525866985
1667776747344459800,12.131459716796876,9.706839380204677,-7.643776384818554,12.969276995819806
1667776747354510600,12.141510498046875,4.81847726379782,-7.4424699686199425,15.482845040112734
1667776747364562700,12.151562744140625,2.2268854841038586,-8.727320978343487,14.898442392891644
1667776747374613800,12.16161376953125,1.309299806803465,-9.759750301659107,12.892085035067796
1667776747384664800,12.171664794921876,1.2281067937165497,-10.941195297443866,10.558778865379095
1667776747394715600,12.181715576171875,3.492629934558272,-13.015291728019713,8.263892150455712
1667776747404767700,12.191767822265625,7.110901680260897,-15.30377325207591,6.048544251671433
1667776747414818800,12.20181884765625,11.447246292483806,-17.336489039993285,3.4958538650408384
1667776747424870000,12.211869873046876,8.01594556363523,-12.345988445365428,-1.1469970749989151
1667776747434920400,12.22192041015625,-0.17889701599180696,-3.052224254861474,-4.124966591604053
1667776747444971500,12.231971435546875,-1.9284189626187085,-0.5359779312700033,-4.90880781532526
1667776747455023900,12.24202392578125,0.6439560754299164,0.5549643712908029,-5.432872605961561
1667776747465074400,12.252074462890626,-0.007668347237375564,2.5749177082687615,-4.953133863785863
1667776747475125500,12.26212548828125,-2.7260125250995157,10.164639262294768,-1.9592928243100642
1667776747485176600,12.272176513671875,-0.9413842668432741,26.819557074213026,2.5206103640198707
1667776747495228700,12.282228759765625,2.0912018791556357,40.86834896965026,3.353415232874453
1667776747505279500,12.292279541015626,4.308706079190969,44.55873493444919,1.2703452222481368
1667776747515330600,12.30233056640625,3.308692001789808,31.143034021556375,-0.5202502007842064
1667776747525381600,12.312381591796875,-0.003978402111679315,18.938361926329137,-2.7699042737960813
1667776747535433700,12.322433837890625,-2.7246368528321385,15.286442178046702,-3.3397903198868035
1667776747545484500,12.332484619140626,-4.635864442153275,15.308345382297038,-4.139483484995365
1667776747555535600,12.34253564453125,-5.612894826591014,16.186916853809354,-3.8644016384899613
1667776747565586700,12.352586669921875,-4.244037207664549,14.562392575204372,-1.7765797571614383
1667776747575638800,12.362638671875,-3.102693336121738,11.055426072257756,1.3830755293712018
1667776747585689600,12.372689697265624,-3.8835762945592402,7.73863727325201,3.2793443267524243
1667776747595740700,12.38274072265625,-6.093002402079105,4.239788610309362,2.6122104970917106
1667776747605791500,12.39279150390625,-8.028044582229851,0.9305120866298675,0.18620821578800678
1667776747615843800,12.40284375,-8.7987998221457,-1.6959733117908238,-1.4055769917756318
1667776747625894700,12.412894775390624,-9.16721344782114,-3.986256332311034,-2.526257137735188
1667776747635945500,12.422945556640625,-9.217138631463051,-6.206652162134647,-3.619555063511431
1667776747645996500,12.43299658203125,-9.08931129297316,-8.296475154152512,-4.973807818502188
1667776747656047600,12.443047607421875,-9.497842409503459,-10.433846663808822,-6.31953502947092
1667776747666099500,12.453099365234374,-11.013245803654193,-13.60290573850274,-7.9588488809287545
1667776747676150500,12.463150634765626,-12.557218289685249,-18.209294787585733,-10.581443117129803
1667776747686201600,12.47320166015625,-12.021152095609903,-22.21834104385376,-12.914286345481871
1667776747696252700,12.483252685546875,-9.60121744378209,-23.20114212064743,-13.34141285688877
1667776747706304500,12.493304443359374,-6.1250645967721935,-21.41073754401207,-9.887455475074052
1667776747716355600,12.50335546875,-3.207983848632872,-18.325543331962823,-5.375445083865523
1667776747726406700,12.51340673828125,-1.3124331363931296,-14.433054247629642,-3.335956733073294
1667776747736457500,12.52345751953125,1.214829378992319,-9.90519571442604,-1.3199360593691467
1667776747746509600,12.533509521484374,6.014007775819302,-5.411828064367175,2.1497353166669604
1667776747756560600,12.543560546875,14.32203366703391,-0.5651531723499298,8.544237032055854
1667776747766611500,12.553611572265625,20.94027224161625,7.289799280774593,14.284026884722708
1667776747776662500,12.56366259765625,15.91299586777687,14.415902037298679,10.818187341934442
1667776747786714600,12.573714599609374,10.085941573154926,16.78954489355087,7.31615654182434
1667776747796765400,12.583765380859376,8.928896859133243,11.892664831906556,9.279550371712446
1667776747806816500,12.59381640625,5.3229544336497785,2.503770288378,7.784592968741059
1667776747816867600,12.60386767578125,-6.452655213671922,-4.592857951858639,4.388972625082731
1667776747826919700,12.613919677734375,-18.41469227249026,-8.723617447650431,-2.45142898350507
1667776747836970500,12.623970458984376,-20.631913563930986,-13.221055123627185,-9.870035553717612
1667776747847021600,12.634021484375,-21.01165873095989,-14.60527076294422,-17.12728397949934
1667776747857072600,12.64407275390625,8.40033943325281,-7.685678421002626,-25.812089173674583
1667776747867123700,12.654123779296874,2.5177555591106415,-1.7069751827985047,-19.0790446547389
1667776747877175600,12.664175537109376,-13.483111484342812,3.9262878935605285,-12.469976059561967
1667776747887226600,12.6742265625,-6.031922202694416,11.26206274356842,-14.331727378052472
1667776747897277700,12.684277587890625,0.5720690892182291,15.941054087525606,-8.76084506228268
1667776747907328500,12.69432861328125,7.226565702748299,17.72373245382309,3.4522552540719507
1667776747917380600,12.704380615234374,0.3170563634037971,12.424700163030623,8.864934966832399
1667776747927431700,12.714431640625,-7.3197665490150445,8.705097456097603,5.875555582940578
1667776747937482500,12.724482421875,-12.196404617619514,8.05846660850048,4.86513789268583
1667776747947533600,12.734533447265624,-16.446081000214814,8.762653573009372,4.072726993539929
1667776747957585700,12.744585693359374,-15.955816772371529,11.71091476457119,4.2727252497494215
1667776747967636500,12.754636474609375,-12.159015090423821,14.973407325243949,6.329546720397472
1667776747977687600,12.7646875,-4.694098896718025,16.28982310153246,8.2127599291116
1667776747987738600,12.774738525390624,13.67482063563466,14.648261178886889,9.615768531703948
1667776747997790500,12.78479052734375,20.18688431608677,9.392425055742263,6.7420683678686615
1667776748007841500,12.794841552734376,12.731260851383208,5.539865830737352,-0.46258974671512837
