time,seconds_elapsed,z,y,x
1667776735252813300,0.039813232421875,-9.071111034893988,-3.699681031888723,-0.44462548934891816
1667776735262865400,0.049865478515625,-9.058411127796768,-3.7301118259876964,-0.44926717767491936
1667776735272916200,0.059916259765625,-9.051336659365893,-3.74531436355561,-0.4650865319669246
1667776735282967300,0.06996728515625,-9.051368808069824,-3.741901632502675,-0.49120899788010863
1667776735293018400,0.080018310546875,-9.058584146276116,-3.7191853583037853,-0.5292407319694757
1667776735303070200,0.0900703125,-9.071607293978333,-3.6805566447019573,-0.5743093424256891
1667776735313121300,0.100121337890625,-9.08727832584083,-3.63428063121736,-0.619484555061534
1667776735323172400,0.11017236328125,-9.101534230208397,-3.590861176207661,-0.6619450288459658
1667776735333223400,0.120223388671875,-9.11072466787994,-3.559505668479204,-0.7035636449787765
1667776735343275300,0.130275146484375,-9.11245835980475,-3.546177108089626,-0.7470723126418888
1667776735353326300,0.140326416015625,-9.105718822416662,-3.552810262493789,-0.7961218094278126
1667776735363377400,0.15037744140625,-9.091316203054784,-3.575893324178457,-0.855185335227847
1667776735373428200,0.16042822265625,-9.072291769111155,-3.6088214880511162,-0.9166877055473626
1667776735383480300,0.170480224609375,-9.05522080732286,-3.638548225533962,-0.9666050712089985
1667776735393531400,0.180531494140625,-9.048000792941451,-3.6507632717236875,-0.9879233151782304
1667776735403582200,0.190582275390625,-9.052955785000323,-3.6419358221456406,-0.9750266433998942
1667776735413633300,0.20063330078125,-9.068578301545976,-3.6163442847713827,-0.9237547213241457
1667776735423685400,0.210685302734375,-9.09244725291133,-3.577767885878682,-0.8350863308552652
1667776735433736400,0.220736328125,-9.121323803305625,-3.530150394657254,-0.7140542054634541
1667776735443787300,0.230787353515625,-9.152391141742468,-3.4760292206302283,-0.5668691824875771
1667776735453838300,0.24083837890625,-9.182590465173124,-3.4187715021431444,-0.4030131933590397
1667776735463890400,0.250890380859375,-9.209235895514487,-3.3617283031895755,-0.24319091672599313
1667776735473941200,0.260941162109375,-9.228604028329253,-3.3148855957329273,-0.12161714047184213
1667776735483992300,0.270992431640625,-9.235074101126193,-3.298548501177132,-0.058069774655485525
1667776735494043400,0.28104345703125,-9.22726605772376,-3.320597835899889,-0.0397239066937007
1667776735504095200,0.29109521484375,-9.205214969435334,-3.381205449336767,-0.04298293588911183
1667776735514146300,0.301146240234375,-9.170070590817927,-3.475309381923079,-0.04915383850981016
1667776735524197400,0.311197265625,-9.13604732518494,-3.563970538933575,-0.0336750915161334
1667776735534248400,0.32124853515625,-9.121972622603177,-3.5999808867305516,0.011721563584357499
1667776735544300300,0.33130029296875,-9.127911949524282,-3.584189443358779,0.07205487185819075
1667776735554351400,0.341351318359375,-9.144913353207707,-3.5382565442234277,0.1472565081763547
1667776735564402400,0.35140234375,-9.16471344769895,-3.4825884330153465,0.22358999806866048
1667776735574453200,0.361453369140625,-9.183741973295808,-3.4271225663810965,0.2899992104563862
1667776735584505300,0.37150537109375,-9.200562759715318,-3.3763904502704736,0.3464274193167686
1667776735594556400,0.381556396484375,-9.21577844902575,-3.3294995197579262,0.3927396366259083
1667776735604607200,0.391607177734375,-9.23107304879129,-3.2820775511085984,0.4308605833686888
1667776735614658300,0.401658203125,-9.245911721482873,-3.2360008595883842,0.4602108522219583
1667776735624710400,0.41171044921875,-9.258734378176927,-3.1965763194337486,0.4776231382612139
1667776735634761200,0.42176123046875,-9.268624488550424,-3.1675591915249823,0.4791173223417252
1667776735644812300,0.431812255859375,-9.27724793998897,-3.1450799409523604,0.45992432689815754
1667776735654863400,0.44186328125,-9.28774712217152,-3.1177871526181695,0.43305279618334025
1667776735664915200,0.451915283203125,-9.30246479883194,-3.077363956815004,0.4054161993801594
1667776735674966300,0.46196630859375,-9.320734030494094,-3.0255607043415305,0.3745419723626226
1667776735685017300,0.472017333984375,-9.339432301223278,-2.971732375781238,0.3379332933463156
1667776735695068400,0.482068359375,-9.356127999958396,-2.9232264112874864,0.29665075903376564
1667776735705120300,0.492120361328125,-9.369944343864917,-2.8823513800635934,0.2580204562630504
1667776735715171300,0.50217138671875,-9.381230292510987,-2.8480118880882856,0.22744988836720584
1667776735725222400,0.512222412109375,-9.390676750770211,-2.8186104370370506,0.20250351702868938
1667776735735273500,0.5222734375,-9.39798795056641,-2.7957307889699936,0.179156598509755
1667776735745325300,0.5323251953125,-9.402340300557016,-2.7824603885084387,0.1558796947534196
1667776735755376400,0.54237646484375,-9.403332234203814,-2.7804250832885504,0.1302366737870965
1667776735765427500,0.552427490234375,-9.401637120723723,-2.7872449924364684,0.1042505750041455
1667776735775478300,0.562478271484375,-9.398550845146179,-2.7987238333061337,0.06910124165040907
1667776735785530400,0.5725302734375,-9.395027931717038,-2.811315603853762,0.018503755087370517
1667776735795581400,0.58258154296875,-9.391363563990593,-2.823373121394217,-0.035174417562643064
1667776735805632300,0.59263232421875,-9.387105322024226,-2.8366134189784526,-0.07910132890413515
1667776735815683300,0.602683349609375,-9.382078433772921,-2.85247032880187,-0.10201334487083367
1667776735825735400,0.6127353515625,-9.376170671033858,-2.8719948212221262,-0.0972411346334964
1667776735835786200,0.6227861328125,-9.36884076653719,-2.8968434312745925,-0.0592290824921336
1667776735845837300,0.63283740234375,-9.35886297788024,-2.9294784574195742,0.01486968545942218
1667776735855888400,0.642888427734375,-9.344290847170353,-2.973125583705306,0.12304193084426224
1667776735865940200,0.652940185546875,-9.322975671941041,-3.0303017613887784,0.2641559450770728
1667776735875991300,0.6629912109375,-9.294898747491835,-3.0981112690284847,0.4206522008262574
1667776735886042400,0.67304248046875,-9.262824862360954,-3.1696532411947844,0.5689975728183985
1667776735896093400,0.683093505859375,-9.232369518342614,-3.231994546556473,0.6985328842699527
1667776735906145300,0.693145263671875,-9.212238584461808,-3.2659710504382846,0.7990450764633714
1667776735916196400,0.7031962890625,-9.206460001060366,-3.261240514785051,0.8807906088665127
1667776735926247400,0.713247314453125,-9.211230284202099,-3.2265055937513707,0.955659825759381
1667776735936298500,0.723298583984375,-9.221311533233523,-3.1824513479694723,1.0048908165920525
1667776735946350300,0.733350341796875,-9.233014830508827,-3.148607822817564,1.0040389490030706
1667776735956401400,0.7434013671875,-9.24501857203543,-3.1321351191833613,0.943264673762396
1667776735966452500,0.753452392578125,-9.258832577854394,-3.1233059160396457,0.8302778345949947
1667776735976503300,0.76350341796875,-9.275128463616968,-3.1088106499582526,0.691135394429788
1667776735986555400,0.773555419921875,-9.292768165203928,-3.0846184579879043,0.5476982527453452
1667776735996606500,0.7836064453125,-9.309802886635065,-3.055328650617599,0.40362851224578916
1667776736006657300,0.7936572265625,-9.324525239470601,-3.0256761474147438,0.2624871716146357
1667776736016708400,0.803708251953125,-9.336049673047661,-2.9982550565257666,0.13793047055955976
1667776736026760400,0.813760498046875,-9.343297159957885,-2.9783833581030366,0.049183105703489854
1667776736036811300,0.823811279296875,-9.345122621819376,-2.9730519339472052,0.005194818992758519
1667776736046862300,0.8338623046875,-9.33991570082605,-2.989374707716703,0.0011727162350787692
1667776736056913400,0.843913330078125,-9.325292132189869,-3.0345570807456967,0.027815168240480123
1667776736066965200,0.85396533203125,-9.301336087062955,-3.1068112928345797,0.057023206478310745
1667776736077016300,0.864016357421875,-9.272717895343899,-3.1911846895232796,0.05855674988825339
1667776736087067400,0.8740673828125,-9.24668036776781,-3.2663091963514685,0.022600653029163368
1667776736097118500,0.884118408203125,-9.227404589411616,-3.320126711256802,-0.04637881627194583
1667776736107170300,0.89417041015625,-9.216629512897134,-3.3473774140149355,-0.13854394454909488
1667776736117221400,0.904221435546875,-9.214592454111575,-3.3471380523011085,-0.24152532160133122
1667776736127272400,0.9142724609375,-9.219194979470968,-3.3256291080653666,-0.3420744482716545
1667776736137323300,0.9243232421875,-9.226208073103427,-3.2965871379762888,-0.4242447454255074
1667776736147375400,0.934375244140625,-9.230314339378475,-3.2777170178115367,-0.4777550575451925
1667776736157426400,0.944426513671875,-9.22547683621943,-3.287436447793245,-0.5037079025125131
1667776736167477200,0.954477294921875,-9.207937087875605,-3.335473333470523,-0.5088225055798888
1667776736177528300,0.9645283203125,-9.178028271824122,-3.417947326278686,-0.501814563046582
1667776736187580400,0.974580322265625,-9.139715200042724,-3.5203862487509845,-0.492822059099935
1667776736197631200,0.98463134765625,-9.099260440057515,-3.624316871085763,-0.48802660498432815
1667776736207682300,0.994682373046875,-9.065469229614735,-3.7092405951336023,-0.47873672552630303
1667776736217733400,1.0047333984375,-9.041047905063628,-3.7707629853278397,-0.4595502694213763
1667776736227785500,1.014785400390625,-9.026024523454904,-3.809606802985072,-0.43376996800936757
1667776736237836300,1.024836181640625,-9.020107992887496,-3.826805482806265,-0.4044698949733749
1667776736247887400,1.034887451171875,-9.021803106367587,-3.825765033842623,-0.37546248474102467
1667776736257938400,1.0449384765625,-9.03022898940742,-3.807748607897758,-0.3555267081061378
1667776736267990300,1.054990234375,-9.045397916966676,-3.771678054346144,-0.3544130112431943
1667776736278041300,1.065041259765625,-9.065534111544489,-3.7207401865303513,-0.3775867103533819
1667776736288092400,1.075092529296875,-9.087155576243996,-3.6629029145896435,-0.4208685469906777
1667776736298143500,1.0851435546875,-9.109664929693936,-3.600207973484695,-0.47211825723461803
1667776736308195300,1.0951953125,-9.136343677783012,-3.5266266044452785,-0.5104044410090893
1667776736318246400,1.105246337890625,-9.169184455633163,-3.438636770825088,-0.521747599735111
1667776736328297500,1.11529736328125,-9.206277045708894,-3.3391052602320905,-0.5149981985401362
1667776736338348300,1.125348388671875,-9.247366011944413,-3.227160842789709,-0.4919784113500267
1667776736348400400,1.135400390625,-9.292880977928638,-3.0997634201496838,-0.4518946766342967
1667776736358451500,1.145451416015625,-9.339923884132505,-2.9616432357043028,-0.4060552644686773
1667776736368502300,1.155502197265625,-9.385613037639855,-2.8197818189039823,-0.3598386895537376
1667776736378553300,1.16555322265625,-9.426842873650788,-2.684341959583759,-0.31515951680652793
1667776736388605400,1.17560546875,-9.461431956472993,-2.5648583788082,-0.2705356179105118
1667776736398656300,1.18565625,-9.488052252373098,-2.469104048666358,-0.22534159097634254
1667776736408707300,1.195707275390625,-9.505764434674381,-2.403573738005012,-0.18346280780369414
1667776736418758400,1.20575830078125,-9.514325342270732,-2.3721909038782116,-0.14390864992002025
1667776736428810200,1.215810302734375,-9.514455106130242,-2.3739644894219936,-0.09912284759371541
1667776736438861300,1.225861328125,-9.507494619467854,-2.40336842469126,-0.04182244530895259
1667776736448912400,1.235912353515625,-9.494553304830193,-2.4541338585495946,0.03265043149337871
1667776736458963500,1.24596337890625,-9.476681548053026,-2.519514677737653,0.12223054139614105
1667776736469015300,1.256015380859375,-9.455413719096779,-2.5912851979628204,0.22535061453301458
1667776736479066400,1.26606640625,-9.432785707703232,-2.6604119256809353,0.3393345749789849
1667776736489117400,1.276117431640625,-9.411097607508301,-2.718843071861565,0.4577317852899432
1667776736499168500,1.28616845703125,-9.392103568702936,-2.7626696463674305,0.5713390579106286
1667776736509220400,1.296220458984375,-9.377014720642567,-2.792562972588837,0.6660089172840118
1667776736519271400,1.306271484375,-9.36729178352952,-2.8107100391760467,0.723972372887656
1667776736529322500,1.316322509765625,-9.364148809328675,-2.8179356065154075,0.7364383981637657
1667776736539373300,1.326373291015625,-9.36762496100664,-2.8149700347080824,0.7027988711513579
1667776736549425400,1.33642529296875,-9.377027580124139,-2.801142584885657,0.6287595292113721
1667776736559476500,1.3464765625,-9.39127530118525,-2.775328636932373,0.521419390694052
1667776736569527300,1.35652734375,-9.40794586547911,-2.738296837133169,0.40332309955842793
1667776736579578400,1.366578369140625,-9.424854330182075,-2.691432794627547,0.3141513261446729
1667776736589630500,1.37663037109375,-9.440689612695575,-2.6407190909564493,0.26525915707862
1667776736599681300,1.386681396484375,-9.454320078641176,-2.5928464559301734,0.2517103780671023
1667776736609732400,1.396732421875,-9.46580067307651,-2.549132694149017,0.2663215256131254
1667776736619783400,1.406783447265625,-9.47568318466544,-2.5078745088264345,0.30393753677476193
1667776736629835300,1.416835205078125,-9.484462703448534,-2.467602704192698,0.35536910639163105
1667776736639886300,1.42688623046875,-9.492696278786658,-2.4267260655336083,0.4124367091340944
1667776736649937400,1.4369375,-9.501087675034999,-2.3855101119175552,0.45722909646481275
1667776736659988500,1.446988525390625,-9.508979889589547,-2.3530042651101946,0.46158338268417864
1667776736670040300,1.457040283203125,-9.515119707518815,-2.333545093011111,0.43295024912431834
1667776736680091400,1.46709130859375,-9.522432660880684,-2.3112875223651526,0.38937326546534895
1667776736690142500,1.477142578125,-9.53353857678473,-2.274114852790534,0.33230935251731425
1667776736700193300,1.487193359375,-9.54860813562274,-2.220057245519012,0.2565318251404911
1667776736710245400,1.497245361328125,-9.5663612344563,-2.150751946363598,0.1714171816304326
1667776736720296400,1.50729638671875,-9.584561492535471,-2.0731943671695885,0.09179021228384227
1667776736730347500,1.517347412109375,-9.601339024335145,-1.9959835555866359,0.0268749031321262
1667776736740398300,1.5273984375,-9.616392216560245,-1.9221321374341844,-0.02814253931461135
1667776736750450400,1.537450439453125,-9.629369771555066,-1.8545964782997966,-0.07805745500754564
1667776736760501500,1.54750146484375,-9.639852587124706,-1.7968275954201816,-0.12264248319789767
1667776736770552300,1.55755224609375,-9.647015318360925,-1.7544497584179042,-0.1654933445394039
1667776736780604400,1.5676044921875,-9.649983520516752,-1.7330508504278956,-0.21151828760607166
1667776736790655500,1.577655517578125,-9.649562664756179,-1.7285149605639278,-0.26183835231708363
1667776736800706300,1.587706298828125,-9.647903791633247,-1.7294940347291528,-0.3117400637518614
1667776736810757400,1.59775732421875,-9.64678034056127,-1.727636131902784,-0.35395430769026276
1667776736820808400,1.607808349609375,-9.646218030503391,-1.7250317946232854,-0.38095436015557493
1667776736830860300,1.6178603515625,-9.645703651240467,-1.7256313679516315,-0.39113592775631695
1667776736840911400,1.627911376953125,-9.645350015497208,-1.727866579657793,-0.389974921152927
1667776736850962400,1.63796240234375,-9.64598071461618,-1.7259869033910333,-0.38264256897084414
1667776736861013500,1.648013427734375,-9.648091423159837,-1.715878327961266,-0.374810706301406
1667776736871065300,1.6580654296875,-9.65131096972823,-1.697762387164682,-0.3744164828194305
1667776736881116400,1.668116455078125,-9.655281042402983,-1.672845972573012,-0.38408809160403906
1667776736891167500,1.67816748046875,-9.659909871247411,-1.6423904824241995,-0.3988524569503963
1667776736901219300,1.68821923828125,-9.66526350723505,-1.6062515398114918,-0.4159557866383344
1667776736911270400,1.6982705078125,-9.671613753044605,-1.562394716297835,-0.4349658997956663
1667776736921321500,1.708321533203125,-9.6789705455482,-1.5111713095389305,-0.4519732582958415
1667776736931372300,1.718372314453125,-9.686930564641951,-1.4561673613280057,-0.46188934336081144
1667776736941423400,1.72842333984375,-9.694516489726304,-1.4046790200226007,-0.46217499190177763
1667776736951475500,1.738475341796875,-9.700583242419361,-1.3650873066075147,-0.45343781442306935
1667776736961526300,1.7485263671875,-9.70440893818736,-1.342922528811544,-0.4374846046183258
1667776736971577300,1.758577392578125,-9.705718267220258,-1.340226859986782,-0.41618250806629653
1667776736981629400,1.76862939453125,-9.704867787870764,-1.354124014044553,-0.3902256810436025
1667776736991680300,1.77868017578125,-9.702480015951394,-1.3787499212570489,-0.362376756663993
1667776737001731300,1.7887314453125,-9.699462129434943,-1.4063916691593825,-0.3359758026029914
1667776737011782400,1.798782470703125,-9.69683704162836,-1.4301663663700221,-0.310420176792331
1667776737021834500,1.80883447265625,-9.69515829476118,-1.4470719084635375,-0.2833332314948551
1667776737031885300,1.81888525390625,-9.694442255446313,-1.4580258486762643,-0.24965717186434194
1667776737041936400,1.828936279296875,-9.69439490917325,-1.4654006152279675,-0.2041937899368815
1667776737051987500,1.838987548828125,-9.694326520112156,-1.4729456237800418,-0.14440746628763154
1667776737062039300,1.849039306640625,-9.693027712473272,-1.4867337645053862,-0.07226808991718571
1667776737072090400,1.85909033203125,-9.689071083801984,-1.5140214382730424,0.004387895371789637
1667776737082141400,1.869141357421875,-9.681669867634772,-1.5587890930213033,0.07632722911487799
1667776737092192500,1.879192626953125,-9.6713249992311,-1.6175442104592919,0.13929682700932025
1667776737102244600,1.88924462890625,-9.659136548787355,-1.6833115447469054,0.19475507659269495
1667776737112295700,1.899295654296875,-9.64674059307277,-1.7466596890635788,0.2448594344601035
1667776737122346800,1.9093466796875,-9.63605611745119,-1.7981652737647293,0.2888112793134525
1667776737132397300,1.919397216796875,-9.628331076157092,-1.8327654625028371,0.32648356897328046
1667776737142449700,1.92944970703125,-9.6240628973186,-1.8486735179916023,0.36083665108252316
1667776737152500700,1.939500732421875,-9.622241527110338,-1.8511058597050607,0.3952903805546462
1667776737162551600,1.949551513671875,-9.620606034862995,-1.8511786326803266,0.4329623414209112
1667776737172602400,1.959602294921875,-9.616993689584731,-1.859523851699382,0.4753817525425926
1667776737182654700,1.96965478515625,-9.610340661436318,-1.881548198111355,0.5210685314297676
1667776737192705500,1.97970556640625,-9.600833997422455,-1.9159118016146122,0.5689042319791391
1667776737202756600,1.989756591796875,-9.588855974859,-1.9592692973040042,0.620879516551271
1667776737212807400,1.999807373046875,-9.574895838567613,-2.0074521673232315,0.6796253547042608
1667776737222859500,2.009859619140625,-9.559719312223791,-2.055001269483566,0.7477434899017215
1667776737232910600,2.01991064453125,-9.54366424947977,-2.09839748974815,0.8279979800295084
1667776737242961700,2.029961669921875,-9.526539511677623,-2.137958954155445,0.9189999280124902
1667776737253012500,2.040012451171875,-9.508610471755265,-2.1735713886760175,1.0160232551768422
1667776737263064600,2.050064697265625,-9.491098780462146,-2.203071770057082,1.111710511431843
1667776737273115600,2.06011572265625,-9.47590881011486,-2.2241306324377654,1.1961520049206913
1667776737283166700,2.070166748046875,-9.463751339331269,-2.2379924229212103,1.2645906042441726
1667776737293217500,2.080217529296875,-9.45395884411335,-2.249101699826121,1.3170372691877186
1667776737303269600,2.09026953125,-9.44569545815885,-2.2615935171306134,1.3544079455524682
1667776737313320700,2.10032080078125,-9.438024192878604,-2.277227577983588,1.3814181175529956
1667776737323371800,2.110371826171875,-9.430050145259498,-2.2957260883569717,1.4050550137281417
1667776737333422300,2.12042236328125,-9.420687273630499,-2.3164104183368384,1.4336249823912977
1667776737343474700,2.130474609375,-9.408203055110572,-2.3393729223817585,1.4776456181645392
1667776737353525800,2.14052587890625,-9.391382268691062,-2.3634651611089703,1.5447849714577198
1667776737363576600,2.15057666015625,-9.37072351154387,-2.384500204222649,1.6352612150661647
1667776737373627400,2.16062744140625,-9.347583458974958,-2.3970919747702775,1.745571601565927
1667776737383679700,2.1706796875,-9.321716611790656,-2.4003926237508653,1.8745919492326675
1667776737393730600,2.18073046875,-9.291090002858638,-2.39745598577708,2.024410608647764
1667776737403781400,2.190781494140625,-9.253284880599379,-2.3927082067281007,2.195915760822594
1667776737413832400,2.20083251953125,-9.207852916723489,-2.387739916796237,2.3842241637602446
1667776737423884500,2.210884521484375,-9.157107064348459,-2.3774334807068107,2.5817788262099026
1667776737433935600,2.220935546875,-9.105533528977633,-2.352805527667701,2.779199925407767
1667776737443986400,2.230986328125,-9.05688026496768,-2.3088586877830326,2.968581802795827
1667776737454037500,2.24103759765625,-9.012292935222387,-2.2440401786528525,3.1485300814062356
1667776737464089600,2.251089599609375,-8.97110986096263,-2.1595595221973953,3.32052243257612
1667776737474140700,2.261140625,-8.930215540516375,-2.059344851645827,3.4900910637304183
1667776737484191500,2.27119140625,-8.888010721993446,-1.9394718331612646,3.6622535107702014
1667776737494242300,2.2812421875,-8.846934615239501,-1.796330751813948,3.8308392683669923
1667776737504294700,2.291294677734375,-8.808668889731168,-1.6294596891805528,3.9903129142254588
1667776737514345700,2.301345703125,-8.775815836921334,-1.4428531217247247,4.13202352437824
1667776737524396500,2.311396484375,-8.747907254776358,-1.2508357812665403,4.252048080162703
1667776737534447400,2.321447265625,-8.72021026955545,-1.0726314237140118,4.3563489971145986
1667776737544499700,2.331499755859375,-8.685234233242273,-0.9267729731667786,4.458495658642053
1667776737554550500,2.341550537109375,-8.63441823824048,-0.8266546025965362,4.575351521262526
1667776737564601300,2.351601318359375,-8.561176476418972,-0.7750749297458678,4.719735442277789
1667776737574652400,2.36165234375,-8.461867376405,-0.7651249789439142,4.897117962053418
1667776737584704500,2.37170458984375,-8.336748127830027,-0.7860898063655942,5.104025266999006
1667776737594755600,2.381755615234375,-8.19084678798914,-0.8248712263111024,5.3291649787276985
1667776737604806400,2.391806396484375,-8.035687205937505,-0.8651300253327936,5.554247407311201
1667776737614857500,2.401857421875,-7.888517453595996,-0.8934122630957514,5.757037924587726
1667776737624909600,2.41190966796875,-7.764329932913184,-0.9005429186932742,5.922380462479591
1667776737634960600,2.421960693359375,-7.668589923557638,-0.878339416322112,6.049102470076083
1667776737645011500,2.432011474609375,-7.598342082855105,-0.8213359648570417,6.144997377732396
1667776737655062500,2.4420625,-7.545746803221106,-0.7329699183356017,6.220517605879903
1667776737665114600,2.452114501953125,-7.49247406271696,-0.621363646806404,6.29659605243206
1667776737675165400,2.46216552734375,-7.413911982655525,-0.4957220183251425,6.399886915558576
1667776737685216500,2.472216552734375,-7.290375619357824,-0.3687409944662824,6.548651828137039
1667776737695267300,2.482267333984375,-7.107444817805289,-0.2531032389312982,6.752077136185765
1667776737705319700,2.492319580078125,-6.8537184785395855,-0.15129103352259843,7.0124202632427215
1667776737715370500,2.50237060546875,-6.5205725656002755,-0.058456289755040775,7.324554367813468
1667776737725421300,2.51242138671875,-6.098981476488709,0.033429526107094716,7.679302456229925
1667776737735472400,2.522472412109375,-5.581913997393846,0.1434195877614431,8.061765065523982
1667776737745524700,2.532524658203125,-4.972167065557837,0.2861086144923232,8.44784528079331
1667776737755575300,2.5425751953125,-4.289625238884986,0.4720823091384023,8.806056661406158
1667776737765626400,2.55262646484375,-3.5717262676268815,0.7052320896476507,9.105811761397122
1667776737775677400,2.562677490234375,-2.858662461440265,0.9814470318362116,9.329265711995959
1667776737785729500,2.5727294921875,-2.181406904607266,1.2920365373134612,9.473250989082455
1667776737795780400,2.5827802734375,-1.5584483167596161,1.6282811469204723,9.544126021772623
1667776737805831400,2.59283154296875,-0.9957692063730209,1.9834623660571873,9.552209959506987
1667776737815882500,2.602882568359375,-0.5011648669661953,2.3493112558111546,9.507889171743392
1667776737825934600,2.6129345703125,-0.08089366481415927,2.7162308435365556,9.422629055348038
1667776737835985400,2.6229853515625,0.2648923330602236,3.0733664116114374,9.308846024301648
1667776737846036500,2.633036376953125,0.543108879128471,3.4089185089096423,9.179034818518161
1667776737856087600,2.643087646484375,0.7632054821234195,3.718251000063121,9.042261957028508
1667776737866139600,2.6531396484375,0.9337002151466905,3.997173739905655,8.90624429782033
1667776737876190500,2.6631904296875,1.0617329400155693,4.241521425451338,8.777963370344041
1667776737886241500,2.673241455078125,1.1521606683071701,4.451291426351666,8.661922331237793
1667776737896292400,2.683292236328125,1.206518208373338,4.628888173399865,8.560845052507519
1667776737906344400,2.693344482421875,1.2289791926369071,4.7770460599958895,8.475839203134178
1667776737916395500,2.7033955078125,1.2292694077551365,4.897157709541917,8.406967911481857
1667776737926446300,2.7134462890625,1.2209938929714261,4.987399706003069,8.354962414434551
1667776737936497400,2.723497314453125,1.219552096665278,5.04251018332839,8.32202928212583
1667776737946549500,2.733549560546875,1.2584440643131731,5.04172517043054,8.31671305553913
1667776737956600300,2.743600341796875,1.3271123807393013,4.9844946322113275,8.340499589318037
1667776737966651400,2.7536513671875,1.3690024342246352,4.907662736943363,8.379202537199854
1667776737976702500,2.763702392578125,1.3871341571122406,4.823596798768639,8.424912148973345
1667776737986754300,2.77375439453125,1.3962540137656032,4.735874676173925,8.473037005195021
1667776737996805400,2.783805419921875,1.4038875773839652,4.6502378354206675,8.519083301576972
1667776738006856400,2.7938564453125,1.4186561074487865,4.569813176357746,8.560058870565891
1667776738016907500,2.803907470703125,1.445796627830714,4.487056274954974,8.59920897769332
1667776738026959400,2.81395947265625,1.488669262612611,4.405166804036498,8.634160464087127
1667776738037010400,2.824010498046875,1.5472328030012548,4.33351874114722,8.660085763460398
1667776738047061500,2.8340615234375,1.6176147914774714,4.2720241157427425,8.67776053636074
1667776738057112600,2.844112548828125,1.7206778371974825,4.213837884233891,8.686381649711727
1667776738067164400,2.854164306640625,1.8704948891773818,4.15426312097609,8.684107859560847
1667776738077215500,2.864215576171875,2.040096545818448,4.091243185700476,8.675836290299891
1667776738087266600,2.8742666015625,2.1940109501145777,4.018512880532444,8.672270122250914
1667776738097317600,2.884317626953125,2.3201621720857917,3.9322006247356533,8.678997969201207
1667776738107370000,2.894369873046875,2.4190382875099776,3.835101309725642,8.695437647348642
1667776738117420800,2.9044208984375,2.4916411669060587,3.7352605870530007,8.718367272037268
1667776738127471600,2.9144716796875,2.544883804532885,3.641099079060554,8.742789765632152
1667776738137522700,2.924522705078125,2.5878134301990268,3.5649414297923445,8.76155408733487
1667776738147574800,2.93457470703125,2.6207532845094796,3.514243800473213,8.772235640347004
1667776738157625600,2.94462548828125,2.63869459939152,3.49579541285187,8.774228859990835
1667776738167676700,2.9546767578125,2.641368787036836,3.5209760313376783,8.763350907623767
1667776738177727700,2.964727783203125,2.6243855035319923,3.591322363978624,8.739873585924506
1667776738187779600,2.974779541015625,2.576110132923722,3.6986376603156326,8.70942817877829
1667776738197830700,2.98483056640625,2.4829136705711483,3.828883750385046,8.680158829674124
1667776738207881700,2.9948818359375,2.3491246471978724,3.9660347975373265,8.655782513308525
1667776738217932800,3.004932861328125,2.1892164093144237,4.105172634592652,8.632802035215496
1667776738227984600,3.014984619140625,2.0126891911938785,4.243523120662569,8.60883079251945
1667776738238035700,3.02503564453125,1.8258306948035954,4.377065037406981,8.583590552800894
1667776738248086800,3.035086669921875,1.6389979173764586,4.504619696435332,8.555259361329675
1667776738258137600,3.0451376953125,1.4676264745838938,4.62411467538774,8.522560622298718
1667776738268189700,3.055189697265625,1.3122608485661447,4.73482136772871,8.487038642540574
1667776738278240800,3.06524072265625,1.1652638955082744,4.839714697615802,8.44924170358777
1667776738288291600,3.07529150390625,1.0489000541884452,4.944313428470492,8.403808570668101
1667776738298342700,3.0853427734375,0.9584949761200696,5.045855402103066,8.354101998212933
1667776738308394800,3.095394775390625,0.8816548244804143,5.145381359738111,8.301692596539855
1667776738318445600,3.105445556640625,0.8053867736402899,5.244231610068678,8.24741038673222
1667776738328496600,3.11549658203125,0.7107941076889633,5.336100915470719,8.197024015319347
1667776738338547700,3.125547607421875,0.5645706232216209,5.407251257970929,8.161697265872359
1667776738348599600,3.135599609375,0.37800877169035374,5.463288202491403,8.135107949632406
1667776738358650600,3.145650634765625,0.20603021158380433,5.521049486586451,8.102219240987301
1667776738368701700,3.15570166015625,0.0684553175628418,5.580516405555605,8.063717368635535
1667776738378752800,3.165752685546875,-0.07497461349610239,5.629441472244262,8.029580705755949
1667776738388804600,3.1758046875,-0.26133118824623525,5.665653187832236,8.000153535741568
1667776738398855700,3.185855712890625,-0.48989126634504643,5.693175985530019,7.969826202017068
1667776738408906800,3.19590673828125,-0.7416966109529137,5.72271479922533,7.929111329790949
1667776738418957800,3.205957763671875,-0.9682705932684242,5.771020857232808,7.869443919813633
1667776738429009700,3.216009765625,-1.142526943847537,5.852120931339264,7.7857357090353965
1667776738439060700,3.226060791015625,-1.2508745058417319,5.955106674039364,7.6904083721339696
1667776738449111800,3.23611181640625,-1.2970157870307564,6.060770696038007,7.599684729635715
1667776738459162600,3.24616259765625,-1.311284989271313,6.165180334061384,7.512754049679637
1667776738469214700,3.256214599609375,-1.3380087455458938,6.260576644545793,7.428682266286015
1667776738479265800,3.266265869140625,-1.3900984137453138,6.339188993489742,7.352053200113773
1667776738489316600,3.276316650390625,-1.4594519359566271,6.397416141530871,7.2878978310674425
1667776738499367700,3.28636767578125,-1.5406246369078755,6.436040763479471,7.237004679176211
1667776738509419800,3.296419677734375,-1.6276314508400858,6.466142471754551,7.190980594626069
1667776738519470600,3.306470703125,-1.7112622124679386,6.502854538080096,7.138266657048463
1667776738529521700,3.316521728515625,-1.783127425239235,6.546638734748959,7.0804212018012995
1667776738539572700,3.32657275390625,-1.843981560783088,6.587808365005254,7.026444112420082
1667776738549624600,3.33662451171875,-1.9034741987153887,6.625615240830182,6.974839597389102
1667776738559675600,3.346675537109375,-1.9535227164760232,6.668071988287568,6.920329424044489
1667776738569726700,3.356726806640625,-1.9713329523243008,6.721348820444941,6.8635033749729395
1667776738579777800,3.36677783203125,-1.9459208631701765,6.785373256587982,6.8075324814260005
1667776738589829600,3.37682958984375,-1.887169837385416,6.8469935541987414,6.762223267146944
1667776738599880700,3.386880615234375,-1.8156883632346987,6.896507818952203,6.731406104078888
1667776738609931800,3.396931884765625,-1.7475582453384995,6.936577963533997,6.708229226630926
1667776738619982600,3.406982666015625,-1.6760061901696026,6.977094682839512,6.684426910760998
1667776738630034700,3.41703466796875,-1.5747117615573107,7.026251804718375,6.657513184872269
1667776738640085800,3.427085693359375,-1.4233692535758018,7.082795529717207,6.631621787768602
1667776738650136800,3.43713671875,-1.2188006937760858,7.1363359812468286,6.61495297704041
1667776738660187600,3.447187744140625,-0.9679789168454707,7.177946341007948,6.611390900644659
1667776738670239700,3.45723974609375,-0.6810436970695852,7.207630700653791,6.6148799118041985
1667776738680290800,3.467290771484375,-0.3772679997930303,7.229817982542515,6.614968174609541
1667776738690341600,3.477341552734375,-0.05825731941710691,7.258802084964513,6.593693331390619
1667776738700392700,3.487392822265625,0.27962338065886866,7.300091542208194,6.542234362310171
1667776738710444800,3.49744482421875,0.6159414025619626,7.341611301076412,6.472383996492624
1667776738720495600,3.50749560546875,0.9267022460181266,7.3667749684274195,6.406422454807162
1667776738730546700,3.517546630859375,1.209352189690247,7.368934192287922,6.356623527893424
1667776738740597800,3.52759765625,1.470000510238856,7.353654790091515,6.3192772553175685
1667776738750649600,3.537649658203125,1.7190769778721033,7.325736855596303,6.2887786566793915
1667776738760700700,3.54770068359375,1.960524119670689,7.2854732342690225,6.264869957825542
1667776738770751700,3.557751708984375,2.198009079840034,7.233160278707742,6.246643396261334
1667776738780802800,3.567802734375,2.4388940577112135,7.175458615845441,6.223745335754752
1667776738790854700,3.577854736328125,2.685660348705947,7.120757888364792,6.1848582634776825
1667776738800905700,3.58790576171875,2.9366537558764216,7.076618302386999,6.121105630013346
1667776738810956800,3.597956787109375,3.181927908617258,7.042485146638751,6.037311494517326
1667776738821007600,3.608007568359375,3.4234614135250445,7.009473688396811,5.942862109494209
1667776738831059700,3.618059814453125,3.6569045509576794,6.9704586058259,5.848942885825037
1667776738841110800,3.62811083984375,3.8658302099883555,6.9205515423625705,5.773364205488562
1667776738851161600,3.63816162109375,4.045672105614841,6.854979292255639,5.728193522897362
1667776738861212700,3.648212646484375,4.204320698826015,6.771300892093778,5.713454218927025
1667776738871264800,3.6582646484375,4.349408091935516,6.670083328109979,5.723897871530055
1667776738881315600,3.668315673828125,4.4822775162458415,6.555689471688866,5.753477017235755
1667776738891366700,3.67836669921875,4.600589422893524,6.439215886384249,5.79149665902853
1667776738901417700,3.688417724609375,4.706951364028454,6.336189227151871,5.819599302440881
1667776738911469800,3.6984697265625,4.812609248547256,6.260720436930656,5.814854738262295
1667776738921520600,3.708520751953125,4.919294138026237,6.217697872284054,5.771581998246908
1667776738931571700,3.71857177734375,5.021677238658071,6.205609959605336,5.695922069367766
1667776738941622800,3.728622802734375,5.114142171865701,6.2220321020960805,5.594838945418596
1667776738951674600,3.738674560546875,5.191019659841061,6.262661049604415,5.477477471363544
1667776738961725700,3.7487255859375,5.245602898421883,6.321435310134292,5.356628155192732
1667776738971776800,3.75877685546875,5.277375170257687,6.396034916305542,5.23550002208054
1667776738981827800,3.768827880859375,5.287670938822627,6.487808944639563,5.110699337935447
1667776738991879700,3.778879638671875,5.273127449685335,6.601767916774749,4.978071321165562
1667776739001930800,3.7889306640625,5.222638786941767,6.7482432571113105,4.832768239478766
1667776739011981800,3.79898193359375,5.127953255075216,6.930133025178312,4.674157055668533
1667776739022032600,3.80903271484375,4.990190213504433,7.141396771767735,4.502089301174879
1667776739032084700,3.819084716796875,4.813929391235113,7.369585934194922,4.322695149315893
1667776739042135800,3.8291357421875,4.614708256877958,7.604100207990408,4.129472378590703
1667776739052186600,3.8391865234375,4.406181241776049,7.8379843671888105,3.914323022739589
1667776739062237700,3.84923779296875,4.1876247078299516,8.064911546856164,3.686646486009657
1667776739072289800,3.859289794921875,3.9604996675029396,8.2726266610533,3.47109322553277
1667776739082340600,3.869340576171875,3.74234849948734,8.448820263305306,3.2836978457868096
1667776739092391700,3.8793916015625,3.6294483887553213,8.563145146143436,3.109662006090581
1667776739102443300,3.889443359375,3.7545541933268307,8.57128987415433,2.933712441727519
1667776739112494300,3.899494384765625,4.118697594337165,8.454452131712436,2.7800910290285943
1667776739122545200,3.909545166015625,4.510098712368309,8.274082120558619,2.7145827840685843
1667776739132596200,3.91959619140625,4.706402790234983,8.140237713736296,2.78508781440258
1667776739142647300,3.929647216796875,4.721594221886992,8.081897752970457,2.925729918541014
1667776739152699100,3.93969921875,4.597867012192308,8.098972221890092,3.0719083217576144
1667776739162750200,3.949750244140625,4.37242334908098,8.186376949098706,3.167891492219269
1667776739172801300,3.95980126953125,4.147377453115582,8.298425119176507,3.1789620445489883
1667776739182853000,3.96985302734375,4.022185431565344,8.38579535959363,3.109794400298595
1667776739192904200,3.979904296875,4.012035501211882,8.439298986244202,2.9752675641700623
1667776739202955300,3.989955322265625,4.050289244021475,8.482848205113411,2.794069577759504
1667776739213006300,4.00000634765625,4.080917021997273,8.531278766283393,2.5949475198626515
1667776739223058200,4.01005810546875,4.1128740027502175,8.571745801228284,2.404126549582183
1667776739233109200,4.020109130859375,4.159721094121038,8.59463918555975,2.235917662473768
1667776739243160300,4.030160400390625,4.18753469145894,8.615906429994105,2.0978730274826285
1667776739253211100,4.040211181640625,4.127149488601089,8.664269771146774,2.016788589336723
1667776739263263200,4.05026318359375,3.9619276544794437,8.74581408188939,1.9960633428245782
1667776739273314300,4.060314208984375,3.737072897171974,8.842236228290199,2.004878663573414
1667776739283365400,4.070365478515625,3.4985990720957516,8.935930995553731,2.019730341877043
1667776739293416200,4.080416259765625,3.2826217409878966,9.010801819881797,2.0494496267057953
1667776739303468300,4.09046826171875,3.109690939924121,9.05939721622467,2.1041743195839224
1667776739313519400,4.100519287109375,2.967054739359021,9.087484077546,2.1873779418408867
1667776739323570200,4.110570068359375,2.834886741316318,9.10162015492618,2.300933886133134
1667776739333621200,4.120621337890625,2.6942838001444933,9.10762553282082,2.4418038076780735
1667776739343673300,4.13067333984375,2.5235367728605866,9.11245777528286,2.601006381510198
1667776739353724200,4.14072412109375,2.312516918029636,9.121245477372407,2.7614427349209785
1667776739363775200,4.150775146484375,2.0619776843674478,9.142174868154525,2.8877815884187816
1667776739373826300,4.160826416015625,1.784761163920909,9.180789553231,2.9492537097305056
1667776739383878100,4.170878173828125,1.4842149135522544,9.247423295089602,2.907348750936985
1667776739393929200,4.18092919921875,1.188010345649719,9.324663771158455,2.7945801576301452
1667776739403980300,4.190980224609375,0.9307324513822793,9.387221641880274,2.680338276900351
1667776739414031400,4.20103125,0.7161326922379434,9.424968896472453,2.612949917282164
1667776739424083200,4.211083251953125,0.514256842120923,9.439703524267673,2.607282685300708
1667776739434134300,4.22113427734375,0.2970084498976357,9.436918277463317,2.650801801292598
1667776739444185300,4.231185302734375,0.04963421503843274,9.430412548831105,2.689840557000041
1667776739454236200,4.241236083984375,-0.22030286615677178,9.452964572378992,2.6006346255883575
1667776739464288300,4.251288330078125,-0.4657673538379371,9.51650970057249,2.3215225006535647
1667776739474339300,4.26133935546875,-0.6847282308012247,9.566552373114227,2.0451425771616396
1667776739484390100,4.27139013671875,-0.8885268291417509,9.596896073451637,1.8112132636472582
1667776739494441200,4.281441162109375,-1.0718189382873475,9.61994435608387,1.5742527657434344
1667776739504492300,4.2914921875,-1.2316967810325323,9.63506710641384,1.3486344767175613
1667776739514544000,4.301544189453125,-1.3627850210145116,9.645859134063125,1.1272037025094033
1667776739524595200,4.31159521484375,-1.4717200275078415,9.65222633100748,0.9159314072873442
1667776739534646300,4.321646240234375,-1.5772117616795003,9.651354224348069,0.7308672469679266
1667776739544698000,4.331697998046875,-1.6963139419220388,9.64174468448162,0.5741709203356876
1667776739554749200,4.341749267578125,-1.8287442441627382,9.624312488165497,0.44574587168097496
1667776739564800300,4.35180029296875,-1.9630875404179096,9.601806641846895,0.34926688052639365
1667776739574851300,4.361851318359375,-2.09463930625841,9.576331424328684,0.27704613231569525
1667776739584903200,4.371903076171875,-2.221518696373701,9.549176290899515,0.22019286644365638
1667776739594954200,4.381954345703125,-2.3394898267596957,9.521884963870049,0.1757275921754539
1667776739605005300,4.39200537109375,-2.448746612553298,9.494927398839593,0.14275712353102862
1667776739615056400,4.402056396484375,-2.5521938352853057,9.467930670842527,0.12241128652421757
1667776739625107200,4.412107177734375,-2.646941326472163,9.441976145374774,0.11472633977849035
1667776739635159300,4.4221591796875,-2.729754926498234,9.418439786964655,0.10873149241101927
1667776739645210400,4.43221044921875,-2.8015365526393055,9.397491106960176,0.09459087585303932
1667776739655261200,4.44226123046875,-2.8654449611872432,9.378308852106333,0.08328809480317868
1667776739665313300,4.452313232421875,-2.929618158151209,9.358308266606926,0.09902370720133184
1667776739675364400,4.4623642578125,-2.9965006140738724,9.336510276296734,0.14472551926085725
1667776739685415200,4.472415283203125,-3.0574966423064467,9.315969008049368,0.186544809064921
1667776739695466200,4.48246630859375,-3.1046406707972287,9.30011209822595,0.19881786905219778
1667776739705517300,4.492517333984375,-3.131666332627833,9.2914208422482,0.1804465835213661
1667776739715569200,4.502569091796875,-3.137606244070828,9.289806977310777,0.15910579892676321
1667776739725620200,4.5126201171875,-3.1331343593537806,9.29130861404538,0.15949507223898543
1667776739735671300,4.52267138671875,-3.1249709266424177,9.293781141638755,0.1748422789745964
1667776739745722400,4.532722412109375,-3.0977006424009796,9.302602161476015,0.1903041798647493
1667776739755774200,4.542774169921875,-3.030159138047695,9.324309550893306,0.2139612785777077
1667776739765825300,4.5528251953125,-2.916514930950105,9.359591876676678,0.24974784582247955
1667776739775876400,4.56287646484375,-2.7624887368425726,9.404854913726448,0.296256499019172
1667776739785927200,4.57292724609375,-2.567167532533407,9.45802477837801,0.35470669696014373
1667776739795979300,4.582979248046875,-2.3308606762327253,9.515916410854459,0.42988775628115977
1667776739806030300,4.5930302734375,-2.051707050243765,9.575659808677434,0.5173230978237465
1667776739816081400,4.603081298828125,-1.723286704521626,9.634835051223636,0.6087887908609584
1667776739826132200,4.61313232421875,-1.3619896328531205,9.685098673039674,0.7171130815774202
1667776739836184300,4.623184326171875,-1.0106457268569617,9.718327573424578,0.838517985804379
1667776739846235400,4.6332353515625,-0.6872446706015616,9.734169285678863,0.9716152275212109
1667776739856286200,4.6432861328125,-0.3882774695852771,9.736381116509436,1.1056749575946478
1667776739866337300,4.653337158203125,-0.10143292376752942,9.727261990508437,1.241153906816244
1667776739876389400,4.663389404296875,0.18203986232848837,9.708229957780242,1.3738755932189524
1667776739886440200,4.673440185546875,0.47020456910040226,9.68016355472505,1.4979109920799731
1667776739896491300,4.6834912109375,0.7732393118165433,9.641810150933265,1.6149216068707406
1667776739906542300,4.693542236328125,1.0924531455151736,9.590992402365803,1.729100359236449
1667776739916594200,4.70359423828125,1.416292300926894,9.527658286574482,1.8407132066369056
1667776739926645200,4.713645263671875,1.7242403519846499,9.455437684494257,1.9473317528814076
1667776739936696300,4.7236962890625,2.001358818884194,9.378925522699952,2.049563170082867
1667776739946747400,4.733747314453125,2.2455958836622534,9.301167160236835,2.1484791791260243
1667776739956799200,4.74379931640625,2.4659102210611104,9.222667624017596,2.243230761966109
1667776739966850300,4.753850341796875,2.6750238038793204,9.141622494968772,2.3335345716170965
1667776739976901400,4.7639013671875,2.88249780279696,9.056482205560803,2.4169682032376527
1667776739986952200,4.7739521484375,3.091460286706686,8.968344487902522,2.48637988537699
1667776739997004300,4.78400439453125,3.297878639091551,8.881001135492324,2.534205466391146
1667776740007055400,4.794055419921875,3.4969062967032194,8.797415089789032,2.558808869510889
1667776740017106200,4.804106201171875,3.684718440556526,8.718654272285104,2.5648227229729295
1667776740027157200,4.8141572265625,3.8569299874350427,8.64553233745098,2.559146138641238
1667776740037209300,4.824209228515625,4.013364411728084,8.579804019999504,2.5397321208581327
1667776740047260200,4.83426025390625,4.157092499183118,8.523360832765698,2.498249771390855
1667776740057311200,4.844311279296875,4.290210345296561,8.477286479333042,2.4290065776862204
1667776740067362300,4.8543623046875,4.41342492929399,8.44396288640201,2.3219757973790167
1667776740077413400,4.864413330078125,4.525805107805133,8.424502399128675,2.171464771785587
1667776740087465200,4.87446533203125,4.623684467276931,8.418036417984961,1.9820655048713087
1667776740097516300,4.884516357421875,4.700416117040812,8.42305687649548,1.7687834041967987
1667776740107567400,4.8945673828125,4.750205691604316,8.437999009561539,1.5511764260604977
1667776740117618200,4.9046181640625,4.770608720424771,8.463063892713189,1.337235569216311
1667776740127670300,4.914670166015625,4.7583591874435545,8.499275608301161,1.136094572712481
1667776740137721300,4.924721435546875,4.707804181465506,8.548745449391006,0.9622334319960325
1667776740147772400,4.9347724609375,4.612287751732766,8.615552209728955,0.8181909448295831
1667776740157823000,4.944822998046875,4.471609699498116,8.701207462921738,0.6812291366390884
1667776740167875300,4.954875244140625,4.28956035695523,8.802487570747733,0.5350424039855599
1667776740177926400,4.964926513671875,4.068051402944326,8.914740323486924,0.38571094356551766
1667776740187977200,4.974977294921875,3.8105510980978607,9.032775751280784,0.24294373703189193
1667776740198028000,4.985028076171875,3.537617954058945,9.14550372031629,0.12413053893172181
1667776740208080400,4.995080322265625,3.314835034589469,9.229192641872167,0.06512947477549313
1667776740218131200,5.005131103515625,3.254931770029664,9.250160026577115,0.10160817073658109
1667776740228182300,5.015182373046875,3.3717511000320313,9.2069568446666,0.1832589375283569
1667776740238233000,5.025233154296875,3.5572257408484815,9.135783121290803,0.23234960657488554
1667776740248285200,5.03528515625,3.7367943724915382,9.063658965322375,0.23838793689105658
1667776740258336300,5.045336181640625,3.905007205122709,8.993204203870892,0.20872925967574119
1667776740268387300,5.05538720703125,4.034989091297984,8.93643952959776,0.17105254956912247
1667776740278438100,5.065438232421875,4.071134171390534,8.920109157043695,0.16706137930741533
1667776740288490200,5.075490234375,3.975405560211837,8.96243263351023,0.20330069528836756
1667776740298541300,5.085541259765625,3.7746708064213395,9.04796513710618,0.23785309936199336
1667776740308592000,5.095592041015625,3.5335678018853067,9.144707601502537,0.24215675137266515
1667776740318643200,5.105643310546875,3.2891385755360125,9.235197435244917,0.25109712327327577
1667776740328695300,5.1156953125,3.047302288289368,9.31680662791729,0.2853906024160795
1667776740338746400,5.125746337890625,2.819251365289092,9.387085448279976,0.32375542265102264
1667776740348797200,5.135797119140625,2.621958276385069,9.443453816711902,0.3418855015708133
1667776740358848000,5.145847900390625,2.4848884777754545,9.48025297679901,0.347116534092091
1667776740368900400,5.155900390625,2.4084115334250034,9.500164714971184,0.3417437184799462
1667776740378951400,5.165951416015625,2.3537819714844224,9.514853750059007,0.31251904876772313
1667776740389002000,5.176001953125,2.259641506280005,9.539204347461462,0.26070417892169206
1667776740399053000,5.186052978515625,2.110085297193378,9.574279167973994,0.2260538126326166
1667776740409104100,5.196104248046875,1.9621122656449674,9.605290392309426,0.2427439949424006
1667776740419156200,5.20615625,1.8499319936200975,9.62645242280364,0.282010677654203
1667776740429207000,5.21620703125,1.7619801539227364,9.64262146731615,0.29266826526885853
1667776740439258000,5.226258056640625,1.6684797401875258,9.660561028632522,0.24513258884567765
1667776740449309200,5.23630908203125,1.5495324582457541,9.682361941552161,0.14555858168466948
1667776740459361300,5.246361328125,1.4054044116877018,9.705373983827233,0.03103190864714561
1667776740469412000,5.256412109375,1.2540160187378524,9.725935710340737,-0.06307862949317787
1667776740479463200,5.266463134765625,1.1112984965648502,9.742775785982609,-0.11707394408425316
1667776740489514200,5.27651416015625,0.9838884336389601,9.756371180614828,-0.1248048579967115
1667776740499566300,5.28656640625,0.8754260130934417,9.767050980061292,-0.09341950311926193
1667776740509617200,5.2966171875,0.7920994951091707,9.774557410168647,-0.03171992287734756
1667776740519668200,5.306668212890625,0.7339877170760184,9.778946585038303,0.06224149824902415
1667776740529719000,5.316718994140625,0.6765459472589195,9.781468212470411,0.18853941694824025
1667776740539771100,5.326771240234375,0.5726640229040757,9.784415371838211,0.3281277559837326
1667776740549822200,5.336822265625,0.4168230344595387,9.787088974961637,0.45776853710375726
1667776740559873000,5.346873046875,0.24235442936923354,9.787051565560699,0.5703142814401537
1667776740569924000,5.356924072265625,0.07971146015911362,9.78309201427996,0.6746421594642102
1667776740579976200,5.36697607421875,-0.06025513303766492,9.776053201684356,0.771699754224345
1667776740590027000,5.377027099609375,-0.18192496724454685,9.767814950171113,0.8526789784301072
1667776740600078000,5.387078125,-0.29369978200737384,9.760777306619286,0.9007317192636429
1667776740610129200,5.397129150390625,-0.40193394675496963,9.756243170320987,0.9080496410615742
1667776740620181000,5.407180908203125,-0.5121828853910788,9.753124746039509,0.8857853484138846
1667776740630232000,5.417232177734375,-0.6317279505629092,9.749958975484967,0.8423878860402851
1667776740640283100,5.427283203125,-0.7619355352528393,9.74596084575951,0.7785097995653748
1667776740650334200,5.437334228515625,-0.8976191402010619,9.74064812630415,0.6960226550146937
1667776740660385000,5.447385009765625,-1.0277353933457285,9.733928462660312,0.6039797100787982
1667776740670437000,5.45743701171875,-1.1454421006418765,9.726030402886867,0.5125251594901085
1667776740680488200,5.46748828125,-1.2547833498485386,9.716733582231402,0.4254457187131047
1667776740690539000,5.4775390625,-1.3636895686388015,9.70534417321086,0.34208336223047225
1667776740700590000,5.487590087890625,-1.4752217520184814,9.691669283601641,0.2562360205316916
1667776740710642200,5.49764208984375,-1.5917944137834013,9.675254155373572,0.1613608295782469
1667776740720693000,5.50769287109375,-1.7146769893474876,9.655395608693361,0.06011213523724582
1667776740730744000,5.517744140625,-1.8402951273553072,9.632340311798453,-0.04143435017366428
1667776740740795100,5.527795166015625,-1.961968619390577,9.60739057945907,-0.13819466532054356
1667776740750847000,5.537846923828125,-2.0736957408204675,9.582284195253253,-0.22360477551268412
1667776740760898000,5.54789794921875,-2.17298321352452,9.558439209285378,-0.2911117748081684
1667776740770949000,5.55794921875,-2.261722404207289,9.536187629988788,-0.34075952974818646
1667776740781000200,5.568000244140625,-2.338537494470924,9.516243158590793,-0.37778066202290356
1667776740791052000,5.578052001953125,-2.3984780223011968,9.499749119907618,-0.415273613060452
1667776740801103000,5.58810302734375,-2.440512306562811,9.486832355189323,-0.4628976801531389
1667776740811154200,5.598154296875,-2.47306330768615,9.475641099089383,-0.5163063219966366
1667776740821205200,5.608205322265625,-2.5064161267116662,9.46382557361126,-0.5694317264519632
1667776740831257000,5.618257080078125,-2.544716631272435,9.45058206115663,-0.6174974728975444
1667776740841308200,5.62830810546875,-2.581001119835675,9.438224683886766,-0.6547862431325018
1667776740851359200,5.638359130859375,-2.599189979737997,9.431740582564473,-0.6759287652086466
1667776740861410000,5.64841015625,-2.5885394063860176,9.434334690710902,-0.6805716956436634
1667776740871462100,5.658462158203125,-2.545653035339713,9.446764548695088,-0.6698333709429949
1667776740881513200,5.66851318359375,-2.4722546216517687,9.468249819794297,-0.6407854825697838
1667776740891564000,5.67856396484375,-2.368940816041082,9.497526183161138,-0.5962442204559222
1667776740901615000,5.688614990234375,-2.230034011262655,9.53469476108253,-0.5356424887705594
1667776740911666200,5.698666259765625,-2.0522334122054278,9.578544424203038,-0.45849849534612147
1667776740921718000,5.708718017578125,-1.8379646385811268,9.625748658448456,-0.3704746133258566
1667776740931769000,5.71876904296875,-1.5887259661234914,9.67309843864441,-0.2783588771483861
1667776740941820200,5.728820068359375,-1.307458562850952,9.71739175387919,-0.18229663183484227
1667776740951871200,5.738871337890625,-1.005321390029043,9.754639826777577,-0.08190208380487747
1667776740961923000,5.748923095703125,-0.6969773984562605,9.781840552914142,0.01392206017016433
1667776740971974100,5.75897412109375,-0.3889111643789336,9.798366740301251,0.10563729838849976
1667776740982025200,5.769025146484375,-0.0831857212740928,9.80433470879495,0.1961669526846148
1667776740992076000,5.779075927734375,0.21890865358570588,9.80008348109126,0.28425993615202605
1667776741002128100,5.789128173828125,0.5168986618665978,9.785955002495646,0.37183994686231014
1667776741012179200,5.79917919921875,0.8075453399136662,9.762314599189162,0.4641940401066094
1667776741022230300,5.809230224609375,1.08771837207824,9.729730426448583,0.5653344472009688
1667776741032281000,5.819281005859375,1.3533049527466297,9.689128366947173,0.6780231802046298
1667776741042333200,5.829333251953125,1.5996943732529878,9.64196797184348,0.8023762667126954
1667776741052384300,5.83938427734375,1.8251580562390386,9.589904607129096,0.9343109674561768
1667776741062435000,5.84943505859375,2.0308274899527428,9.534504206946492,1.0674078438468277
1667776741072486100,5.859486083984375,2.217892176439613,9.477432658681273,1.195664732860401
1667776741082538200,5.869538330078125,2.386572042060643,9.419925057086347,1.3189641455970704
1667776741092589000,5.879589111328125,2.5403365164920686,9.362014719909428,1.4386577158614993
1667776741102641200,5.88964111328125,2.6867832152560354,9.302329774275421,1.555066857627779
1667776741112692200,5.899692138671875,2.836937244105339,9.238297739347814,1.6661396068021654
1667776741122744000,5.909744140625,3.002532879975438,9.166554691651463,1.7690213046059011
1667776741132795100,5.919795166015625,3.1856086429566144,9.087198830863834,1.8560949001640081
1667776741142846200,5.92984619140625,3.374109353595972,9.005463965985179,1.9202578679949045
1667776741152897000,5.93989697265625,3.5510768628299236,8.926931696540116,1.967265995146334
1667776741162948000,5.949947998046875,3.7063609480440616,8.85487768319845,2.0060956381477415
1667776741173000200,5.960000244140625,3.8371819153919815,8.791585068461298,2.038244049819559
1667776741183051000,5.970051025390625,3.946643576107919,8.737984995698929,2.0596083248876034
1667776741193102000,5.98010205078125,4.040225530646741,8.69305513612628,2.0682687473356722
1667776741203153200,5.990153076171875,4.122137213397026,8.655724645641445,2.0631988967254755
1667776741213205000,6.000205078125,4.193005816346407,8.626645266151428,2.042082458938658
1667776741223256000,6.010256103515625,4.249891486650705,8.607867500445247,2.0033463394396005
1667776741233307100,6.02030712890625,4.289804394844174,8.60103385503292,1.9468322789266705
1667776741243358200,6.030358154296875,4.309914870458841,8.606485690698028,1.8770834737874567
1667776741253410000,6.04041015625,4.310505237567424,8.622997849559784,1.7982931379280984
1667776741263461000,6.050461181640625,4.293327308273315,8.648576527452468,1.7146104999825358
1667776741273512200,6.06051220703125,4.258978756208718,8.681467574185133,1.6320615422420204
1667776741283563300,6.070563232421875,4.203293693865835,8.721985462534427,1.5587321021370588
1667776741293615000,6.080614990234375,4.121936137866974,8.771128555887937,1.499101078647375
1667776741303666200,6.090666259765625,4.008800464813411,8.831317359390855,1.451814865206927
1667776741313717200,6.10071728515625,3.862378315968811,8.902283577495814,1.4148342110730707
1667776741323768000,6.11076806640625,3.693854809953272,8.97830590994656,1.38415134190917
1667776741333820200,6.120820068359375,3.525254439309239,9.049114307141304,1.3625517967805265
1667776741343871200,6.130871337890625,3.3890433033555745,9.100584382137656,1.3653241841033101
1667776741353922000,6.140922119140625,3.3413530391588804,9.115633482709526,1.382378633148223
1667776741363973000,6.15097314453125,3.441004961261153,9.07360694336295,1.4140459833048282
1667776741374024000,6.16102392578125,3.6517823856383558,8.983107757270336,1.4624173616334795
1667776741384076000,6.171075927734375,3.8956376114919777,8.867684557801484,1.5357751510500908
1667776741394127000,6.181127197265625,4.1084354357808825,8.755338866081834,1.623323378382623
1667776741404178200,6.19117822265625,4.237593438352644,8.673596986940503,1.7268208699971437
1667776741414229000,6.20122900390625,4.259820759990811,8.636535376524925,1.8532590922161936
1667776741424281000,6.211281005859375,4.1965731534391635,8.643777018216252,1.9606750724487005
1667776741434332200,6.221332275390625,4.105245407567918,8.684356865885853,1.9746650193564592
1667776741444383200,6.23138330078125,4.024051517698169,8.743456705108285,1.8786651900209486
1667776741454433800,6.241433837890625,3.9553760408788916,8.803010717839003,1.74137911831215
1667776741464486100,6.251486083984375,3.8922511839240785,8.851323205587267,1.635488301820308
1667776741474537200,6.261537109375,3.8246509351208804,8.886574551710487,1.6035009259290993
1667776741484588000,6.271588134765625,3.7376243935748934,8.913550821441412,1.6580499699793756
1667776741494638800,6.281638916015625,3.6325755808651445,8.934408900552988,1.7751321887016296
1667776741504691200,6.291691162109375,3.5799119121700524,8.935316078525782,1.8747569305360317
1667776741514742000,6.301741943359375,3.7001439732253547,8.897154397913813,1.8220836172297596
1667776741524793000,6.31179296875,3.8363407883927225,8.877456594753264,1.625935168316215
1667776741534844000,6.321843994140625,3.8431960611149667,8.904313622018694,1.4537697986669837
1667776741544896000,6.33189599609375,3.738579794603586,8.958672988715767,1.391246706997603
1667776741554947000,6.341947021484375,3.557804417519271,9.028393590673804,1.4143876363493502
1667776741564998100,6.351998046875,3.320341230790317,9.110018565437198,1.467392227436602
1667776741575049000,6.362049072265625,3.047807315202057,9.198886935457587,1.5039027798406779
1667776741585100000,6.37210009765625,2.752708516584337,9.292225144368409,1.4991795507110655
1667776741595152100,6.382152099609375,2.4306743647679685,9.389564990136027,1.4485504565835
1667776741605203000,6.392202880859375,2.0727793566279114,9.487716152286529,1.3628037257149814
1667776741615254000,6.40225390625,1.6954288296505808,9.576428454962372,1.260130409964919
1667776741625304800,6.412304931640625,1.3482999840661882,9.643879942944645,1.161060160208121
1667776741635357200,6.422357177734375,1.1103900034178047,9.681053197041154,1.1020951263464986
1667776741645408000,6.432407958984375,1.0079783342786133,9.690469844684005,1.117661090399325
1667776741655458800,6.442458740234375,0.9693197369951754,9.687273678991199,1.1779435635350644
1667776741665510000,6.452510009765625,0.9221678905241191,9.68544237191081,1.2297148134350775
1667776741675562200,6.462562255859375,0.8221788454219698,9.690698392742872,1.2588777795553208
1667776741685612800,6.47261279296875,0.6546314909622073,9.701527829793095,1.2736452867068349
1667776741695663900,6.482663818359375,0.42948165969830004,9.713552029585838,1.277821841739118
1667776741705715000,6.49271484375,0.17385339580141007,9.723081489953397,1.2656351448610423
1667776741715767000,6.50276708984375,-0.08400581461847759,9.728580671891569,1.232076427999884
1667776741725817900,6.51281787109375,-0.32149726846069093,9.730718268442153,1.1747899218097329
1667776741735869000,6.522868896484375,-0.5294836738798767,9.730130823943018,1.1020735721018164
1667776741745920000,6.532919921875,-0.7109947448275983,9.726443659862875,1.0301135937191546
1667776741755972000,6.54297216796875,-0.8770277492016554,9.719240596616267,0.9682862292289733
1667776741766023000,6.55302294921875,-1.0305731740549207,9.709972417533397,0.9081470370214432
1667776741776074000,6.563073974609375,-1.1717539151147007,9.699656775224208,0.8450009180828928
1667776741786125000,6.573125,-1.3000018171042202,9.688436877551675,0.7839459992699325
1667776741796176000,6.58317578125,-1.417224321079999,9.676279991289972,0.7290228612102567
1667776741806228000,6.59322802734375,-1.5276150793395935,9.663273794722556,0.6766852826643734
1667776741816279000,6.603279052734375,-1.6345530667968093,9.649680738177896,0.6183067434538155
1667776741826329900,6.613329833984375,-1.741165913952887,9.635390931540726,0.5458606985872612
1667776741836381000,6.623380859375,-1.8507332270003853,9.619678398624062,0.45492027153316883
1667776741846433000,6.63343310546875,-1.963939919463545,9.601477556023001,0.35346835080422456
1667776741856483800,6.64348388671875,-2.07978996604234,9.580262334036826,0.2518593398174271
1667776741866535000,6.653534912109375,-2.199202673538774,9.55558381985426,0.15724891901370136
1667776741876586000,6.6635859375,-2.324109010015428,9.52701005179882,0.07064033801830373
1667776741886637800,6.673637939453125,-2.453383332443237,9.494798219501972,-0.01027718259547837
1667776741896689000,6.68368896484375,-2.5820912531599403,9.460226672336459,-0.08548001535688526
1667776741906740000,6.693739990234375,-2.7054844085946677,9.424850823050736,-0.15137724136817268
1667776741916791000,6.703791015625,-2.824073963139951,9.3889997574687,-0.2041316844861023
1667776741926843000,6.7138427734375,-2.939458291903138,9.352632559058069,-0.24129074566047637
1667776741936894000,6.72389404296875,-3.0482156037420034,9.317065571114421,-0.2665729796235449
1667776741946945000,6.733945068359375,-3.1368294144794344,9.286869170293212,-0.29113398663997647
1667776741956995800,6.743995849609375,-3.1935306681275364,9.26639570658505,-0.32504962718002495
1667776741967048000,6.7540478515625,-3.2246862693697214,9.253965264078975,-0.36866354531589896
1667776741977099000,6.76409912109375,-3.2422871002510187,9.245647517588734,-0.4194898425159976
1667776741987150000,6.774150146484375,-3.248877584557235,9.240740456324815,-0.47317320964764803
1667776741997201000,6.784200927734375,-3.242349644093215,9.240498464262485,-0.5203148269856348
1667776742007252000,6.794251953125,-3.220681417642534,9.246403888913989,-0.5491909755211323
1667776742017304000,6.804303955078125,-3.1797055563926695,9.26025764222145,-0.5545012107584625
1667776742027355000,6.81435498046875,-3.1109926701724526,9.284499518552423,-0.5386774360196664
1667776742037406000,6.824406005859375,-3.008355594779551,9.320344154393672,-0.5013499412095174
1667776742047457000,6.83445703125,-2.8753537762612105,9.365473920452594,-0.43657812076527625
1667776742057508900,6.8445087890625,-2.714066066718101,9.4172356718719,-0.3462497246623039
1667776742067560000,6.854559814453125,-2.5221920802533626,9.473760692170261,-0.2383148168559186
1667776742077611000,6.864611083984375,-2.2999996740229425,9.532398174577951,-0.1174576461722143
1667776742087662000,6.874662109375,-2.049765560787171,9.59002794124782,0.014273285902274073
1667776742097714000,6.8847138671875,-1.77504290298298,9.64346142527163,0.1524968747815583
1667776742107764200,6.89476416015625,-1.4832107049457728,9.68950713713169,0.28969730490036305
1667776742117815300,6.904815185546875,-1.1809556048326193,9.725915836596489,0.42694406751208
1667776742127866400,6.914866455078125,-0.877221372077614,9.750894795030355,0.5664816444747149
1667776742137918200,6.924918212890625,-0.5828398914163931,9.763749015906452,0.7070164157811551
1667776742147969300,6.93496923828125,-0.3018878377033397,9.765559864720702,0.8444395578730851
1667776742158020400,6.945020263671875,-0.030099797162495084,9.75803063825965,0.9748429573960602
1667776742168071200,6.9550712890625,0.23980262599457053,9.742412213367222,1.094673451913148
1667776742178123300,6.965123291015625,0.5094456789795309,9.719229490700364,1.203098682253435
1667776742188174300,6.97517431640625,0.7732195111375302,9.688950087770818,1.3026100999064743
1667776742198225200,6.98522509765625,1.0240429685685783,9.652352003213762,1.3977953979887068
1667776742208276200,6.995276123046875,1.2606684623643756,9.609968905514478,1.4931876168198883
1667776742218327000,7.0053271484375,1.4868180817879735,9.561686228382587,1.591828316053003
1667776742228379100,7.015379150390625,1.7064423910960553,9.507079608926176,1.6952460204295814
1667776742238430200,7.02543017578125,1.9227816873840986,9.445804179230333,1.8027965868271887
1667776742248481300,7.035481201171875,2.1366092931121585,9.37739699795842,1.9156475977204739
1667776742258532000,7.045531982421875,2.3475905694983896,9.302479411879181,2.0305422432705758
1667776742268584200,7.055584228515625,2.5533047191366554,9.22609175324738,2.128438992268592
1667776742278635300,7.06563525390625,2.752780120515823,9.15339359678328,2.192713019258529
1667776742288686300,7.075686279296875,2.947830398929119,9.085121440067887,2.2228885234221814
1667776742298737200,7.085737060546875,3.139698247914016,9.020258215013145,2.224320455921441
1667776742308789200,7.095789306640625,3.3300358185917136,8.957631955230235,2.2004795616067945
1667776742318840300,7.10584033203125,3.5215745817527173,8.89624663541913,2.150750485058874
1667776742328891100,7.11589111328125,3.7157343410670753,8.834542751178144,2.0771559642769395
1667776742338942000,7.12594189453125,3.90922102342546,8.772201153555512,1.9841531248003244
1667776742348994300,7.135994384765625,4.091487515850365,8.712078985548018,1.8787834095731377
1667776742359045400,7.14604541015625,4.2546953798010945,8.656863878804446,1.7682357071861623
1667776742369096000,7.156095947265625,4.395281954360008,8.608393570145964,1.6575466966323553
1667776742379147000,7.16614697265625,4.5101744079530235,8.568544959360361,1.552025297974795
1667776742389199400,7.176199462890625,4.597207671500742,8.539342830273508,1.4545418059527873
1667776742399250200,7.186250244140625,4.656034539000689,8.521441847401857,1.3699598810799418
1667776742409301000,7.196301025390625,4.687450837005675,8.514978204345702,1.3012917107842863
1667776742419352000,7.20635205078125,4.689740993769466,8.52104203442931,1.252437225113809
1667776742429403100,7.216403076171875,4.654782785373926,8.543733174186945,1.2280085940390824
1667776742439455200,7.226455322265625,4.571480817309022,8.588290108793974,1.2301312852814792
1667776742449506000,7.236506103515625,4.440339239704609,8.654321208584308,1.2476061516955494
1667776742459557000,7.24655712890625,4.278638565446436,8.7333561668545,1.2618019964389502
1667776742469608200,7.256608154296875,4.105531238771975,8.81562294665277,1.2648241207391022
1667776742479660300,7.266660400390625,3.937674964493513,8.892073733648658,1.2633771368011832
1667776742489711000,7.276711181640625,3.8015769335255025,8.94934343483448,1.2757953043475747
1667776742499762200,7.28676220703125,3.7316663619533177,8.973727934506535,1.3104264727458357
1667776742509813000,7.29681298828125,3.7352547418341038,8.964759615153074,1.3606488857686518
1667776742519865300,7.306865234375,3.777228381949663,8.937823677432537,1.4206465506136416
1667776742529916200,7.316916259765625,3.82395213920176,8.906120963701605,1.492919321272522
1667776742539967000,7.326967041015625,3.8604879721775647,8.873833728080987,1.588106080659479
1667776742550018000,7.33701806640625,3.892745397181809,8.838054558691383,1.7046121069289744
1667776742560070400,7.3470703125,3.9405353223606943,8.790774921122193,1.83436412987113
1667776742570121000,7.357120849609375,3.954943202419579,8.758649598065018,1.9531711265593765
1667776742580172000,7.367172119140625,3.910604002216458,8.769495401728152,1.993361390389502
1667776742590223000,7.37722314453125,3.8930920186623927,8.789174500188231,1.9402594764076173
1667776742600275000,7.38727490234375,3.94113971799463,8.786395683124661,1.8539390373043716
1667776742610326000,7.397325927734375,3.9878795495986936,8.773704543855786,1.8136499892748892
1667776742620377000,7.407377197265625,3.949155266667902,8.780061219406127,1.8668308137118814
1667776742630428200,7.41742822265625,3.792436764736473,8.820428301107883,1.9969630681432782
1667776742640479000,7.42747900390625,3.543318503788113,8.885064731669425,2.1612346158027647
1667776742650531000,7.437531005859375,3.2470006847694513,8.95904182202816,2.3157982777878643
1667776742660582100,7.44758203125,2.9259160887628792,9.04225961894095,2.4180454770803452
1667776742670633000,7.457633056640625,2.5964447726830837,9.135383892840146,2.444096156398952
1667776742680684000,7.46768408203125,2.286525129291415,9.23291546178758,2.3865141743935645
1667776742690736000,7.477736083984375,2.0331592939011753,9.324044762477278,2.25806081295982
1667776742700787000,7.487786865234375,1.8210751708395778,9.405438266572355,2.095657397259772
1667776742710838000,7.497838134765625,1.581580916674435,9.481386364743113,1.9422446588754654
1667776742720889000,7.50788916015625,1.3043420382656157,9.546189968565105,1.8273922450318931
1667776742730941200,7.517941162109375,1.0211620793700218,9.597980361557006,1.733896945863217
1667776742740992000,7.527991943359375,0.7406755973421036,9.639683660298585,1.642652348230779
1667776742751043000,7.53804296875,0.45560112993679935,9.672433837255834,1.5513924068987368
1667776742761094100,7.54809423828125,0.15972139180814846,9.695684364461899,1.4623879894085228
1667776742771146000,7.55814599609375,-0.14553400436583905,9.709082190695405,1.3721999150916933
1667776742781197000,7.568197021484375,-0.4522095878023654,9.713036481279135,1.2738951698146759
1667776742791248100,7.578248046875,-0.7563025708671659,9.706897247871757,1.1724185895685106
1667776742801299200,7.58829931640625,-1.0536386270176619,9.690303840467333,1.0762182692248374
1667776742811351000,7.59835107421875,-1.3340157303869724,9.66498410577178,0.989375340617448
1667776742821402000,7.608402099609375,-1.5900773807324469,9.633841948533057,0.9116532915767281
1667776742831453200,7.618453125,-1.8187270002782343,9.60000339181721,0.8381764788903295
1667776742841504000,7.62850390625,-2.0214570195391772,9.565474514749646,0.7653655827667564
1667776742851555000,7.63855517578125,-2.2090540593370793,9.52949193174243,0.6922730201575905
1667776742861607200,7.648607177734375,-2.3866508063852785,9.49165056912601,0.6187475460238754
1667776742871658000,7.658657958984375,-2.5465546603545546,9.454286176371573,0.5494519645448773
1667776742881709000,7.668708984375,-2.6730978042528033,9.422285356476902,0.495453576647304
1667776742891760000,7.678760009765625,-2.749497737844288,9.401582760187983,0.4699883325338363
1667776742901812000,7.68881201171875,-2.7578531859964133,9.398730293366313,0.47801513325348494
1667776742911863000,7.698863037109375,-2.685002469319105,9.417744205915927,0.5169444372370838
1667776742921914000,7.7089140625,-2.541799867042899,9.453690548565984,0.5808417764017358
1667776742931965200,7.718965087890625,-2.3709020331114528,9.492481174731253,0.6648400196351111
1667776742942017000,7.72901708984375,-2.2192513359636066,9.520943883627652,0.772619864743948
1667776742952068000,7.739068115234375,-2.1048815910704435,9.535039044475555,0.9071293844114988
1667776742962119200,7.749119140625,-1.996317317585647,9.543107200118898,1.055559365947172
1667776742972170200,7.759170166015625,-1.8337183793134986,9.558712181007861,1.1995344139005988
1667776742982222000,7.76922216796875,-1.5703556121744215,9.589086861005425,1.3243101828001438
1667776742992273200,7.779273193359375,-1.2194122498031705,9.627228667873144,1.414172678424418
1667776743002324200,7.78932421875,-0.8614916688304394,9.659344638580084,1.45782404249385
1667776743012375000,7.799375,-0.5469695000793785,9.680942137882113,1.4664868030294775
1667776743022427100,7.80942724609375,-0.267681671517808,9.69683528806269,1.4387882103733718
1667776743032478200,7.819478271484375,-0.005432557288368116,9.708087918961047,1.3868585550412535
1667776743042529000,7.829529052734375,0.32853900366574523,9.709891168990731,1.3343321028597652
1667776743052580000,7.839580078125,0.7680972727529705,9.685294487872719,1.3324687932059167
1667776743062632200,7.849632080078125,1.2055477559059857,9.630823477494715,1.4015218711659312
1667776743072683000,7.85968310546875,1.562284826182574,9.558650221687556,1.536823637189716
1667776743082734000,7.869734130859375,1.843359044970572,9.478601117938757,1.7112974299117922
1667776743092785200,7.87978515625,2.091483764836937,9.396817153221368,1.8697224435001611
1667776743102836700,7.889836669921875,2.3383771893426775,9.318298912301659,1.9676661003798246
1667776743112888600,7.899888671875,2.60601924123615,9.238279619169235,2.0082880336254836
1667776743122939600,7.909939697265625,2.885817010347545,9.150292708158492,2.0284386951200664
1667776743132990700,7.91999072265625,3.141947195884585,9.058060999184846,2.0615717339150605
1667776743143041500,7.93004150390625,3.3472356674566863,8.969605301618575,2.1242827493719756
1667776743153093600,7.94009375,3.502564468595385,8.889508267074822,2.2088614593744276
1667776743163144700,7.950144775390625,3.6236341495186086,8.822422105273604,2.2813415891736746
1667776743173195500,7.960195556640625,3.7201509884655475,8.773376042553782,2.314890223032236
1667776743183246600,7.97024658203125,3.7989629516348242,8.742649480378628,2.303109914997965
1667776743193298700,7.980298583984375,3.858825884184241,8.729665495643019,2.252289389951527
1667776743203349500,7.990349609375,3.8899741789028046,8.736188175410032,2.1719772513523696
1667776743213400600,8.000400634765626,3.887503989396989,8.760915204909443,2.0746197237975896
1667776743223451600,8.01045166015625,3.8421763626784085,8.804797601255775,1.970680772025883
1667776743233503500,8.02050341796875,3.724088912436366,8.876526620426773,1.8731876353926955
1667776743243554600,8.030554443359375,3.4978181508511303,8.983237521129846,1.799186871897429
1667776743253605600,8.040605712890626,3.165836020994186,9.112725486308335,1.7624018864661455
1667776743263656700,8.05065673828125,2.76595232129991,9.244783594235777,1.7475411480732261
1667776743273708500,8.06070849609375,2.3424122900776565,9.366751685303448,1.7168195543341338
1667776743283759600,8.070759521484375,1.929462626452744,9.471857488897442,1.6527099241256713
1667776743293810700,8.080810791015624,1.553530149579793,9.55640273502171,1.5595162382520735
1667776743303861500,8.090861572265625,1.3046182248584925,9.609277416118978,1.4594991360992193
1667776743313912600,8.10091259765625,1.2862316504269837,9.62215969404578,1.3892666390962898
1667776743323964700,8.110964599609375,1.4738555782318115,9.601043840780854,1.3483622356474398
1667776743334015500,8.121015380859374,1.748867428240925,9.559286181503534,1.3160165478378534
1667776743344066600,8.131066650390625,1.9736856529302893,9.520137243419885,1.281379388090223
1667776743354117600,8.14111767578125,2.036641875319928,9.509130111715198,1.2644913816533982
1667776743364169500,8.15116943359375,1.9386077636778354,9.52178793323636,1.3220163727745413
1667776743374220500,8.161220458984374,1.7242172633700072,9.543333410090208,1.4567932381413877
1667776743384271600,8.171271728515626,1.3705049477420745,9.581998948571085,1.573976433020085
1667776743394322700,8.18132275390625,0.9570064180627464,9.631223874989152,1.579252912118286
1667776743404374500,8.19137451171875,0.779527379110083,9.667285368451475,1.4513181677311657
1667776743414425600,8.201425537109374,1.0094652849007397,9.672919574946164,1.259358256548643
1667776743424476700,8.2114765625,1.2997362980358302,9.654929160225391,1.1240043950114398
1667776743434527700,8.22152783203125,1.5139933812223374,9.63355670185089,1.0357554720636457
1667776743444579600,8.23157958984375,1.6182149493277072,9.623574237018824,0.9687892103150486
1667776743454630700,8.241630615234374,1.581611750204116,9.635581485676765,0.9079824941094964
1667776743464681700,8.251681640625,1.3880319827347993,9.669089203003049,0.8674443666897713
1667776743474732500,8.261732666015625,1.0520608563069254,9.712270173081755,0.8575215230904519
1667776743484784600,8.27178466796875,0.613572043082118,9.74836790690124,0.8736251742165535
1667776743494835700,8.281835693359374,0.09649311101147905,9.76476199234128,0.9002840485613792
1667776743504886500,8.291886474609376,-0.5027061050588265,9.752826055353879,0.8944603108439594
1667776743514937600,8.3019375,-1.063761011777073,9.710762106606364,0.8601743026215583
1667776743524988700,8.31198876953125,-1.445607096607983,9.662644849169254,0.8449170391917228
1667776743535040500,8.32204052734375,-1.690117717630416,9.619963645306228,0.8776066450681537
1667776743545091600,8.332091552734376,-1.9160152619890867,9.574592471706866,0.9090869482200592
1667776743555142700,8.342142578125,-2.1971989325009287,9.51654769449532,0.8820569024752825
1667776743565193700,8.35219384765625,-2.500759708385169,9.447648345792294,0.8115026992373168
1667776743575245600,8.36224560546875,-2.75886616243124,9.38215266805291,0.7309320558324456
1667776743585296600,8.372296630859376,-2.9398578126147386,9.332744201761484,0.6538483777604996
1667776743595347700,8.38234765625,-3.044152007564902,9.304700595059991,0.5710335721580311
1667776743605398500,8.3923984375,-3.0826565102651715,9.297356662037968,0.47621086031049487
1667776743615450600,8.40245068359375,-3.063990680500865,9.30809549819529,0.3764368827311322
1667776743625501700,8.412501708984376,-2.990217880542576,9.33524887805879,0.2865774923793971
1667776743635552800,8.422552734375,-2.861898082360625,9.377014720642567,0.22694736393885687
1667776743645603600,8.432603515625,-2.6855411062404513,9.429254610967636,0.21773223021747543
1667776743655655700,8.44265576171875,-2.4836095438808203,9.483208319473267,0.2661473563563079
1667776743665706800,8.452706787109374,-2.2785545888036487,9.53112917755544,0.3689845208985731
1667776743675757600,8.462757568359375,-2.0709986106909812,9.571806055858731,0.5117283100239932
1667776743685808600,8.47280859375,-1.8402998035304248,9.608853053227067,0.6735020495183766
1667776743695860700,8.48286083984375,-1.556636737293005,9.646624273216723,0.8305894578274339
1667776743705911600,8.49291162109375,-1.2060710491277278,9.684885322549938,0.9585213526703417
1667776743715962600,8.502962646484375,-0.819992368228361,9.716768069022894,1.0403830587990581
1667776743726013700,8.513013671875,-0.46655346271432935,9.737241532731055,1.0671510195415466
1667776743736064800,8.523064697265625,-0.18319096859237177,9.749463885444403,1.0415306213989852
1667776743746116600,8.53311669921875,0.05599183587026782,9.756410928103326,0.9897932007033378
1667776743756167700,8.543167724609376,0.3078614687528461,9.756718971139192,0.939170974707976
1667776743766218800,8.55321875,0.5928509247558191,9.747188926249741,0.900672463357076
1667776743776269600,8.56326953125,0.9103054571643471,9.724050042724608,0.8857687626052647
1667776743786321700,8.57332177734375,1.2730005590625106,9.679338209816812,0.9275148775752633
1667776743796372700,8.583372802734376,1.6305067140154539,9.609339375439285,1.0827833268288523
1667776743806423600,8.593423583984375,1.9546748091205954,9.518128241685032,1.3247034199014305
1667776743816474600,8.603474609375,2.251214892587811,9.411014020878076,1.5922482950307428
1667776743826526700,8.613526611328124,2.5182722764611243,9.29824747339785,1.836100452144444
1667776743836577500,8.62357763671875,2.75891263192147,9.194594206699728,2.0045579071864483
1667776743846628600,8.633628662109375,2.986090863740444,9.106011667883395,2.0818758324056863
1667776743856679700,8.6436796875,3.2158047515168784,9.022352556943893,2.10383924241066
1667776743866731500,8.6537314453125,3.438597315597534,8.938570696407556,2.109125219989568
1667776743876782600,8.663782470703126,3.634477615094185,8.861824725857376,2.1045243020653723
1667776743886833700,8.673833740234375,3.794978265912831,8.79941473917365,2.082975025819242
1667776743896884700,8.683884765625,3.9202579657465217,8.75536283147931,2.0360639293015
1667776743906936600,8.6939365234375,4.01840708207041,8.728454950809478,1.9587955423124133
1667776743916987600,8.703987548828126,4.094606816914677,8.716674496644735,1.8504444731868803
1667776743927038700,8.714038818359375,4.141826248729228,8.72060131469965,1.7224252653867005
1667776743937089800,8.72408984375,4.1488495714947575,8.74210178336799,1.5915589975923299
1667776743947141600,8.7341416015625,4.101420296321809,8.7855206538558,1.4708433908037841
1667776743957192700,8.744192626953126,3.9742522985234854,8.859707587572931,1.371589089716971
1667776743967243800,8.754243896484375,3.735461662583053,8.972502192103862,1.30800815955773
1667776743977294600,8.764294677734375,3.3745427765771745,9.119231799462437,1.2737680363036692
1667776743987345700,8.774345703125,2.9369454322993755,9.271697320124506,1.2571171996235846
1667776743997397800,8.784397705078124,2.506260351628065,9.397169619920849,1.2578861381694675
1667776744007448600,8.794448486328125,2.117114757438749,9.493396536010502,1.2504581801258028
1667776744017499600,8.804499755859375,1.7714318728789686,9.569563829889892,1.2065825057812034
1667776744027550700,8.81455078125,1.4772665557190774,9.62991922213137,1.1192478481341153
1667776744037602600,8.8246025390625,1.2826936855591833,9.669769586482644,1.0102810582630335
1667776744047653600,8.834653564453125,1.286988314013183,9.674592476594448,0.9572448299285023
1667776744057704700,8.84470458984375,1.498635214701295,9.640026190125942,0.9971822880413382
1667776744067755800,8.854755859375,1.7555048204287886,9.585435352760554,1.0990989402052014
1667776744077807600,8.8648076171875,1.8660060533255338,9.547353167125582,1.2395493942290543
1667776744087858700,8.874858642578126,1.7531658560872077,9.540377482894062,1.441530787079781
1667776744097909800,8.88490966796875,1.4736319986090063,9.541954522952437,1.717529017777741
1667776744107960600,8.894960693359375,1.1060247939456254,9.538686461067199,1.9901200703807174
1667776744118012700,8.9050126953125,0.7175390519045293,9.547334462425113,2.12224159893319
1667776744128063700,8.915063720703126,0.4409737619083374,9.5813746791929,2.04283926865533
1667776744138114800,8.92511474609375,0.4965146665401756,9.63019862359464,1.7841360177598893
1667776744148165600,8.93516552734375,0.7676525977253913,9.652605101191996,1.5518763910233973
1667776744158216700,8.945216796875,1.0490721228197217,9.644788289961218,1.4310447566397488
1667776744168268800,8.955268798828126,1.2826567145496606,9.622394671845436,1.3909434862673282
1667776744178319600,8.965319580078125,1.421063899242878,9.601700843384862,1.3994031254462898
1667776744188370700,8.97537060546875,1.3956477184355258,9.6028435836792,1.4170182771138846
1667776744198421800,8.985421875,1.2191422006901353,9.626887891611457,1.416722070646286
1667776744208473600,8.9954736328125,0.9194451875619589,9.668663086545466,1.3571927539654076
1667776744218524700,9.005524658203125,0.5514349550556391,9.713629770997166,1.2295154914706945
1667776744228575700,9.01557568359375,0.15774874002831055,9.745715346565841,1.08006471551992
1667776744238626800,9.025626708984374,-0.2691351582617499,9.756619017896055,0.9520218345832079
1667776744248678700,9.0356787109375,-0.75950976941064,9.739351656752824,0.8593916278112679
1667776744258729700,9.045729736328125,-1.2310818640045822,9.695430097439884,0.8083657894510775
1667776744268780800,9.05578076171875,-1.5990193966008721,9.643115972834824,0.789837906852737
1667776744278831600,9.06583154296875,-1.8938190661415457,9.590580314433574,0.7775697422362864
1667776744288883700,9.0758837890625,-2.1720877259895204,9.534019053778051,0.7449152076732367
1667776744298934800,9.085934814453125,-2.4430865409649907,9.472300556489825,0.6908185105003416
1667776744308985600,9.095985595703125,-2.6684382880091664,9.415478599071502,0.631346988421306
1667776744319036700,9.10603662109375,-2.824118679064512,9.3742300583601,0.564393914947845
1667776744329088800,9.1160888671875,-2.908189877936244,9.352935925918818,0.4851828694583848
1667776744339139600,9.1261396484375,-2.922199406327307,9.352543127208948,0.40135757163912056
1667776744349190700,9.136190673828125,-2.8702172901555896,9.371329660743475,0.33229254751298576
1667776744359241700,9.14624169921875,-2.755041343446076,9.40690249390602,0.3005468166242353
1667776744369293600,9.15629345703125,-2.590799460272491,9.452813181209564,0.32010785992890595
1667776744379344600,9.1663447265625,-2.403569646351784,9.499209606203436,0.3978209219455719
1667776744389395700,9.176395751953125,-2.209139545663446,9.539549799898266,0.5358123289121315
1667776744399446800,9.18644677734375,-1.9998070593975483,9.573276128411292,0.7235689797185361
1667776744409497900,9.196497802734376,-1.743363570127636,9.604666122931242,0.9388559174094349
1667776744419549700,9.2065498046875,-1.4144168624438345,9.634986442393064,1.1562179808739572
1667776744429600800,9.216600830078125,-1.0261715780951082,9.658312957444787,1.3543816420674324
1667776744439651800,9.22665185546875,-0.6326563174542039,9.6672386067003,1.521395328041911
1667776744449702700,9.23670263671875,-0.2575010537651367,9.666170100685953,1.633776967857778
1667776744459754800,9.246754638671876,0.08866375082638114,9.662776951116323,1.6713015196099876
1667776744469805800,9.256805908203125,0.40496399863325055,9.659142978528141,1.6453941942848265
1667776744479856600,9.266856689453125,0.7181387713633477,9.65205857322514,1.578743939682841
1667776744489907700,9.27690771484375,1.0479024945184587,9.635507835918665,1.4930742195732891
1667776744499959800,9.286959716796876,1.384897484101355,9.604165772193669,1.418612998959422
1667776744510010600,9.2970107421875,1.7208723368562757,9.55412719130516,1.3883875181742011
1667776744520061700,9.307061767578125,2.033487502942234,9.484428216657042,1.442539233469963
1667776744530112800,9.31711279296875,2.336082794795185,9.390032607647775,1.5938493004865943
1667776744540164600,9.32716455078125,2.625827519033849,9.270155935901403,1.8274675022251903
1667776744550215700,9.337215576171875,2.891878502343595,9.134976481083035,2.087966404365748
1667776744560266800,9.347266845703125,3.1276702487289905,8.999226532900332,2.3242099861718715
1667776744570317800,9.35731787109375,3.3328558444485066,8.877159073111415,2.501698158279061
1667776744580369700,9.36736962890625,3.517936225250363,8.775068233424424,2.60627146243155
1667776744590420700,9.377420654296875,3.702871644623577,8.686540639665722,2.646350667102635
1667776744600471800,9.387471923828125,3.890110957024991,8.606745802938937,2.6384324413239955
1667776744610522600,9.397522705078124,4.063331973206997,8.541643508431315,2.588449390015006
1667776744620573700,9.40757373046875,4.208952450279892,8.498169692885876,2.497248485393822
1667776744630625800,9.417625732421875,4.322444681686163,8.47841168397069,2.367139904098958
1667776744640676900,9.4276767578125,4.39803797506988,8.481309158977865,2.212474535305053
1667776744650727700,9.437727783203124,4.430793704985082,8.505318395596742,2.048898422563821
1667776744660778800,9.44777880859375,4.41785414391309,8.548356742334365,1.891710987946391
1667776744670830800,9.457830810546875,4.353650259549916,8.610977156898379,1.7513335260935126
1667776744680881700,9.467881591796875,4.225555502295494,8.69656051389873,1.6385694628313183
1667776744690932700,9.4779326171875,4.0125191930755975,8.809493650117515,1.5693679163113234
1667776744700983800,9.48798388671875,3.6942090302184223,8.951720685359835,1.54593574892804
1667776744711035600,9.49803564453125,3.2739354534462093,9.115027918031812,1.5388267937056719
1667776744721086700,9.508086669921875,2.8037551054716108,9.27398396975696,1.5174113729722798
1667776744731137800,9.5181376953125,2.362168107035756,9.400587319409846,1.4897905217275023
1667776744741188900,9.52818896484375,1.98457164247334,9.493629175722598,1.4501251585543156
1667776744751240700,9.53824072265625,1.6566057625204325,9.569377951928972,1.361273155146837
1667776744761291800,9.548291748046875,1.392617703089863,9.630867901158332,1.2154804633121936
1667776744771342800,9.5583427734375,1.2716918145515024,9.666347795340418,1.0558930548809469
1667776744781393700,9.5683935546875,1.3648546668954193,9.66282079025805,0.9682177671026438
1667776744791445800,9.57844580078125,1.6146838525921106,9.623314709299802,0.9772270760536194
1667776744801496800,9.588496826171875,1.8635677202627061,9.568194295102357,1.0710608864616602
1667776744811547600,9.598547607421875,1.95852680837363,9.530676757612824,1.2250638458240777
1667776744821598700,9.6085986328125,1.86876894216761,9.515490878918767,1.4606573662236333
1667776744831649800,9.61864990234375,1.5822025557041168,9.516079492461682,1.7638734203234314
1667776744841701600,9.62870166015625,1.1150739234503357,9.52764542709291,2.0373886020340026
1667776744851752700,9.638752685546875,0.555573296969384,9.545710076093673,2.177418565623462
1667776744861803800,9.6488037109375,0.08292940842546521,9.57424877283573,2.1206784412696957
1667776744871854800,9.658854736328125,0.01626886075832881,9.61572995325923,1.9255809627138076
1667776744881906700,9.66890673828125,0.28981822786629197,9.655521865421534,1.6903541567347944
1667776744891957800,9.678957763671875,0.6238071675010025,9.67814987681508,1.4541883163399993
1667776744902008800,9.6890087890625,0.9152789347279816,9.68656056228578,1.2260368555746972
1667776744912060000,9.699059814453125,1.0508150940295309,9.697399351686238,1.013217988497764
1667776744922111700,9.70911181640625,1.0087257185798137,9.718277304542065,0.8413913492836058
1667776744932162800,9.719162841796875,0.8267088900670408,9.743941907152532,0.7365543526936322
1667776744942214000,9.7292138671875,0.5162022771002724,9.767885092797874,0.7016743971660733
1667776744952264700,9.7392646484375,0.1117909621800296,9.779868376058339,0.7155969779260456
1667776744962316800,9.74931689453125,-0.31258473441507667,9.773056357955932,0.748361621800065
1667776744972368000,9.759367919921875,-0.7517254722099751,9.746391053870319,0.7830432782765477
1667776744982418700,9.769418701171874,-1.2301660643339156,9.696936410349608,0.7915162883937359
1667776744992469800,9.7794697265625,-1.6456035992518065,9.635558104801177,0.7863859397679567
1667776745002521900,9.78952197265625,-1.957408471868187,9.576143208280206,0.7977540868047625
1667776745012572700,9.79957275390625,-2.2141220102511343,9.52033130468726,0.7945736301377415
1667776745022623700,9.809623779296874,-2.450298810431361,9.466026298525929,0.748854446818307
1667776745032674800,9.8196748046875,-2.65742823369503,9.415938617798686,0.6697478115513921
1667776745042726700,9.8297265625,-2.8167504883840677,9.375764428320526,0.5756370838981122
1667776745052777700,9.83977783203125,-2.9153578698694704,9.351629519495367,0.46702462389003485
1667776745062828800,9.849828857421874,-2.9408409784331915,9.349178619211912,0.338662959327735
1667776745072879900,9.8598798828125,-2.8941803495451808,9.367616777700185,0.20464728759173303
1667776745082930700,9.8699306640625,-2.787519717724621,9.401683297953008,0.0920627364817541
1667776745092982800,9.879982666015625,-2.6273785478681324,9.44810076573491,0.0258309356207028
1667776745103033000,9.890033203125,-2.4237800752095877,9.502363101798295,0.027802968629321547
1667776745113084200,9.900084228515626,-2.1989127506814894,9.556335515004395,0.10777545206150971
1667776745123135000,9.910135009765625,-1.9639597932077943,9.604486674711108,0.2590103623495437
1667776745133187000,9.92018701171875,-1.7076196181818841,9.645641691920162,0.46478126541003584
1667776745143238100,9.930238037109374,-1.4157508875265716,9.678648473986982,0.6998636944822967
1667776745153289000,9.9402890625,-1.0912361709408462,9.700540572321414,0.9376056981526315
1667776745163340000,9.950340087890625,-0.7656120318084955,9.709266899612546,1.1464621644046158
1667776745173392100,9.96039208984375,-0.46002753154430537,9.707539637428521,1.3124198385201393
1667776745183443000,9.97044287109375,-0.1527488402486313,9.697831897884607,1.448822551523149
1667776745193494000,9.980493896484376,0.17214282902386038,9.680367552864551,1.5592385903544723
1667776745203545000,9.990545166015625,0.5074930836070328,9.652826634988187,1.6540158921577035
1667776745213597200,10.00059716796875,0.8666152223892509,9.610825814604759,1.7468283236287534
1667776745223648000,10.01064794921875,1.2570128624662755,9.552361350676417,1.8283134515300392
1667776745233699000,10.020698974609376,1.6378673059113322,9.479308973947166,1.9053847085118292
1667776745243750100,10.030750244140625,1.975688371054828,9.393707496768236,2.006308842507005
1667776745253802000,10.040802001953125,2.302258120474219,9.275321355840564,2.199638288477063
1667776745263853000,10.05085302734375,2.6408567458614707,9.112498107293248,2.4816671776413917
1667776745273904000,10.060904052734376,2.973998274886608,8.918244532215594,2.791168303360045
1667776745283955200,10.070955078125,3.287794759711623,8.71358529845774,3.0715163998305797
1667776745294006000,10.081006103515625,3.583717149671912,8.524014328238367,3.2662767553865906
1667776745304058000,10.09105810546875,3.8801229392349716,8.357344925656914,3.3570483286797996
1667776745314109200,10.101109130859374,4.1856431786239146,8.198111810556053,3.382558909772336
1667776745324160000,10.111159912109375,4.478030672456324,8.037550077199935,3.3934450454458593
1667776745334211000,10.121211181640625,4.736499530074,7.882209877884388,3.4068609918579456
1667776745344263200,10.13126318359375,4.962951493445039,7.752204026311635,3.382721699118614
1667776745354314000,10.14131396484375,5.169715006005764,7.659847814175486,3.2819390194207427
1667776745364365000,10.151364990234375,5.361194440194964,7.600397261819243,3.1083620294079184
1667776745374416100,10.161416015625,5.532553461897373,7.566019191399216,2.8838509709715843
1667776745384468000,10.171468017578125,5.666214328846335,7.559236983913182,2.631039992985129
1667776745394519000,10.18151904296875,5.732871451580524,7.589952440172433,2.3868698559634387
1667776745404570000,10.191570068359376,5.7050482096314425,7.662737690398097,2.214781643203646
1667776745414621200,10.20162109375,5.582111565792561,7.770552168428898,2.15150334925279
1667776745424673000,10.211673095703125,5.37466591618657,7.9026336572319265,2.1981246690437195
1667776745434724000,10.22172412109375,5.084034618371724,8.057416222664713,2.32400774159804
1667776745444775200,10.231775146484376,4.701563533510267,8.243577092179656,2.4716668848916887
1667776745454826200,10.241826171875,4.2305563793227074,8.462675185656547,2.5799054335534573
1667776745464878000,10.251878173828125,3.6921287168130275,8.703652517986297,2.604798175008595
1667776745474929200,10.26192919921875,3.1171625909790395,8.94445858540237,2.539759593386948
1667776745484980200,10.271980224609376,2.5615645979598165,9.15179025323987,2.419398499124497
1667776745495031000,10.282031005859375,2.0674534854300317,9.310514249774814,2.28261818498075
1667776745505082000,10.29208203125,1.6505261503458022,9.424263963073491,2.1516035947568715
1667776745515134200,10.30213427734375,1.3359814775019883,9.499597144216299,2.035491682371497
1667776745525185000,10.31218505859375,1.163424478186667,9.542802664214372,1.9369497673377394
1667776745535236000,10.322236083984375,1.2497601148590445,9.542094223684073,1.8859831118188797
1667776745545287200,10.332287109375,1.5980812389679253,9.47486251593232,1.9604924093581735
1667776745555339000,10.342339111328124,1.9150766659647225,9.375501393470168,2.145420960599184
1667776745565390000,10.35239013671875,2.00848034132719,9.297325097855925,2.386654751908034
1667776745575441200,10.362441162109375,1.8835827726788819,9.245117940756678,2.6740017673552035
1667776745585492200,10.3724921875,1.6007006276860831,9.214169844785332,2.9508021082162856
1667776745595544000,10.3825439453125,1.1636066298205405,9.224726894634962,3.117824269758165
1667776745605595100,10.39259521484375,0.7546458897013216,9.298557854521274,3.0228651816472407
1667776745615646200,10.402646240234375,0.9331621627472341,9.421802541396021,2.555230134241283
1667776745625697000,10.412697021484375,1.2891774946205317,9.5211905518651,1.9635029893510043
1667776745635749000,10.4227490234375,1.5385257649324833,9.580866145148873,1.4178548740684986
1667776745645800200,10.43280029296875,1.6655748125262557,9.614901685741543,0.9746157975766807
1667776745655851000,10.44285107421875,1.685181138011068,9.638511693909765,0.6554775133322924
1667776745665902000,10.452902099609375,1.5764552442237734,9.668158059632777,0.4603041199959814
1667776745675954200,10.4629541015625,1.330374889666587,9.707380062952637,0.40895368932392445
1667776745686005000,10.4730048828125,0.9490649575389921,9.748264446526765,0.49091348553225395
1667776745696056000,10.48305615234375,0.4862522887881845,9.774433491528034,0.6279964358843863
1667776745706107100,10.493107177734375,0.009575447513067046,9.778829680660367,0.7380896725021302
1667776745716159200,10.5031591796875,-0.4439004264773801,9.765676769098638,0.7777496288478374
1667776745726210000,10.5132099609375,-0.814348809383437,9.74445161024034,0.7435646698471158
1667776745736261000,10.52326123046875,-1.1043538650587201,9.721258950701355,0.669263973557204
1667776745746312200,10.533312255859375,-1.3814889908321202,9.688093763202428,0.6345869201906025
1667776745756363300,10.54336328125,-1.6948415312819183,9.63883493451476,0.6250978648986667
1667776745766415000,10.5534150390625,-2.0421279055155814,9.574483750635386,0.5739044514192267
1667776745776466200,10.563466064453126,-2.378943885269761,9.502301726999878,0.466136077552475
1667776745786517200,10.573517333984375,-2.6551445066720247,9.433892792162299,0.34966629164014007
1667776745796568000,10.583568115234375,-2.8627567450165747,9.376469946241379,0.2383948415558785
1667776745806620200,10.5936201171875,-3.0176909938797354,9.330223743373155,0.10423652821248397
1667776745816671200,10.603671142578126,-3.1290780697003004,9.293789909467101,-0.06881842438734602
1667776745826722000,10.61372216796875,-3.1952953397125006,9.267530263572931,-0.270843460016977
1667776745836773000,10.623773193359375,-3.201886993062496,9.257397576615213,-0.46786969641204923
1667776745846825200,10.6338251953125,-3.133066554814577,9.271537745648622,-0.6267919554654509
1667776745856876000,10.6438759765625,-2.9935575463593005,9.31076091801226,-0.7202246377266943
1667776745866927000,10.653927001953125,-2.8132389731317757,9.366763375741243,-0.7209890462279319
1667776745876978200,10.663978271484375,-2.6113150095567104,9.432218721470237,-0.6202045398991555
1667776745887030000,10.674030029296874,-2.3830505899362264,9.502819613394141,-0.43345469151511784
1667776745897081000,10.6840810546875,-2.1286257470123466,9.570814122211933,-0.1971539544279687
1667776745907132200,10.694132080078125,-1.8710513540163636,9.626326166075467,0.058152511902339755
1667776745917183200,10.704183349609375,-1.6337968416020274,9.664683661520481,0.3081692560603842
1667776745927234000,10.714234130859374,-1.401004715424031,9.69165174794495,0.5286222712775692
1667776745937286100,10.7242861328125,-1.1306768585126847,9.714905782282353,0.7159270866632461
1667776745947337200,10.734337158203125,-0.8115365284416824,9.732958156323432,0.8839141477145254
1667776745957388300,10.74438818359375,-0.4761535771653056,9.741126265209912,1.0266974286001176
1667776745967439000,10.754439208984374,-0.13478349603703244,9.738413499119877,1.1469620767507702
1667776745977491200,10.7644912109375,0.2157703920925967,9.725158880749344,1.2430214542537927
1667776745987542300,10.774542236328125,0.5589413486303761,9.70004782036841,1.329294985475391
1667776745997593000,10.784593017578125,0.8788908396597951,9.661616675165295,1.4321573940567671
1667776746007644200,10.79464404296875,1.1553485045630485,9.612585810014606,1.5600537061296402
1667776746017696300,10.8046962890625,1.4141091116689144,9.542855855706334,1.7619821997493506
1667776746027747000,10.8147470703125,1.684114677823335,9.43890623641014,2.0594225930571555
1667776746037798100,10.824798095703125,1.942941847359389,9.305588483810425,2.4086105631284416
1667776746047849200,10.83484912109375,2.1789583424113688,9.168439190223813,2.713346812532842
1667776746057901000,10.844901123046874,2.421758652384579,9.049223028212785,2.9012150704875586
1667776746067952000,10.8549521484375,2.6942902298852798,8.945764407303928,2.9806831594780085
1667776746078003200,10.865003173828125,2.9757652845591305,8.848001367688179,3.0046710610479113
1667776746088054300,10.87505419921875,3.236699655507505,8.752497505176066,3.0146175777837634
1667776746098106000,10.885106201171874,3.4602988597959277,8.663135214158892,3.0243694487303494
1667776746108157400,10.895157470703126,3.649350482316315,8.586383982911705,3.021033582305908
1667776746118208300,10.905208251953125,3.8121535648584364,8.526575703158974,2.9892101648047564
1667776746128259000,10.915259033203125,3.944541635392606,8.48648451578915,2.9309654811069366
1667776746138311400,10.9253115234375,4.039530534119904,8.467483462721109,2.8555732632532713
1667776746148362500,10.935362548828126,4.095424563038349,8.469726273211837,2.7679665837317704
1667776746158413000,10.9454130859375,4.108849277278781,8.49213508889675,2.6779481668934224
1667776746168464100,10.955464111328125,4.073981669776141,8.53359698009789,2.598225226359069
1667776746178515200,10.96551513671875,3.9793122122615574,8.594512344309686,2.543590257591009
1667776746188567300,10.9755673828125,3.8030426221638916,8.683233414813875,2.5117186170339583
1667776746198618000,10.9856181640625,3.519766071026027,8.810226640567183,2.482253745357692
1667776746208669200,10.995669189453125,3.1283944713503122,8.969032470166683,2.4372059584937986
1667776746218720300,11.00572021484375,2.6913234890341755,9.132136873742937,2.3518581638149914
1667776746228772000,11.015772216796876,2.306917052195966,9.268045227357744,2.225277610515803
1667776746238823200,11.0258232421875,2.007643305981159,9.371102866250276,2.078986394574493
1667776746248874200,11.035874267578125,1.7687794586740433,9.451873854532836,1.9245546884059905
1667776746258925300,11.04592529296875,1.573403893829137,9.518342761218546,1.7595336375534534
1667776746268977200,11.05597705078125,1.444229524644464,9.568457329952716,1.5903499140635131
1667776746279028200,11.0660283203125,1.434821790960431,9.591654665666818,1.4532054427824914
1667776746289079300,11.076079345703125,1.5921913041464983,9.573482464638351,1.4084496246024965
1667776746299130000,11.086130126953124,1.8465182396538555,9.518424594283104,1.4698121480599045
1667776746309182200,11.09618212890625,2.033772749624401,9.458533312422036,1.6032178712040186
1667776746319233300,11.1062333984375,2.0161577440872787,9.422620287519694,1.8220068987317382
1667776746329284000,11.1162841796875,1.8101446115024387,9.399191481137276,2.132827290355414
1667776746339335200,11.126335205078124,1.4684022812619804,9.388979883724451,2.4210035962335765
1667776746349386200,11.13638623046875,1.092553756345436,9.404917457568645,2.5542592433825133
1667776746359438000,11.14643798828125,0.843850359808281,9.44711233921945,2.492062314927578
1667776746369489200,11.1564892578125,0.8739476841691881,9.49040261489153,2.3105939871430397
1667776746379540200,11.166540283203124,1.03277024570778,9.520379820004106,2.1133207719832656
1667776746389591300,11.17659130859375,1.1880301463287324,9.543435701420902,1.9188032852724193
1667776746399643100,11.18664306640625,1.2760682760700583,9.570349427309631,1.7176814318604767
1667776746409694200,11.196694091796875,1.2657156627513468,9.60851052339971,1.4982815789580344
1667776746419745300,11.206745361328124,1.1257616870075464,9.660651045003533,1.254934594887495
1667776746429796000,11.216796142578126,0.8501388654932379,9.71822937374711,1.0018333287175745
1667776746439848200,11.22684814453125,0.46546460803169754,9.765616563344,0.7657984942913055
1667776746449899300,11.236899169921875,0.037940872901561666,9.790371065372229,0.5635347043026239
1667776746459950300,11.246950439453125,-0.39813181452564894,9.790772047388552,0.3906885493149981
1667776746470001200,11.257001220703126,-0.7973902949936688,9.771056124049425,0.24703305217213928
1667776746480053200,11.26705322265625,-1.123138352766633,9.740949155077338,0.151165936705051
1667776746490104300,11.277104248046875,-1.4145800901815295,9.703446815156935,0.11157887206561863
1667776746500155100,11.287155029296875,-1.729983425681293,9.652352587735653,0.0980341938404832
1667776746510206200,11.297206298828126,-2.086584156227112,9.58185807879567,0.06733915018159896
1667776746520258300,11.30725830078125,-2.4536647797331215,9.494729245918988,-0.0048195074196963105
1667776746530309000,11.31730908203125,-2.7767990017458795,9.404620520448685,-0.11342991589293815
1667776746540360200,11.327360107421875,-3.0282626567766067,9.324313058024645,-0.23912691869009284
1667776746550411300,11.337411376953124,-3.2113156234040856,9.258619811886549,-0.36850915847178545
1667776746560463000,11.347463134765626,-3.345923123553395,9.204201408478617,-0.5077971811201423
1667776746570514200,11.35751416015625,-3.4443238765507935,9.157147980880737,-0.673537193896994
1667776746580565200,11.367565185546875,-3.4788954237163066,9.129231799951196,-0.8513487527396529
1667776746590616300,11.3776162109375,-3.4156901950016616,9.137777509978413,-1.002229999884963
1667776746600667100,11.387667236328125,-3.2629593014016747,9.181558199515939,-1.105659760025516
1667776746610719200,11.39771923828125,-3.066655515795946,9.244788270410895,-1.1401274814903735
1667776746620770300,11.407770263671875,-2.85731952239871,9.318878758016227,-1.0791687165282666
1667776746630821000,11.417821044921874,-2.629906020519137,9.402955217584967,-0.9156418497562407
1667776746640872200,11.4278720703125,-2.3842406765036284,9.48926162816286,-0.6630914224021136
1667776746650924300,11.43792431640625,-2.1356953931376337,9.56503612333238,-0.3453552235079929
1667776746660975000,11.44797509765625,-1.8985026939131318,9.621125090301037,0.0033870591826169402
1667776746671026200,11.458026123046874,-1.6683955690354109,9.657399934253096,0.3484930100770667
1667776746681077200,11.4680771484375,-1.4110697439730167,9.682083709132671,0.6607060616355389
1667776746691129000,11.478129150390625,-1.1115634311113507,9.700033207321166,0.9187789787381887
1667776746701180200,11.48818017578125,-0.8042713597442954,9.70703753312528,1.1388375878103076
1667776746711231200,11.498231201171874,-0.5022238014345989,9.701434306290745,1.3417698516450822
1667776746721282300,11.5082822265625,-0.17836239765845238,9.68519862628281,1.5282263431057332
1667776746731334100,11.518334228515625,0.1519659736420959,9.659792382347582,1.6839488197371362
1667776746741385200,11.52838525390625,0.4762974426154047,9.62445744959414,1.8202568401940167
1667776746751436300,11.538436279296874,0.7733883648984133,9.581209844020009,1.9423351136378944
1667776746761487400,11.5484873046875,1.04962055048272,9.526383444333076,2.0776732661493122
1667776746771539200,11.558539306640625,1.3315142689600585,9.444310141280292,2.2808923841014503
1667776746781590300,11.56859033203125,1.6092491141922771,9.331069546547532,2.5518384459763763
1667776746791641300,11.578641357421875,1.8681319594383239,9.199710526800155,2.8365146347790953
1667776746801692200,11.588692138671876,2.116807737316191,9.069512367525697,3.0713936502337456
1667776746811744300,11.598744140625,2.3724036698460576,8.952115237635374,3.225171714799106
1667776746821795300,11.60879541015625,2.631243698863685,8.844971206212044,3.318651670268178
1667776746831846100,11.61884619140625,2.870575894334912,8.741597340977192,3.3933272642850874
1667776746841897200,11.628897216796876,3.0687843445181846,8.64219705554843,3.47352688242048
1667776746851948300,11.6389482421875,3.222881850296259,8.55513544268906,3.548673601080477
1667776746862000000,11.649000244140625,3.348487128822505,8.49165285833776,3.58467167391777
1667776746872051200,11.65905126953125,3.4551465915992856,8.45411193997264,3.572163490000367
1667776746882102300,11.669102294921874,3.5366175448447463,8.441618953624367,3.5216210512429473
1667776746892153300,11.6791533203125,3.578103693704307,8.454486618503928,3.4480721231684086
1667776746902205200,11.689205078125,3.5553725141972303,8.494955991536377,3.371263316515088
1667776746912256300,11.69925634765625,3.436969129873812,8.571364108434318,3.2999037151783703
1667776746922307300,11.709307373046874,3.196933754569292,8.697389950460195,3.2102097079887986
1667776746932358100,11.719358154296875,2.828432742871344,8.866925848388671,3.0899761856287715
1667776746942410200,11.72941015625,2.387281651634723,9.04539148722589,2.94145998711437
1667776746952461300,11.73946142578125,1.9751627397455274,9.20125015745759,2.7579247899278996
1667776746962512100,11.74951220703125,1.6576969187580048,9.321648222729563,2.55525351511687
1667776746972563200,11.759563232421876,1.4258536177374421,9.415613623628019,2.3417004885464907
1667776746982615300,11.769615234375,1.2554653407633305,9.493732636097073,2.1126365891113874
1667776746992666400,11.779666259765625,1.16756362381801,9.555575636547804,1.8703369221366941
1667776747002717200,11.78971728515625,1.2501347933903335,9.58616658964455,1.6471132731623948
1667776747012768300,11.799768310546876,1.5139162243328987,9.570960252684355,1.5083578595533966
1667776747022819300,11.8098193359375,1.8039133158974348,9.523368480426072,1.490544262704253
1667776747032871200,11.81987109375,1.9532959219828248,9.47937677848637,1.5800145441405473
1667776747042922200,11.829922119140624,1.8755423818252979,9.462357839146256,1.7653557678356766
1667776747052973300,11.839973388671876,1.628901763036847,9.446654658579826,2.0682778074249626
1667776747063024400,11.8500244140625,1.2779612502098083,9.418044065645336,2.4161200619757173
1667776747073076200,11.860076171875,0.8710446562040597,9.38439489402175,2.7101228820502756
1667776747083127300,11.870127197265624,0.46962592896223065,9.364366251471639,2.87376007732898
1667776747093178400,11.880178466796876,0.19486018093498422,9.379249932348728,2.8569384141266343
1667776747103229200,11.890229248046875,0.4194762889146805,9.444683650767802,2.606216517373919
1667776747113281800,11.90028173828125,0.8969653524674475,9.516582765808701,2.191002854339778
1667776747123332900,11.910332763671875,1.2327714245267212,9.570677928611635,1.7472152771197258
1667776747133383700,11.9203837890625,1.387409759183228,9.614642742544412,1.3431748961374164
1667776747143434800,11.930434814453125,1.347303520374745,9.661046766322851,1.009621717571467
1667776747153486800,11.94048681640625,1.1448512220766394,9.70923942708373,0.7683585540376603
1667776747163537700,11.95053759765625,0.8611004775557667,9.749884741204976,0.6071723321076482
1667776747173588700,11.960588623046876,0.5555198497490957,9.779019065752625,0.48225145564898847
1667776747183639800,11.970639892578125,0.2504200459956191,9.796849321475625,0.3597169994028285
1667776747193691600,11.980691650390625,-0.08025891970773227,9.803649064618348,0.2288952100710012
1667776747203742700,11.99074267578125,-0.47891040159277615,9.794477331647276,0.09613527401713653
1667776747213793800,12.000793701171874,-0.9310855756688863,9.762348501458764,-0.0015233545198352657
1667776747223844900,12.010844970703126,-1.3527872124828397,9.712766432166099,-0.05019064791137352
1667776747233896700,12.020896728515625,-1.7100493295468389,9.656042089903353,-0.08342363081634975
1667776747243947800,12.03094775390625,-2.055028157490492,9.587968086108564,-0.13450910867559723
1667776747253998800,12.040998779296874,-2.407118424874544,9.504046524840593,-0.22193826707256956
1667776747264049700,12.051049560546875,-2.741694955138862,9.409496017530559,-0.33893786727897823
1667776747274100500,12.0611005859375,-3.039005000065267,9.312138636106251,-0.4678618784317746
1667776747284152800,12.07115283203125,-3.287447553709149,9.219508867725729,-0.603112864116393
1667776747294203600,12.08120361328125,-3.478973165127635,9.137253778365254,-0.7600796051878481
1667776747304254700,12.091254638671876,-3.6105686239793893,9.068219989627599,-0.949504737195745
1667776747314305500,12.101305419921875,-3.6546591101184487,9.02610694104135,-1.1589901490010321
1667776747324357600,12.111357666015625,-3.5769594921052454,9.028757163289189,-1.36282053071931
1667776747334408700,12.12140869140625,-3.3842055079355835,9.075611268922685,-1.5332310195252299
1667776747344459800,12.131459716796876,-3.1292192317366596,9.149429369327425,-1.6328816264532506
1667776747354510600,12.141510498046875,-2.8649583467140793,9.237073165988921,-1.6244574969790875
1667776747364562700,12.151562744140625,-2.61519506586045,9.33140681567788,-1.5019861325643955
1667776747374613800,12.16161376953125,-2.3853438154399393,9.42545989485979,-1.2811051011934875
1667776747384664800,12.171664794921876,-2.172170143575966,9.511856906330586,-0.9882575155686587
1667776747394715600,12.181715576171875,-1.956749569568038,9.586795535197853,-0.6594586188577115
1667776747404767700,12.191767822265625,-1.726791205511242,9.64762088303864,-0.33463224250692875
1667776747414818800,12.20181884765625,-1.4673155089385808,9.696141460579634,-0.0470060995911248
1667776747424870000,12.211869873046876,-1.1932191663391887,9.731818338638544,0.19575066350130363
1667776747434920400,12.22192041015625,-0.9366513200372457,9.752696876016259,0.42188477482851594
1667776747444971500,12.231971435546875,-0.6854509190525859,9.762033444160222,0.6350086527340114
1667776747455023900,12.24202392578125,-0.38388621235638853,9.764044199460745,0.8285232460126281
1667776747465074400,12.252074462890626,-0.03153635103794513,9.755969614076614,0.995219244340062
1667776747475125500,12.26212548828125,0.3386935736617073,9.734915720131992,1.1344901331905275
1667776747485176600,12.272176513671875,0.7187240969706327,9.69456149791181,1.2920058499142526
1667776747495228700,12.282228759765625,1.0770751783151178,9.630899465340375,1.502025733922422
1667776747505279500,12.292279541015626,1.4004182938382028,9.546182954302429,1.7548783590935169
1667776747515330600,12.30233056640625,1.7038690334767101,9.440778460022807,2.034433259359747
1667776747525381600,12.312381591796875,1.9874244015559552,9.31590997133851,2.331166527311504
1667776747535433700,12.322433837890625,2.2567203581362962,9.178555510568618,2.613748374183476
1667776747545484500,12.332484619140626,2.5286679982692,9.042479983693362,2.830154159836471
1667776747555535600,12.34253564453125,2.804795262174308,8.91793415109217,2.96208659555763
1667776747565586700,12.352586669921875,3.069531071232259,8.805763815939425,3.0342838167622683
1667776747575638800,12.362638671875,3.3024589526191352,8.701377558791638,3.090341219548881
1667776747585689600,12.372689697265624,3.4975115691199896,8.602836520540714,3.1510324196159836
1667776747595740700,12.38274072265625,3.6718656809851526,8.518464877417683,3.181757520486414
1667776747605791500,12.39279150390625,3.836994868387282,8.45700298523903,3.1507103480547665
1667776747615843800,12.40284375,3.9822637555435296,8.42053758715093,3.0670033063203093
1667776747625894700,12.412894775390624,4.0885134684756395,8.409094402116537,2.9566145938873287
1667776747635945500,12.422945556640625,4.140533286309242,8.423084349024295,2.8421877119794487
1667776747645996500,12.43299658203125,4.131519081987441,8.46302297618091,2.7346307158410545
1667776747656047600,12.443047607421875,4.047292984814941,8.532102942147851,2.6444351888701316
1667776747666099500,12.453099365234374,3.8536855986863374,8.640922797828912,2.5795263711079954
1667776747676150500,12.463150634765626,3.531377013842761,8.795742772662638,2.516873807840049
1667776747686201600,12.47320166015625,3.1063419217571613,8.98274360013306,2.414813947813213
1667776747696252700,12.483252685546875,2.6515979201063513,9.170671479320525,2.2445874372720716
1667776747706304500,12.493304443359374,2.258728336957842,9.326751098826527,2.0199594744578
1667776747716355600,12.50335546875,1.9724251314751802,9.44110813036859,1.7735181776337325
1667776747726406700,12.51340673828125,1.7851381805397568,9.521347788253426,1.5256410027876495
1667776747736457500,12.52345751953125,1.6942743989184499,9.570605447897314,1.30512193659693
1667776747746509600,12.533509521484374,1.7143255455613136,9.587015899950265,1.149175295820832
1667776747756560600,12.543560546875,1.873543755353987,9.562264905053377,1.1060414528194815
1667776747766611500,12.553611572265625,2.1326485727876423,9.497295297014713,1.1931401828188448
1667776747776662500,12.56366259765625,2.359101412941515,9.42451121583283,1.3355281807765365
1667776747786714600,12.573714599609374,2.462069035463035,9.37907691386938,1.463380653707683
1667776747796765400,12.583765380859376,2.4263522637851533,9.360513667696713,1.6321734781838952
1667776747806816500,12.59381640625,2.223868474370241,9.359648575299978,1.9030951362699269
1667776747816867600,12.60386767578125,1.908759884033352,9.357617361733316,2.227552861971408
1667776747826919700,12.613919677734375,1.516716668706387,9.359575510063767,2.5036519226953384
1667776747836970500,12.623970458984376,1.0669454139668493,9.374920378711819,2.672617034998536
1667776747847021600,12.634021484375,0.6586996902491897,9.40880569717884,2.6853099278330803
1667776747857072600,12.64407275390625,0.8550451230395585,9.45828547514081,2.445428866307437
1667776747867123700,12.654123779296874,1.2994997128009795,9.507882157480717,2.020358264517039
1667776747877175600,12.664175537109376,1.6110130551248787,9.560848608514666,1.471462399484962
1667776747887226600,12.6742265625,1.7410631842307744,9.616274143138527,0.8163091496709733
1667776747897277700,12.684277587890625,1.6855132925748824,9.659245854380726,0.16850412546163424
1667776747907328500,12.69432861328125,1.509726955949515,9.68553706445694,-0.28547475530188526
1667776747917380600,12.704380615234374,1.3133951132930815,9.704605337542295,-0.5157552274525166
1667776747927431700,12.714431640625,1.1117506242465227,9.72471815124452,-0.6035234176786616
1667776747937482500,12.724482421875,0.8636014275260269,9.749455702137947,-0.6104919415170327
1667776747947533600,12.734533447265624,0.5318223824931309,9.774153505542873,-0.5945506048131733
1667776747957585700,12.744585693359374,0.12430799612416885,9.788269124656916,-0.5871510326137765
1667776747967636500,12.754636474609375,-0.35502807440161704,9.782488203167915,-0.5892982372429222
1667776747977687600,12.7646875,-0.8972598784346133,9.746821261981129,-0.6039870896676555
1667776747987738600,12.774738525390624,-1.3704200459375977,9.6890985563308,-0.643198315865174
1667776747997790500,12.78479052734375,-1.7163671343915163,9.63085387263298,-0.6863844735756516
1667776748007841500,12.794841552734376,-2.0041900967873634,9.573232873791456,-0.7119159513257444
1667776748017892600,12.804892578125,-2.299460598710179,9.50412718886137,-0.7446016116794199
1667776748027943700,12.814943603515625,-2.615686941030621,9.41650794211924,-0.8111385421000421
1667776748037995500,12.82499560546875,-2.924633355475962,9.315863794109225,-0.9119065356854349
1667776748048046600,12.835046630859376,-3.191180305609107,9.213830822089314,-1.0450137142743914
1667776748058097700,12.84509765625,-3.381371745814383,9.124738580185175,-1.2148460378661752
1667776748068148700,12.855148681640625,-3.4621211067870257,9.065474490311741,-1.4146607542023062
1667776748078199600,12.865199462890626,-3.4475086440667506,9.035792468753456,-1.6246603260748087
1667776748088251600,12.875251708984376,-3.353944225184619,9.029850803744793,-1.83935755424425
1667776748098302700,12.885302734375,-3.1571447650164366,9.057143884339927,-2.0422946403846143
1667776748108354000,12.89535400390625,-2.8776082771897316,9.116138509622216,-2.1876380540817975
1667776748118405000,12.905405029296874,-2.5853242437317965,9.195230166515707,-2.221306953319162
1667776748128457000,12.91545703125,-2.327116959659755,9.287127528968453,-2.1223003433831034
1667776748138508000,12.925508056640625,-2.093150382874906,9.387063236448169,-1.9162810733184217
1667776748148559000,12.93555908203125,-1.8586112668991088,9.487336213058233,-1.6451124547339975
