time,seconds_elapsed,z,y,x
1667776735252813300,0.039813232421875,0.42411237955093384,0.18691386282444,0.41934069991111755
1667776735262865400,0.049865478515625,0.5620214939117432,0.1053585633635521,0.2814110815525055
1667776735272916200,0.059916259765625,0.6798575520515442,0.04028632119297981,0.09935726225376129
1667776735282967300,0.06996728515625,0.7818489074707031,-0.03992569446563721,-0.10987478494644165
1667776735293018400,0.080018310546875,0.8451898097991943,-0.1296556442975998,-0.2992689907550812
1667776735303070200,0.0900703125,0.8680629134178162,-0.15658819675445557,-0.43260520696640015
1667776735313121300,0.100121337890625,0.8772343397140503,-0.13192297518253326,-0.4537372291088104
1667776735323172400,0.11017236328125,0.8807156085968018,-0.10687913000583649,-0.3594458997249603
1667776735333223400,0.120223388671875,0.8796887993812561,-0.11848744750022888,-0.18847833573818207
1667776735343275300,0.130275146484375,0.8376803994178772,-0.16885127127170563,0.03297548368573189
1667776735353326300,0.140326416015625,0.7353824377059937,-0.3044240474700928,0.23533959686756134
1667776735363377400,0.15037744140625,0.616788387298584,-0.4492605924606323,0.38306114077568054
1667776735373428200,0.16042822265625,0.614922046661377,-0.39622819423675537,0.43984994292259216
1667776735383480300,0.170480224609375,0.6934472322463989,-0.15052680671215057,0.32700595259666443
1667776735393531400,0.180531494140625,0.7137550115585327,0.24356584250926971,0.09058276563882828
1667776735403582200,0.190582275390625,0.7057189345359802,0.6297127604484558,-0.1220429465174675
1667776735413633300,0.20063330078125,0.6105973124504089,1.015093445777893,-0.2995350658893585
1667776735423685400,0.210685302734375,0.4313857853412628,1.3326034545898438,-0.4381275773048401
1667776735433736400,0.220736328125,0.200638085603714,1.5480945110321045,-0.545708417892456
1667776735443787300,0.230787353515625,-0.05115899816155434,1.7010303735733032,-0.6169946193695068
1667776735453838300,0.24083837890625,-0.23481948673725128,1.7235989570617676,-0.6366370320320129
1667776735463890400,0.250890380859375,-0.322650283575058,1.4759538173675537,-0.6047680377960205
1667776735473941200,0.260941162109375,-0.3182411789894104,0.8859879374504089,-0.3853832483291626
1667776735483992300,0.270992431640625,-0.24270939826965332,0.29908260703086853,0.03220547363162041
1667776735494043400,0.28104345703125,-0.1527784913778305,-0.01434162724763155,0.4400183856487274
1667776735504095200,0.29109521484375,-0.024256737902760506,-0.09932682663202286,0.8693128228187561
1667776735514146300,0.301146240234375,0.2718367576599121,0.09869784861803055,1.1125493049621582
1667776735524197400,0.311197265625,0.7811985611915588,0.661922812461853,0.7400718331336975
1667776735534248400,0.32124853515625,1.1276512145996094,1.040128469467163,0.06000542268157005
1667776735544300300,0.33130029296875,1.064094066619873,1.1653178930282593,-0.3861299753189087
1667776735554351400,0.341351318359375,0.8419754505157471,1.1815212965011597,-0.6068877577781677
1667776735564402400,0.35140234375,0.5351446270942688,0.9854487180709839,-0.6237974762916565
1667776735574453200,0.361453369140625,0.09772450476884842,0.7024851441383362,-0.5873389840126038
1667776735584505300,0.37150537109375,-0.2797093391418457,0.4502390921115875,-0.5078529715538025
1667776735594556400,0.381556396484375,-0.3687847852706909,0.314340740442276,-0.48908910155296326
1667776735604607200,0.391607177734375,-0.21286150813102722,0.29884886741638184,-0.503799319267273
1667776735614658300,0.401658203125,0.0762128010392189,0.28172948956489563,-0.47569286823272705
1667776735624710400,0.41171044921875,0.3072734773159027,0.22279956936836243,-0.38744476437568665
1667776735634761200,0.42176123046875,0.4165220856666565,0.038013018667697906,-0.27961933612823486
1667776735644812300,0.431812255859375,0.39060312509536743,-0.14676055312156677,-0.2606043815612793
1667776735654863400,0.44186328125,0.2685367166996002,-0.20066827535629272,-0.36845362186431885
1667776735664915200,0.451915283203125,0.11621857434511185,-0.2693740725517273,-0.5138196349143982
1667776735674966300,0.46196630859375,-0.035901278257369995,-0.36751285195350647,-0.5827482342720032
1667776735685017300,0.472017333984375,-0.14133848249912262,-0.4685870110988617,-0.5500819087028503
1667776735695068400,0.482068359375,-0.17924286425113678,-0.49993056058883667,-0.4691215753555298
1667776735705120300,0.492120361328125,-0.22082093358039856,-0.44059133529663086,-0.38831618428230286
1667776735715171300,0.50217138671875,-0.2964448630809784,-0.37480899691581726,-0.32906100153923035
1667776735725222400,0.512222412109375,-0.3746453821659088,-0.3634639084339142,-0.2758878171443939
1667776735735273500,0.5222734375,-0.4325307309627533,-0.3681570589542389,-0.19062212109565735
1667776735745325300,0.5323251953125,-0.4752978980541229,-0.40095922350883484,-0.07400922477245331
1667776735755376400,0.54237646484375,-0.5131717920303345,-0.42594632506370544,0.039806514978408813
1667776735765427500,0.552427490234375,-0.5420084595680237,-0.455907940864563,0.10784841328859329
1667776735775478300,0.562478271484375,-0.5574131011962891,-0.6320163607597351,0.13399575650691986
1667776735785530400,0.5725302734375,-0.5275095105171204,-0.7412205934524536,0.1266467571258545
1667776735795581400,0.58258154296875,-0.4980206787586212,-0.6930109262466431,0.12380678951740265
1667776735805632300,0.59263232421875,-0.4814499318599701,-0.5247140526771545,0.14524976909160614
1667776735815683300,0.602683349609375,-0.4959926903247833,-0.2578757405281067,0.17182692885398865
1667776735825735400,0.6127353515625,-0.5292643904685974,0.04525403305888176,0.22050072252750397
1667776735835786200,0.6227861328125,-0.5386753082275391,0.4275830388069153,0.2853521704673767
1667776735845837300,0.63283740234375,-0.4816029667854309,0.8048679828643799,0.3879685401916504
1667776735855888400,0.642888427734375,-0.40949976444244385,1.2122498750686646,0.5303949117660522
1667776735865940200,0.652940185546875,-0.37919750809669495,1.499406337738037,0.6754937767982483
1667776735875991300,0.6629912109375,-0.3419169783592224,1.5622388124465942,0.7723906636238098
1667776735886042400,0.67304248046875,-0.4294196665287018,1.3563966751098633,0.7705674171447754
1667776735896093400,0.683093505859375,-0.6382718682289124,1.0174109935760498,0.5977113246917725
1667776735906145300,0.693145263671875,-0.8195444941520691,0.6426755785942078,0.22303013503551483
1667776735916196400,0.7031962890625,-0.830060601234436,0.5607178807258606,-0.1732102632522583
1667776735926247400,0.713247314453125,-0.7369479537010193,0.4683680236339569,-0.3961346745491028
1667776735936298500,0.723298583984375,-0.6113662719726562,0.08701017498970032,-0.3890230059623718
1667776735946350300,0.733350341796875,-0.4966091215610504,-0.4993380010128021,-0.21325170993804932
1667776735956401400,0.7434013671875,-0.43038225173950195,-1.115943431854248,-0.06133578345179558
1667776735966452500,0.753452392578125,-0.34068378806114197,-1.5376248359680176,-0.07566145807504654
1667776735976503300,0.76350341796875,-0.18852902948856354,-1.597767949104309,-0.19921563565731049
1667776735986555400,0.773555419921875,-0.04093984514474869,-1.5528005361557007,-0.29605960845947266
1667776735996606500,0.7836064453125,0.03438497334718704,-1.5301570892333984,-0.3234245181083679
1667776736006657300,0.7936572265625,0.016299445182085037,-1.4504867792129517,-0.3134879767894745
1667776736016708400,0.803708251953125,-0.07152680307626724,-1.1986202001571655,-0.26544201374053955
1667776736026760400,0.813760498046875,-0.22070111334323883,-0.7720077037811279,-0.14673000574111938
1667776736036811300,0.823811279296875,-0.3533172607421875,-0.3587324917316437,0.04293058440089226
1667776736046862300,0.8338623046875,-0.37634214758872986,0.03409627452492714,0.3196655213832855
1667776736056913400,0.843913330078125,-0.2932218313217163,0.27712953090667725,0.6434351801872253
1667776736066965200,0.85396533203125,-0.18878436088562012,0.14283056557178497,0.882174015045166
1667776736077016300,0.864016357421875,-0.07330978661775589,-0.2091004103422165,0.8924578428268433
1667776736087067400,0.8740673828125,0.049650754779577255,-0.5644294619560242,0.706203281879425
1667776736097118500,0.884118408203125,0.011060412973165512,-0.8860408067703247,0.4449770748615265
1667776736107170300,0.89417041015625,-0.13415217399597168,-1.131259560585022,0.14004993438720703
1667776736117221400,0.904221435546875,-0.3086835741996765,-1.2389248609542847,-0.14837850630283356
1667776736127272400,0.9142724609375,-0.4532855153083801,-1.1851515769958496,-0.32147490978240967
1667776736137323300,0.9243232421875,-0.4740176200866699,-0.9046462178230286,-0.3215699791908264
1667776736147375400,0.934375244140625,-0.3675529658794403,-0.552239179611206,-0.09926848113536835
1667776736157426400,0.944426513671875,-0.20520734786987305,-0.220140740275383,0.29125890135765076
1667776736167477200,0.954477294921875,-0.05049605667591095,0.00554218515753746,0.7258894443511963
1667776736177528300,0.9645283203125,0.05808032304048538,0.13407549262046814,1.0359272956848145
1667776736187580400,0.974580322265625,0.11536625027656555,0.11426609754562378,1.1782325506210327
1667776736197631200,0.98463134765625,0.20509156584739685,0.1355273723602295,1.0716240406036377
1667776736207682300,0.994682373046875,0.2700687050819397,0.2726181447505951,0.8140841722488403
1667776736217733400,1.0047333984375,0.19519604742527008,0.335538774728775,0.5641254782676697
1667776736227785500,1.014785400390625,0.08106255531311035,0.34077534079551697,0.3053276836872101
1667776736237836300,1.024836181640625,-0.03610066697001457,0.31905442476272583,0.08088460564613342
1667776736247887400,1.034887451171875,-0.1334810107946396,0.2374541014432907,-0.10984620451927185
1667776736257938400,1.0449384765625,-0.1841372847557068,0.05454639345407486,-0.30547747015953064
1667776736267990300,1.054990234375,-0.15996724367141724,-0.1846291869878769,-0.4995923340320587
1667776736278041300,1.065041259765625,-0.04310235381126404,-0.3996559679508209,-0.6151369214057922
1667776736288092400,1.075092529296875,0.061744168400764465,-0.5277462601661682,-0.6489949822425842
1667776736298143500,1.0851435546875,0.09931477159261703,-0.4982936978340149,-0.7262839078903198
1667776736308195300,1.0951953125,0.05926376208662987,-0.2517632842063904,-0.8790849447250366
1667776736318246400,1.105246337890625,-0.003584617283195257,0.013245942071080208,-1.02518630027771
1667776736328297500,1.11529736328125,-0.014406371861696243,0.12665052711963654,-1.1322267055511475
1667776736338348300,1.125348388671875,0.0477515310049057,0.38264599442481995,-1.2899893522262573
1667776736348400400,1.135400390625,0.14516782760620117,0.5234646201133728,-1.4288095235824585
1667776736358451500,1.145451416015625,0.2197341024875641,0.568596363067627,-1.5000560283660889
1667776736368502300,1.155502197265625,0.24842487275600433,0.5547886490821838,-1.485383152961731
1667776736378553300,1.16555322265625,0.2540101408958435,0.5374347567558289,-1.3553467988967896
1667776736388605400,1.17560546875,0.2496444433927536,0.5377508997917175,-1.1404813528060913
1667776736398656300,1.18565625,0.24718430638313293,0.5214996933937073,-0.8581949472427368
1667776736408707300,1.195707275390625,0.26401999592781067,0.4753953218460083,-0.5095200538635254
1667776736418758400,1.20575830078125,0.285080224275589,0.494342178106308,-0.1430925875902176
1667776736428810200,1.215810302734375,0.3222813904285431,0.5979835987091064,0.17827612161636353
1667776736438861300,1.225861328125,0.48277515172958374,0.8068820238113403,0.43387383222579956
1667776736448912400,1.235912353515625,0.6216725707054138,1.0251708030700684,0.6181555390357971
1667776736458963500,1.24596337890625,0.6403456330299377,1.180558681488037,0.7291191220283508
1667776736469015300,1.256015380859375,0.5968959331512451,1.3111534118652344,0.7442956566810608
1667776736479066400,1.26606640625,0.5242995619773865,1.3886926174163818,0.6657357215881348
1667776736489117400,1.276117431640625,0.4562571048736572,1.374306559562683,0.5187848806381226
1667776736499168500,1.28616845703125,0.40041983127593994,1.2502329349517822,0.36045554280281067
1667776736509220400,1.296220458984375,0.34851908683776855,0.9343113899230957,0.22332115471363068
1667776736519271400,1.306271484375,0.27222853899002075,0.4543432891368866,0.11318665742874146
1667776736529322500,1.316322509765625,0.17371715605258942,-0.06976895779371262,0.0068761990405619144
1667776736539373300,1.326373291015625,0.08899543434381485,-0.5620977282524109,-0.09311845153570175
1667776736549425400,1.33642529296875,0.02911665476858616,-0.9714123010635376,-0.21294765174388885
1667776736559476500,1.3464765625,-0.004218930844217539,-1.2761633396148682,-0.333661288022995
1667776736569527300,1.35652734375,0.06967126578092575,-1.1382139921188354,-0.45224225521087646
1667776736579578400,1.366578369140625,0.2378787100315094,-0.651717483997345,-0.5412533283233643
1667776736589630500,1.37663037109375,0.4358871281147003,-0.1974402815103531,-0.5379939079284668
1667776736599681300,1.386681396484375,0.5990045070648193,0.18278703093528748,-0.4970310628414154
1667776736609732400,1.396732421875,0.6567394733428955,0.4595129191875458,-0.46163472533226013
1667776736619783400,1.406783447265625,0.581734836101532,0.6405923962593079,-0.4443041682243347
1667776736629835300,1.416835205078125,0.42631012201309204,0.7056121230125427,-0.43979331851005554
1667776736639886300,1.42688623046875,0.25755569338798523,0.6327797770500183,-0.4428942799568176
1667776736649937400,1.4369375,0.17843130230903625,0.3738020360469818,-0.43054282665252686
1667776736659988500,1.446988525390625,0.21650440990924835,-0.15113499760627747,-0.25829222798347473
1667776736670040300,1.457040283203125,0.32439759373664856,-0.3079003691673279,-0.19871756434440613
1667776736680091400,1.46709130859375,0.4381461441516876,-0.4106360971927643,-0.3167344927787781
1667776736690142500,1.477142578125,0.537234365940094,-0.5536499619483948,-0.500312328338623
1667776736700193300,1.487193359375,0.52691650390625,-0.7539005875587463,-0.6608452796936035
1667776736710245400,1.497245361328125,0.3515273630619049,-0.802564263343811,-0.7894948720932007
1667776736720296400,1.50729638671875,0.09682074189186096,-0.7337968349456787,-0.8157030344009399
1667776736730347500,1.517347412109375,-0.07745838165283203,-0.6184121966362,-0.786107063293457
1667776736740398300,1.5273984375,-0.12660402059555054,-0.5679893493652344,-0.736800491809845
1667776736750450400,1.537450439453125,-0.11671198159456253,-0.5089289546012878,-0.6547412872314453
1667776736760501500,1.54750146484375,-0.05398878455162048,-0.45157116651535034,-0.5329397916793823
1667776736770552300,1.55755224609375,0.04286399483680725,-0.44117552042007446,-0.33136749267578125
1667776736780604400,1.5676044921875,0.10077007859945297,-0.4834108054637909,-0.11397112905979156
1667776736790655500,1.577655517578125,0.12546850740909576,-0.5074328184127808,0.010641906410455704
1667776736800706300,1.587706298828125,0.13321545720100403,-0.46552079916000366,0.003800099715590477
1667776736810757400,1.59775732421875,0.08676514029502869,-0.35479244589805603,-0.03229372203350067
1667776736820808400,1.607808349609375,-0.013944745063781738,-0.1876455694437027,-0.013015761971473694
1667776736830860300,1.6178603515625,-0.12643879652023315,-0.05635411664843559,0.019550437107682228
1667776736840911400,1.627911376953125,-0.1944165676832199,0.014609511941671371,0.007469674572348595
1667776736850962400,1.63796240234375,-0.17228837311267853,0.06189632788300514,-0.06860405951738358
1667776736861013500,1.648013427734375,-0.09265656024217606,0.03816168010234833,-0.15053632855415344
1667776736871065300,1.6580654296875,0.026092462241649628,-0.047717273235321045,-0.22501268982887268
1667776736881116400,1.668116455078125,0.1413942128419876,-0.11645159870386124,-0.28057408332824707
1667776736891167500,1.67816748046875,0.16623139381408691,-0.13493579626083374,-0.3327872157096863
1667776736901219300,1.68821923828125,0.07657863944768906,-0.1770526021718979,-0.40869200229644775
1667776736911270400,1.6982705078125,-0.06288152188062668,-0.20854288339614868,-0.49576565623283386
1667776736921321500,1.708321533203125,-0.19700588285923004,-0.17676867544651031,-0.5677412748336792
1667776736931372300,1.718372314453125,-0.33952760696411133,-0.10850892961025238,-0.5815522074699402
1667776736941423400,1.72842333984375,-0.4902329444885254,-0.024390680715441704,-0.5076388120651245
1667776736951475500,1.738475341796875,-0.6004945039749146,0.04747738689184189,-0.3534031808376312
1667776736961526300,1.7485263671875,-0.6619653701782227,0.10006333142518997,-0.15940427780151367
1667776736971577300,1.758577392578125,-0.6575160026550293,0.1518213301897049,0.03632021322846413
1667776736981629400,1.76862939453125,-0.6017307043075562,0.19824452698230743,0.18183226883411407
1667776736991680300,1.77868017578125,-0.5417062640190125,0.19828739762306213,0.25754114985466003
1667776737001731300,1.7887314453125,-0.5205684304237366,0.18464991450309753,0.24847613275051117
1667776737011782400,1.798782470703125,-0.5535743236541748,0.1779041290283203,0.18498559296131134
1667776737021834500,1.80883447265625,-0.6153799295425415,0.20538605749607086,0.11721093207597733
1667776737031885300,1.81888525390625,-0.7219879031181335,0.2875469923019409,0.06321774423122406
1667776737041936400,1.828936279296875,-0.8446776866912842,0.4095768928527832,0.04416058585047722
1667776737051987500,1.838987548828125,-0.9710708260536194,0.5367563962936401,0.07491903007030487
1667776737062039300,1.849039306640625,-1.0687772035598755,0.6173732280731201,0.1849532276391983
1667776737072090400,1.85909033203125,-1.0762760639190674,0.6117722988128662,0.3643711805343628
1667776737082141400,1.869141357421875,-1.0128390789031982,0.5322146415710449,0.5514129996299744
1667776737092192500,1.879192626953125,-0.9076079726219177,0.4510252773761749,0.6676402688026428
1667776737102244600,1.88924462890625,-0.8233602046966553,0.39869511127471924,0.7001766562461853
1667776737112295700,1.899295654296875,-0.7871465086936951,0.34418365359306335,0.6240072846412659
1667776737122346800,1.9093466796875,-0.7906484603881836,0.26861903071403503,0.4718858301639557
1667776737132397300,1.919397216796875,-0.8493983149528503,0.20365308225154877,0.28463470935821533
1667776737142449700,1.92944970703125,-0.9231501817703247,0.17028896510601044,0.10984823852777481
1667776737152500700,1.939500732421875,-0.9851861596107483,0.1779082715511322,0.02769690379500389
1667776737162551600,1.949551513671875,-1.0024919509887695,0.22019432485103607,0.07269099354743958
1667776737172602400,1.959602294921875,-0.9815855622291565,0.2720021605491638,0.2037172019481659
1667776737182654700,1.96965478515625,-0.9486478567123413,0.2960607707500458,0.34928077459335327
1667776737192705500,1.97970556640625,-0.914311408996582,0.3301316499710083,0.4624440670013428
1667776737202756600,1.989756591796875,-0.873290479183197,0.39123082160949707,0.542640745639801
1667776737212807400,1.999807373046875,-0.8318673968315125,0.47776439785957336,0.5677623748779297
1667776737222859500,2.009859619140625,-0.8076144456863403,0.5966699123382568,0.5415967106819153
1667776737232910600,2.01991064453125,-0.7814424633979797,0.7287680506706238,0.4965302050113678
1667776737242961700,2.029961669921875,-0.7629215717315674,0.8198615312576294,0.46759387850761414
1667776737253012500,2.040012451171875,-0.7249957323074341,0.8604661822319031,0.4220159947872162
1667776737263064600,2.050064697265625,-0.6606335639953613,0.8074134588241577,0.34357979893684387
1667776737273115600,2.06011572265625,-0.5633850693702698,0.6703674793243408,0.24565215408802032
1667776737283166700,2.070166748046875,-0.4448067247867584,0.5314698219299316,0.18008653819561005
1667776737293217500,2.080217529296875,-0.35896772146224976,0.38251179456710815,0.16838380694389343
1667776737303269600,2.09026953125,-0.309529572725296,0.25177833437919617,0.1919906735420227
1667776737313320700,2.10032080078125,-0.29682815074920654,0.18169701099395752,0.22499682009220123
1667776737323371800,2.110371826171875,-0.2941269874572754,0.18540331721305847,0.2516888678073883
1667776737333422300,2.12042236328125,-0.3024243116378784,0.287760853767395,0.27427539229393005
1667776737343474700,2.130474609375,-0.3154381513595581,0.4993126690387726,0.30537208914756775
1667776737353525800,2.14052587890625,-0.32063451409339905,0.7617295980453491,0.30384156107902527
1667776737363576600,2.15057666015625,-0.34081774950027466,0.9846205115318298,0.24565136432647705
1667776737373627400,2.16062744140625,-0.38153454661369324,1.1727147102355957,0.15181460976600647
1667776737383679700,2.1706796875,-0.4101877212524414,1.3771363496780396,0.07631732523441315
1667776737393730600,2.18073046875,-0.4113408625125885,1.6166200637817383,0.04160408675670624
1667776737403781400,2.190781494140625,-0.3975307047367096,1.8479690551757812,0.045107293874025345
1667776737413832400,2.20083251953125,-0.40009188652038574,1.9974746704101562,0.0384022518992424
1667776737423884500,2.210884521484375,-0.4191323518753052,2.05781626701355,-0.05599570274353027
1667776737433935600,2.220935546875,-0.4498426020145416,2.0047991275787354,-0.23257286846637726
1667776737443986400,2.230986328125,-0.46663960814476013,1.9078640937805176,-0.4418591260910034
1667776737454037500,2.24103759765625,-0.4433467984199524,1.8270750045776367,-0.6802019476890564
1667776737464089600,2.251089599609375,-0.4090273678302765,1.7738760709762573,-0.8760122060775757
1667776737474140700,2.261140625,-0.4119885563850403,1.8136383295059204,-1.0493601560592651
1667776737484191500,2.27119140625,-0.4553739130496979,1.8224031925201416,-1.2841392755508423
1667776737494242300,2.2812421875,-0.5016106367111206,1.754745364189148,-1.5268718004226685
1667776737504294700,2.291294677734375,-0.5380468368530273,1.6225351095199585,-1.772378921508789
1667776737514345700,2.301345703125,-0.6000694632530212,1.378933310508728,-1.9035807847976685
1667776737524396500,2.311396484375,-0.679144561290741,1.1577088832855225,-1.8162907361984253
1667776737534447400,2.321447265625,-0.7529155015945435,1.0469400882720947,-1.5085214376449585
1667776737544499700,2.331499755859375,-0.7784842848777771,1.1363964080810547,-1.029982566833496
1667776737554550500,2.341550537109375,-0.7587867975234985,1.4128907918930054,-0.46151432394981384
1667776737564601300,2.351601318359375,-0.7637102007865906,1.7974727153778076,0.0839105173945427
1667776737574652400,2.36165234375,-0.81215900182724,2.202082395553589,0.5607987642288208
1667776737584704500,2.37170458984375,-0.8591784834861755,2.5292370319366455,0.9154497385025024
1667776737594755600,2.381755615234375,-0.8524824976921082,2.6961607933044434,1.0754612684249878
1667776737604806400,2.391806396484375,-0.803873598575592,2.611050605773926,1.0040696859359741
1667776737614857500,2.401857421875,-0.7432323694229126,2.2562479972839355,0.78419429063797
1667776737624909600,2.41190966796875,-0.7023909091949463,1.7768133878707886,0.46032729744911194
1667776737634960600,2.421960693359375,-0.7323325276374817,1.339078664779663,0.07085064053535461
1667776737645011500,2.432011474609375,-0.8295121788978577,1.0007299184799194,-0.29750460386276245
1667776737655062500,2.4420625,-0.9687411785125732,0.8370389342308044,-0.539323627948761
1667776737665114600,2.452114501953125,-1.180923581123352,1.0297807455062866,-0.6091586947441101
1667776737675165400,2.46216552734375,-1.4529931545257568,1.5621713399887085,-0.47911569476127625
1667776737685216500,2.472216552734375,-1.7540160417556763,2.296713352203369,-0.10889327526092529
1667776737695267300,2.482267333984375,-2.0476510524749756,3.173894166946411,0.4442306160926819
1667776737705319700,2.492319580078125,-2.349022626876831,4.124412536621094,0.9939497709274292
1667776737715370500,2.50237060546875,-2.5865845680236816,5.089424133300781,1.5418976545333862
1667776737725421300,2.51242138671875,-2.9079322814941406,6.087299346923828,2.067922353744507
1667776737735472400,2.522472412109375,-3.2631614208221436,7.015774726867676,2.4971554279327393
1667776737745524700,2.532524658203125,-3.5740230083465576,7.775284767150879,2.814784049987793
1667776737755575300,2.5425751953125,-3.8393261432647705,8.160590171813965,3.0120627880096436
1667776737765626400,2.55262646484375,-4.0149455070495605,8.129876136779785,3.1116716861724854
1667776737775677400,2.562677490234375,-4.112527370452881,7.795238971710205,3.149188280105591
1667776737785729500,2.5727294921875,-4.152670860290527,7.28521203994751,3.2223575115203857
1667776737795780400,2.5827802734375,-4.170283317565918,6.765364170074463,3.3893938064575195
1667776737805831400,2.59283154296875,-4.157045841217041,6.281955718994141,3.643009901046753
1667776737815882500,2.602882568359375,-4.05201530456543,5.754885673522949,3.91052508354187
1667776737825934600,2.6129345703125,-3.883547306060791,5.220478057861328,4.110302925109863
1667776737835985400,2.6229853515625,-3.599323272705078,4.708573341369629,4.214869022369385
1667776737846036500,2.633036376953125,-3.2491400241851807,4.250936985015869,4.229671955108643
1667776737856087600,2.643087646484375,-2.897027015686035,3.8341598510742188,4.131526470184326
1667776737866139600,2.6531396484375,-2.520646572113037,3.4001102447509766,3.8943254947662354
1667776737876190500,2.6631904296875,-2.1393723487854004,2.9476261138916016,3.5466794967651367
1667776737886241500,2.673241455078125,-1.8025600910186768,2.436122417449951,3.130157470703125
1667776737896292400,2.683292236328125,-1.506445288658142,1.8877252340316772,2.690365791320801
1667776737906344400,2.693344482421875,-1.2416990995407104,1.4021551609039307,2.2994911670684814
1667776737916395500,2.7033955078125,-0.9589195251464844,1.0970979928970337,2.0142457485198975
1667776737926446300,2.7134462890625,-0.6090420484542847,1.0183619260787964,1.88092839717865
1667776737936497400,2.723497314453125,-0.16146400570869446,1.1228364706039429,1.640049695968628
1667776737946549500,2.733549560546875,0.4687027335166931,0.8964695334434509,0.1897769570350647
1667776737956600300,2.743600341796875,0.6291320323944092,-0.11519745737314224,-1.4192780256271362
1667776737966651400,2.7536513671875,0.658169150352478,-0.7991542220115662,-1.8745863437652588
1667776737976702500,2.763702392578125,0.7686418890953064,-0.7415276765823364,-1.557793378829956
1667776737986754300,2.77375439453125,0.8900675177574158,-0.4168788194656372,-0.8759695887565613
1667776737996805400,2.783805419921875,0.9213988184928894,-0.015434199944138527,-0.24475669860839844
1667776738006856400,2.7938564453125,0.9573835730552673,0.30374908447265625,0.1284852921962738
1667776738016907500,2.803907470703125,1.0178821086883545,0.5248807072639465,0.2435447722673416
1667776738026959400,2.81395947265625,0.9379639029502869,0.6928165555000305,0.20985153317451477
1667776738037010400,2.824010498046875,0.8436073064804077,0.9937548637390137,0.5268830060958862
1667776738047061500,2.8340615234375,0.8336289525032043,1.3622918128967285,0.8868805766105652
1667776738057112600,2.844112548828125,0.8755913376808167,1.9728819131851196,1.0445482730865479
1667776738067164400,2.854164306640625,0.8960188627243042,2.370814800262451,0.9518628120422363
1667776738077215500,2.864215576171875,0.9206427335739136,2.2142248153686523,0.6650446057319641
1667776738087266600,2.8742666015625,1.0436732769012451,1.8723136186599731,0.5773571729660034
1667776738097317600,2.884317626953125,1.2442735433578491,1.6017804145812988,0.7145688533782959
1667776738107370000,2.894369873046875,1.4028834104537964,1.388413906097412,0.9353587627410889
1667776738117420800,2.9044208984375,1.4852925539016724,1.233515977859497,1.2475858926773071
1667776738127471600,2.9144716796875,1.4776078462600708,1.2305412292480469,1.6629389524459839
1667776738137522700,2.924522705078125,1.3490008115768433,1.3054556846618652,2.1217684745788574
1667776738147574800,2.93457470703125,1.1517385244369507,1.2783629894256592,2.45426607131958
1667776738157625600,2.94462548828125,0.7803254723548889,1.177306056022644,2.66762375831604
1667776738167676700,2.9546767578125,0.2800174653530121,1.0558733940124512,2.8052151203155518
1667776738177727700,2.964727783203125,-0.17741824686527252,0.8411477208137512,2.860898494720459
1667776738187779600,2.974779541015625,-0.5614960193634033,0.4088795781135559,2.820769786834717
1667776738197830700,2.98483056640625,-0.7780581712722778,-0.13088193535804749,2.717538833618164
1667776738207881700,2.9948818359375,-0.8756052851676941,-0.5115344524383545,2.6327061653137207
1667776738217932800,3.004932861328125,-0.9599814414978027,-0.7289724946022034,2.5712013244628906
1667776738227984600,3.014984619140625,-0.9967136383056641,-0.8913326263427734,2.484264850616455
1667776738238035700,3.02503564453125,-1.0093085765838623,-0.9801855683326721,2.375579357147217
1667776738248086800,3.035086669921875,-1.0046422481536865,-0.9223061800003052,2.2873358726501465
1667776738258137600,3.0451376953125,-0.9734339118003845,-0.6931688785552979,2.156588315963745
1667776738268189700,3.055189697265625,-0.9296249747276306,-0.6357799172401428,2.080718994140625
1667776738278240800,3.06524072265625,-0.9501914978027344,-0.4351905882358551,2.0214831829071045
1667776738288291600,3.07529150390625,-0.961002767086029,0.048960648477077484,2.0885958671569824
1667776738298342700,3.0853427734375,-0.9425739645957947,0.33926650881767273,2.1859700679779053
1667776738308394800,3.095394775390625,-0.9545888900756836,0.48127245903015137,2.1856000423431396
1667776738318445600,3.105445556640625,-0.9834069609642029,0.29547008872032166,2.011517286300659
1667776738328496600,3.11549658203125,-0.8698362112045288,-0.2599955201148987,1.7083632946014404
1667776738338547700,3.125547607421875,-0.6400413513183594,-1.2376278638839722,1.3816072940826416
1667776738348599600,3.135599609375,-0.6316364407539368,-1.8274695873260498,0.7095711827278137
1667776738358650600,3.145650634765625,-0.7623390555381775,-1.9102342128753662,-0.05868740752339363
1667776738368701700,3.15570166015625,-0.688481330871582,-2.0730607509613037,-0.6797423958778381
1667776738378752800,3.165752685546875,-0.518127977848053,-2.7776713371276855,-1.1022255420684814
1667776738388804600,3.1758046875,-0.32843098044395447,-3.561546564102173,-1.3483673334121704
1667776738398855700,3.185855712890625,-0.23876924812793732,-4.1477155685424805,-1.4752293825149536
1667776738408906800,3.19590673828125,-0.3003585934638977,-4.1848530769348145,-1.498881220817566
1667776738418957800,3.205957763671875,-0.6516357064247131,-3.573383092880249,-1.3615933656692505
1667776738429009700,3.216009765625,-1.0568549633026123,-2.6905770301818848,-1.150208830833435
1667776738439060700,3.226060791015625,-1.2198872566223145,-1.7356518507003784,-1.0131779909133911
1667776738449111800,3.23611181640625,-1.1901077032089233,-1.1290583610534668,-1.0416252613067627
1667776738459162600,3.24616259765625,-1.1672801971435547,-1.0373034477233887,-1.079703450202942
1667776738469214700,3.256214599609375,-1.0022798776626587,-1.3959285020828247,-0.9512972235679626
1667776738479265800,3.266265869140625,-0.8281937837600708,-1.3080588579177856,-0.5487974286079407
1667776738489316600,3.276316650390625,-0.6160359978675842,-1.1936078071594238,-0.1810576170682907
1667776738499367700,3.28636767578125,-0.48348966240882874,-0.9289143681526184,0.2801147997379303
1667776738509419800,3.296419677734375,-0.5670804381370544,-0.6667371988296509,0.5880668759346008
1667776738519470600,3.306470703125,-0.7552322745323181,-0.4679111838340759,0.7059804797172546
1667776738529521700,3.316521728515625,-0.8066723346710205,-0.20022593438625336,0.7604508996009827
1667776738539572700,3.32657275390625,-0.7819369435310364,0.01815352775156498,0.9107048511505127
1667776738549624600,3.33662451171875,-0.8257413506507874,0.10335784405469894,0.9893125891685486
1667776738559675600,3.346675537109375,-0.8895118236541748,0.19344724714756012,0.7698593139648438
1667776738569726700,3.356726806640625,-0.9346861839294434,0.2675550580024719,0.21278022229671478
1667776738579777800,3.36677783203125,-0.8601527810096741,0.312006413936615,-0.3516727685928345
1667776738589829600,3.37682958984375,-0.6311768293380737,0.31723493337631226,-0.6949396133422852
1667776738599880700,3.386880615234375,-0.4118160307407379,0.18423105776309967,-0.8500927090644836
1667776738609931800,3.396931884765625,-0.32783132791519165,0.02768397144973278,-0.9195389747619629
1667776738619982600,3.406982666015625,-0.4040965139865875,0.1579093486070633,-0.999931275844574
1667776738630034700,3.41703466796875,-0.5294033885002136,0.5974445939064026,-1.1946371793746948
1667776738640085800,3.427085693359375,-0.5475856065750122,1.1141345500946045,-1.4626331329345703
1667776738650136800,3.43713671875,-0.4123392403125763,1.6234853267669678,-1.6976332664489746
1667776738660187600,3.447187744140625,-0.27985283732414246,2.214141607284546,-1.7192492485046387
1667776738670239700,3.45723974609375,-0.21245019137859344,2.7059123516082764,-1.636310338973999
1667776738680290800,3.467290771484375,-0.2637711763381958,3.0229978561401367,-1.4891605377197266
1667776738690341600,3.477341552734375,-0.5325331091880798,3.2706668376922607,-1.5492929220199585
1667776738700392700,3.487392822265625,-0.7556841373443604,3.3865506649017334,-1.6418851613998413
1667776738710444800,3.49744482421875,-0.7074264883995056,3.204202651977539,-1.5909698009490967
1667776738720495600,3.50749560546875,-0.41568756103515625,2.8960018157958984,-1.4705586433410645
1667776738730546700,3.517546630859375,-0.12256409972906113,2.737729072570801,-1.280885934829712
1667776738740597800,3.52759765625,0.05578780546784401,2.522667407989502,-1.2562559843063354
1667776738750649600,3.537649658203125,0.1786108911037445,2.371809482574463,-1.292020559310913
1667776738760700700,3.54770068359375,0.33381325006484985,2.257544994354248,-1.3103848695755005
1667776738770751700,3.557751708984375,0.4312932789325714,2.2415413856506348,-1.3361165523529053
1667776738780802800,3.567802734375,0.3987361192703247,2.344838857650757,-1.3419156074523926
1667776738790854700,3.577854736328125,0.26891961693763733,2.5979456901550293,-1.2411179542541504
1667776738800905700,3.58790576171875,0.13785775005817413,2.9103198051452637,-0.9995359778404236
1667776738810956800,3.597956787109375,0.0743870735168457,2.9683690071105957,-0.8446851372718811
1667776738821007600,3.608007568359375,0.24407650530338287,3.3443360328674316,-0.6004522442817688
1667776738831059700,3.618059814453125,0.5114301443099976,3.361776828765869,-0.3599519431591034
1667776738841110800,3.62811083984375,0.8085989356040955,3.036987781524658,-0.2599680721759796
1667776738851161600,3.63816162109375,1.073644995689392,2.530238628387451,-0.30867743492126465
1667776738861212700,3.648212646484375,1.2899354696273804,2.106520891189575,-0.4433937072753906
1667776738871264800,3.6582646484375,1.4533030986785889,1.732389211654663,-0.5895624160766602
1667776738881315600,3.668315673828125,1.5206488370895386,1.4273382425308228,-0.6628486514091492
1667776738891366700,3.67836669921875,1.4742518663406372,1.2434438467025757,-0.5887762904167175
1667776738901417700,3.688417724609375,1.2688335180282593,1.3943417072296143,-0.35542210936546326
1667776738911469800,3.6984697265625,0.9696485996246338,1.7729929685592651,-0.053484246134757996
1667776738921520600,3.708520751953125,0.6570185422897339,2.0632190704345703,0.22304242849349976
1667776738931571700,3.71857177734375,0.3660573959350586,2.2301080226898193,0.47159379720687866
1667776738941622800,3.728622802734375,0.09172729402780533,2.3029439449310303,0.6857561469078064
1667776738951674600,3.738674560546875,-0.14134995639324188,2.1421382427215576,0.8190537095069885
1667776738961725700,3.7487255859375,-0.4012465178966522,1.8056484460830688,0.8545507192611694
1667776738971776800,3.75877685546875,-0.6678653955459595,1.4954437017440796,0.8970818519592285
1667776738981827800,3.768827880859375,-0.906037449836731,1.297481894493103,1.0310726165771484
1667776738991879700,3.778879638671875,-1.1601133346557617,1.1530089378356934,1.325871229171753
1667776739001930800,3.7889306640625,-1.520905613899231,0.9318411350250244,1.7298238277435303
1667776739011981800,3.79898193359375,-1.8485901355743408,0.7190874218940735,2.1641266345977783
1667776739022032600,3.80903271484375,-2.1301538944244385,0.4689212441444397,2.5062286853790283
1667776739032084700,3.819084716796875,-2.385122776031494,0.14623773097991943,2.6674184799194336
1667776739042135800,3.8291357421875,-2.611985445022583,0.09644033759832382,2.734982490539551
1667776739052186600,3.8391865234375,-2.770813226699829,0.15237784385681152,2.7732889652252197
1667776739062237700,3.84923779296875,-2.7302212715148926,0.13568302989006042,2.8249282836914062
1667776739072289800,3.859289794921875,-2.539353847503662,-0.24384106695652008,2.6600725650787354
1667776739082340600,3.869340576171875,-2.50319242477417,-0.973370373249054,1.8903957605361938
1667776739092391700,3.8793916015625,-2.446498155593872,-0.9745708107948303,-0.19413654506206512
1667776739102443300,3.889443359375,-1.9934566020965576,0.020851723849773407,-3.078378677368164
1667776739112494300,3.899494384765625,-1.30925714969635,0.40461331605911255,-4.960072994232178
1667776739122545200,3.909545166015625,-0.22346989810466766,-0.6729989051818848,-3.971806287765503
1667776739132596200,3.91959619140625,0.6620941758155823,-1.3102777004241943,-1.5792999267578125
1667776739142647300,3.929647216796875,1.0315169095993042,-1.4933335781097412,0.1738651841878891
1667776739152699100,3.93969921875,0.9132553935050964,-1.2295401096343994,1.830331802368164
1667776739162750200,3.949750244140625,0.4221442937850952,-0.46016567945480347,2.840642213821411
1667776739172801300,3.95980126953125,0.022101376205682755,0.7911707162857056,2.5608088970184326
1667776739182853000,3.96985302734375,-0.34633684158325195,1.86850905418396,1.4063459634780884
1667776739192904200,3.979904296875,-0.8829315900802612,2.166414976119995,0.41329360008239746
1667776739202955300,3.989955322265625,-1.6103196144104004,1.4467731714248657,0.028884153813123703
1667776739213006300,4.00000634765625,-1.8954070806503296,0.9008943438529968,-0.03219185397028923
1667776739223058200,4.01005810546875,-1.7441179752349854,0.7300829291343689,-0.2607789635658264
1667776739233109200,4.020109130859375,-1.3935855627059937,0.8502217531204224,-0.35251984000205994
1667776739243160300,4.030160400390625,-1.0227233171463013,0.6360572576522827,0.2146330624818802
1667776739253211100,4.040211181640625,-0.715585470199585,-0.38641253113746643,1.257442831993103
1667776739263263200,4.05026318359375,-0.48915982246398926,-1.0951052904129028,2.087876319885254
1667776739273314300,4.060314208984375,-0.2868695855140686,-1.0129899978637695,2.4529311656951904
1667776739283365400,4.070365478515625,-0.02126428857445717,-0.5890839695930481,2.470660448074341
1667776739293416200,4.080416259765625,0.41627562046051025,-0.12944622337818146,2.1174099445343018
1667776739303468300,4.09046826171875,0.8059570789337158,0.1722710132598877,1.72722327709198
1667776739313519400,4.100519287109375,1.117247462272644,0.11161979287862778,1.498203158378601
1667776739323570200,4.110570068359375,1.330124020576477,-0.2442120760679245,1.374781847000122
1667776739333621200,4.120621337890625,1.479265570640564,-0.5746646523475647,1.5172849893569946
1667776739343673300,4.13067333984375,1.477370262145996,-1.179699420928955,1.7366024255752563
1667776739353724200,4.14072412109375,1.1528667211532593,-1.920427918434143,1.9546188116073608
1667776739363775200,4.150775146484375,0.5108425617218018,-2.499022960662842,2.097759962081909
1667776739373826300,4.160826416015625,-0.30294886231422424,-2.5708541870117188,2.3140387535095215
1667776739383878100,4.170878173828125,-1.3055243492126465,-1.9829630851745605,2.655346393585205
1667776739393929200,4.18092919921875,-1.5755155086517334,-1.8464009761810303,2.474594831466675
1667776739403980300,4.190980224609375,-1.1588599681854248,-1.4447482824325562,2.0317325592041016
1667776739414031400,4.20103125,-0.4852939546108246,-1.0538758039474487,1.85683012008667
1667776739424083200,4.211083251953125,0.23378004133701324,-0.9949054718017578,1.8725603818893433
1667776739434134300,4.22113427734375,0.49061667919158936,-1.81494140625,1.9357631206512451
1667776739444185300,4.231185302734375,0.09645577520132065,-2.9930105209350586,1.89848792552948
1667776739454236200,4.241236083984375,-2.073321580886841,-3.642087697982788,1.818712830543518
1667776739464288300,4.251288330078125,-3.0943551063537598,-3.4716498851776123,1.5263630151748657
1667776739474339300,4.26133935546875,-2.2912771701812744,-2.9531171321868896,1.5815104246139526
1667776739484390100,4.27139013671875,-2.2613027095794678,-1.9801470041275024,1.6373547315597534
1667776739494441200,4.281441162109375,-2.2736456394195557,-1.1690088510513306,1.5948818922042847
1667776739504492300,4.2914921875,-2.19655704498291,-0.6838104724884033,1.4117884635925293
1667776739514544000,4.301544189453125,-2.23284649848938,-0.3280762732028961,1.1759904623031616
1667776739524595200,4.31159521484375,-2.065181255340576,0.05761656537652016,1.0613787174224854
1667776739534646300,4.321646240234375,-1.83176851272583,0.47556161880493164,1.178489327430725
1667776739544698000,4.331697998046875,-1.5893971920013428,0.6202418208122253,1.3534889221191406
1667776739554749200,4.341749267578125,-1.2179805040359497,0.29295775294303894,1.4100401401519775
1667776739564800300,4.35180029296875,-0.7809877395629883,-0.35319650173187256,1.3712027072906494
1667776739574851300,4.361851318359375,-0.4383483827114105,-1.0160834789276123,1.3139560222625732
1667776739584903200,4.371903076171875,-0.1860000193119049,-1.4661896228790283,1.2514512538909912
1667776739594954200,4.381954345703125,0.028312627226114273,-1.754552960395813,1.1445972919464111
1667776739605005300,4.39200537109375,0.18506789207458496,-1.8209865093231201,1.0855231285095215
1667776739615056400,4.402056396484375,0.27408450841903687,-1.5176901817321777,1.035482406616211
1667776739625107200,4.412107177734375,0.1943446695804596,-0.8341377973556519,0.9221845865249634
1667776739635159300,4.4221591796875,-0.09810630232095718,-0.02635946497321129,0.8139086365699768
1667776739645210400,4.43221044921875,-0.39892420172691345,0.7350021004676819,0.7120504379272461
1667776739655261200,4.44226123046875,-0.42222073674201965,1.3065420389175415,0.6744902729988098
1667776739665313300,4.452313232421875,-0.08219073712825775,1.4812425374984741,0.719916045665741
1667776739675364400,4.4623642578125,0.11961373686790466,1.2830554246902466,0.7225009799003601
1667776739685415200,4.472415283203125,0.09761016815900803,0.6798273324966431,0.6031436920166016
1667776739695466200,4.48246630859375,-0.0259652491658926,-0.08994817733764648,0.4078534245491028
1667776739705517300,4.492517333984375,-0.07628008723258972,-0.6353526711463928,0.15081657469272614
1667776739715569200,4.502569091796875,0.07619723677635193,-0.6266921162605286,-0.03105362132191658
1667776739725620200,4.5126201171875,0.18527711927890778,-0.14930956065654755,-0.0628453716635704
1667776739735671300,4.52267138671875,0.04064923897385597,0.3536403775215149,-0.13489696383476257
1667776739745722400,4.532722412109375,0.015259461477398872,0.5213994979858398,-0.4647078812122345
1667776739755774200,4.542774169921875,0.18451762199401855,0.412343293428421,-0.9651949405670166
1667776739765825300,4.5528251953125,0.272119402885437,0.5348367094993591,-1.4135730266571045
1667776739775876400,4.56287646484375,0.3443340063095093,0.6819033026695251,-1.8181908130645752
1667776739785927200,4.57292724609375,0.4636891782283783,0.8414149284362793,-2.2461702823638916
1667776739795979300,4.582979248046875,0.5970090627670288,1.128015398979187,-2.6239376068115234
1667776739806030300,4.5930302734375,0.6082369685173035,1.4685200452804565,-3.077206611633301
1667776739816081400,4.603081298828125,0.6539160013198853,2.005295515060425,-3.50451397895813
1667776739826132200,4.61313232421875,0.8020322322845459,2.5769705772399902,-3.526031970977783
1667776739836184300,4.623184326171875,1.021190881729126,2.8447954654693604,-3.214587688446045
1667776739846235400,4.6332353515625,1.173383116722107,2.887899875640869,-2.8722128868103027
1667776739856286200,4.6432861328125,1.2467350959777832,2.8142685890197754,-2.646681547164917
1667776739866337300,4.653337158203125,1.3646165132522583,2.566679000854492,-2.5748937129974365
1667776739876389400,4.663389404296875,1.3535810708999634,1.918811559677124,-2.6361098289489746
1667776739886440200,4.673440185546875,1.2850675582885742,1.12509024143219,-2.8467023372650146
1667776739896491300,4.6834912109375,1.2300852537155151,0.5621665120124817,-3.128986120223999
1667776739906542300,4.693542236328125,1.221352458000183,0.3958281874656677,-3.298680305480957
1667776739916594200,4.70359423828125,1.2012356519699097,0.3853139877319336,-3.263279676437378
1667776739926645200,4.713645263671875,1.1521328687667847,0.3244069814682007,-3.0283777713775635
1667776739936696300,4.7236962890625,1.1236910820007324,0.26253846287727356,-2.698815107345581
1667776739946747400,4.733747314453125,1.0951849222183228,0.25227463245391846,-2.3989479541778564
1667776739956799200,4.74379931640625,1.0868669748306274,0.3267187476158142,-2.2104618549346924
1667776739966850300,4.753850341796875,1.1132274866104126,0.5509518384933472,-2.114255428314209
1667776739976901400,4.7639013671875,1.1176778078079224,0.8160930871963501,-2.0738062858581543
1667776739986952200,4.7739521484375,1.007871150970459,1.0025562047958374,-2.038510322570801
1667776739997004300,4.78400439453125,0.8006643652915955,1.0770210027694702,-1.9717366695404053
1667776740007055400,4.794055419921875,0.5437526702880859,0.9630727171897888,-1.9140704870224
1667776740017106200,4.804106201171875,0.31553980708122253,0.7737157940864563,-1.838125228881836
1667776740027157200,4.8141572265625,0.12210004776716232,0.5483207106590271,-1.717897653579712
1667776740037209300,4.824209228515625,-0.06423354148864746,0.5942996144294739,-1.563264012336731
1667776740047260200,4.83426025390625,-0.25492995977401733,0.7693406939506531,-1.3869569301605225
1667776740057311200,4.844311279296875,-0.5220057368278503,0.9645389318466187,-1.2292958498001099
1667776740067362300,4.8543623046875,-0.8553954362869263,1.271447777748108,-1.0411813259124756
1667776740077413400,4.864413330078125,-1.1308351755142212,1.6802650690078735,-0.8230140805244446
1667776740087465200,4.87446533203125,-1.2893000841140747,2.056560754776001,-0.5620378851890564
1667776740097516300,4.884516357421875,-1.3105928897857666,2.287091016769409,-0.2805216312408447
1667776740107567400,4.8945673828125,-1.2626887559890747,2.3128786087036133,-0.0006103711202740669
1667776740117618200,4.9046181640625,-1.1984984874725342,2.2462620735168457,0.298888236284256
1667776740127670300,4.914670166015625,-1.1809312105178833,1.8737704753875732,0.6019370555877686
1667776740137721300,4.924721435546875,-1.2084150314331055,1.117110252380371,0.9642103910446167
1667776740147772400,4.9347724609375,-1.2716901302337646,0.5374481678009033,1.4251761436462402
1667776740157823000,4.944822998046875,-1.415724515914917,0.3842866122722626,1.8813624382019043
1667776740167875300,4.954875244140625,-1.5149179697036743,0.3606015145778656,2.306281089782715
1667776740177926400,4.964926513671875,-1.4751206636428833,0.3988719880580902,2.705444574356079
1667776740187977200,4.974977294921875,-1.4186099767684937,0.15752461552619934,2.9966859817504883
1667776740198028000,4.985028076171875,-1.3172028064727783,-0.6507880687713623,2.8892860412597656
1667776740208080400,4.995080322265625,-0.7683234214782715,-1.7278060913085938,1.7070444822311401
1667776740218131200,5.005131103515625,-0.1219865083694458,-2.79522705078125,-0.45767998695373535
1667776740228182300,5.015182373046875,-0.27058130502700806,-2.846660852432251,-1.9583425521850586
1667776740238233000,5.025233154296875,-0.15471573173999786,-1.1169313192367554,-2.0486257076263428
1667776740248285200,5.03528515625,0.022598067298531532,0.40154531598091125,-1.911162257194519
1667776740258336300,5.045336181640625,0.11575673520565033,1.375355839729309,-1.7087398767471313
1667776740268387300,5.05538720703125,0.51083904504776,1.7587945461273193,-1.0201246738433838
1667776740278438100,5.065438232421875,0.868462324142456,1.4322866201400757,0.34087008237838745
1667776740288490200,5.075490234375,0.8060088157653809,0.6457187533378601,1.7873274087905884
1667776740298541300,5.085541259765625,0.40015900135040283,0.5261374115943909,2.572965621948242
1667776740308592000,5.095592041015625,0.02479150891304016,0.14800745248794556,2.6710383892059326
1667776740318643200,5.105643310546875,-0.14042508602142334,-1.0762602090835571,2.606696128845215
1667776740328695300,5.1156953125,-0.036617740988731384,-1.5087984800338745,2.481818199157715
1667776740338746400,5.125746337890625,0.1371740996837616,-0.597337543964386,2.2884700298309326
1667776740348797200,5.135797119140625,0.16039420664310455,0.2348470389842987,1.8149538040161133
1667776740358848000,5.145847900390625,0.09548553824424744,0.2905833423137665,1.0890275239944458
1667776740368900400,5.155900390625,-0.05071934312582016,0.43071088194847107,0.5935946106910706
1667776740378951400,5.165951416015625,-0.04574946314096451,1.6501723527908325,0.7099748849868774
1667776740389002000,5.176001953125,0.21950484812259674,3.308978796005249,1.4415346384048462
1667776740399053000,5.186052978515625,0.7093417048454285,3.673471689224243,1.7489010095596313
1667776740409104100,5.196104248046875,0.9288612604141235,2.6433944702148438,1.4294942617416382
1667776740419156200,5.20615625,0.6537950038909912,1.5899475812911987,1.0247042179107666
1667776740429207000,5.21620703125,0.03661621734499931,1.1223015785217285,0.9150765538215637
1667776740439258000,5.226258056640625,-0.6586732268333435,0.8597347736358643,1.0922470092773438
1667776740449309200,5.23630908203125,-1.0808290243148804,0.6674476265907288,1.3854484558105469
1667776740459361300,5.246361328125,-1.074755072593689,0.3229471445083618,1.5516457557678223
1667776740469412000,5.256412109375,-0.8092256784439087,-0.1812337338924408,1.5229896306991577
1667776740479463200,5.266463134765625,-0.4001955986022949,-0.7718023657798767,1.3890100717544556
1667776740489514200,5.27651416015625,0.016444506123661995,-1.2273039817810059,1.2283815145492554
1667776740499566300,5.28656640625,0.343534380197525,-1.5131951570510864,1.0018428564071655
1667776740509617200,5.2966171875,0.6370890736579895,-1.7664189338684082,0.7119130492210388
1667776740519668200,5.306668212890625,0.9712315201759338,-2.1746809482574463,0.4876546561717987
1667776740529719000,5.316718994140625,1.2256642580032349,-2.570746660232544,0.6993701457977295
1667776740539771100,5.326771240234375,1.2589534521102905,-2.5010805130004883,1.2793740034103394
1667776740549822200,5.336822265625,1.132267951965332,-1.982875943183899,1.6543651819229126
1667776740559873000,5.346873046875,1.0398359298706055,-1.4729976654052734,1.6597862243652344
1667776740569924000,5.356924072265625,1.014251470565796,-1.1644026041030884,1.4500266313552856
1667776740579976200,5.36697607421875,0.9304514527320862,-0.8439955115318298,1.2394710779190063
1667776740590027000,5.377027099609375,0.6921765804290771,-0.37497183680534363,1.1311345100402832
1667776740600078000,5.387078125,0.2668859362602234,0.2229529768228531,1.133275032043457
1667776740610129200,5.397129150390625,-0.12810371816158295,0.5201026201248169,1.1439474821090698
1667776740620181000,5.407180908203125,-0.35710078477859497,0.33237141370773315,1.1927109956741333
1667776740630232000,5.417232177734375,-0.5369083881378174,-0.19229578971862793,1.2579792737960815
1667776740640283100,5.427283203125,-0.6917005777359009,-0.8321818113327026,1.3066163063049316
1667776740650334200,5.437334228515625,-0.7946155071258545,-1.313380241394043,1.2848851680755615
1667776740660385000,5.447385009765625,-0.8069950938224792,-1.397255539894104,1.1804662942886353
1667776740670437000,5.45743701171875,-0.7822335362434387,-1.1024187803268433,1.087168574333191
1667776740680488200,5.46748828125,-0.788680374622345,-0.6299857497215271,1.0775063037872314
1667776740690539000,5.4775390625,-0.8071779012680054,-0.2885437607765198,1.1155644655227661
1667776740700590000,5.487590087890625,-0.8852383494377136,-0.2565344274044037,1.1572072505950928
1667776740710642200,5.49764208984375,-0.9516309499740601,-0.4120861887931824,1.22579824924469
1667776740720693000,5.50769287109375,-0.9521484971046448,-0.5844236612319946,1.289528727531433
1667776740730744000,5.517744140625,-0.9063162803649902,-0.6701870560646057,1.2915546894073486
1667776740740795100,5.527795166015625,-0.8180858492851257,-0.6826529502868652,1.2302438020706177
1667776740750847000,5.537846923828125,-0.6481295824050903,-0.6965586543083191,1.1082494258880615
1667776740760898000,5.54789794921875,-0.43522876501083374,-0.7393199801445007,1.0010836124420166
1667776740770949000,5.55794921875,-0.2772495150566101,-0.6795991063117981,0.8939585089683533
1667776740781000200,5.568000244140625,-0.2599925398826599,-0.3881942331790924,0.7403726577758789
1667776740791052000,5.578052001953125,-0.43234115839004517,-0.052652716636657715,0.525546133518219
1667776740801103000,5.58810302734375,-0.5743375420570374,0.12918564677238464,0.36152997612953186
1667776740811154200,5.598154296875,-0.6162218451499939,0.17573824524879456,0.31914976239204407
1667776740821205200,5.608205322265625,-0.581703245639801,0.14856180548667908,0.36964622139930725
1667776740831257000,5.618257080078125,-0.48040348291397095,0.06484560668468475,0.4127524197101593
1667776740841308200,5.62830810546875,-0.33213531970977783,0.06768302619457245,0.3132304847240448
1667776740851359200,5.638359130859375,-0.15062837302684784,0.05921763554215431,0.04706430807709694
1667776740861410000,5.64841015625,0.04237794876098633,-0.056640081107616425,-0.27510133385658264
1667776740871462100,5.658462158203125,0.30475497245788574,-0.36245834827423096,-0.5940007567405701
1667776740881513200,5.66851318359375,0.5457598567008972,-0.6003475189208984,-0.8811923861503601
1667776740891564000,5.67856396484375,0.664658784866333,-0.48149362206459045,-1.2242610454559326
1667776740901615000,5.688614990234375,0.7423040866851807,-0.10344972461462021,-1.6487300395965576
1667776740911666200,5.698666259765625,0.8153990507125854,0.26797839999198914,-2.0559139251708984
1667776740921718000,5.708718017578125,0.8172281980514526,0.6181321740150452,-2.4192569255828857
1667776740931769000,5.71876904296875,0.7853096723556519,1.056076169013977,-2.7707488536834717
1667776740941820200,5.728820068359375,0.787067174911499,1.602345585823059,-3.04317569732666
1667776740951871200,5.738871337890625,0.7762795090675354,2.1227221488952637,-3.1459922790527344
1667776740961923000,5.748923095703125,0.7651776671409607,2.409752130508423,-3.1350913047790527
1667776740971974100,5.75897412109375,0.823962390422821,2.4511232376098633,-3.0880489349365234
1667776740982025200,5.769025146484375,0.8871891498565674,2.2456960678100586,-3.039674758911133
1667776740992076000,5.779075927734375,0.9173640608787537,1.6854676008224487,-2.9987099170684814
1667776741002128100,5.789128173828125,0.9551905393600464,0.9326823353767395,-2.9635045528411865
1667776741012179200,5.79917919921875,0.9902886152267456,0.12426459789276123,-2.909597396850586
1667776741022230300,5.809230224609375,1.0259101390838623,-0.5802402496337891,-2.8345704078674316
1667776741032281000,5.819281005859375,1.0775434970855713,-1.0068498849868774,-2.7029969692230225
1667776741042333200,5.829333251953125,1.1647576093673706,-1.007683277130127,-2.5169901847839355
1667776741052384300,5.83938427734375,1.2803412675857544,-0.5723518133163452,-2.290931463241577
1667776741062435000,5.84943505859375,1.391740322113037,0.1087183952331543,-2.037515640258789
1667776741072486100,5.859486083984375,1.5093899965286255,0.8242501616477966,-1.7625385522842407
1667776741082538200,5.869538330078125,1.6437205076217651,1.4324864149093628,-1.4872548580169678
1667776741092589000,5.879589111328125,1.748323917388916,1.8086682558059692,-1.303566813468933
1667776741102641200,5.88964111328125,1.7778711318969727,1.9356122016906738,-1.2355386018753052
1667776741112692200,5.899692138671875,1.689829707145691,1.7183440923690796,-1.3723307847976685
1667776741122744000,5.909744140625,1.475091814994812,1.2955046892166138,-1.6518054008483887
1667776741132795100,5.919795166015625,1.1888505220413208,1.0135537385940552,-1.8630372285842896
1667776741142846200,5.92984619140625,0.9439301490783691,0.9411633014678955,-1.8479863405227661
1667776741152897000,5.93989697265625,0.824472188949585,0.9008172154426575,-1.6664842367172241
1667776741162948000,5.949947998046875,0.7378765940666199,0.7984836101531982,-1.4276800155639648
1667776741173000200,5.960000244140625,0.6556680202484131,0.7872876524925232,-1.1651993989944458
1667776741183051000,5.970051025390625,0.5864806771278381,0.9191195368766785,-0.9293400645256042
1667776741193102000,5.98010205078125,0.5340797901153564,1.0976605415344238,-0.7371136546134949
1667776741203153200,5.990153076171875,0.4409516155719757,1.2397874593734741,-0.588348388671875
1667776741213205000,6.000205078125,0.2940034568309784,1.3242435455322266,-0.43036729097366333
1667776741223256000,6.010256103515625,0.11801694333553314,1.3756482601165771,-0.24779994785785675
1667776741233307100,6.02030712890625,-0.04644017666578293,1.3961517810821533,-0.0349409282207489
1667776741243358200,6.030358154296875,-0.1709616333246231,1.3884092569351196,0.18493126332759857
1667776741253410000,6.04041015625,-0.253961980342865,1.3801207542419434,0.3886029124259949
1667776741263461000,6.050461181640625,-0.30386731028556824,1.349887728691101,0.558599591255188
1667776741273512200,6.06051220703125,-0.29982009530067444,1.2479158639907837,0.7410545945167542
1667776741283563300,6.070563232421875,-0.23511894047260284,1.0871658325195312,0.9657422304153442
1667776741293615000,6.080614990234375,-0.1657225489616394,0.9312505125999451,1.2489315271377563
1667776741303666200,6.090666259765625,-0.1337350457906723,0.7392235398292542,1.5932453870773315
1667776741313717200,6.10071728515625,-0.16784028708934784,0.46487346291542053,1.8709049224853516
1667776741323768000,6.11076806640625,-0.26159581542015076,0.13464149832725525,1.9440739154815674
1667776741333820200,6.120820068359375,-0.24495929479599,-0.314166396856308,1.7102375030517578
1667776741343871200,6.130871337890625,-0.12139035761356354,-0.7340128421783447,1.0441561937332153
1667776741353922000,6.140922119140625,0.004492737352848053,-0.6239968538284302,-0.31903788447380066
1667776741363973000,6.15097314453125,0.3621980547904968,-0.17293789982795715,-1.9060434103012085
1667776741374024000,6.16102392578125,0.8776230812072754,0.5041313767433167,-2.5803699493408203
1667776741384076000,6.171075927734375,1.4763911962509155,1.2440637350082397,-2.4722893238067627
1667776741394127000,6.181127197265625,1.6689637899398804,1.3230786323547363,-1.7869970798492432
1667776741404178200,6.19117822265625,1.5234819650650024,0.3727232813835144,-0.8020676374435425
1667776741414229000,6.20122900390625,1.2254726886749268,-0.5527459383010864,0.2234669178724289
1667776741424281000,6.211281005859375,0.7040759921073914,-0.2877712845802307,0.9525015950202942
1667776741434332200,6.221332275390625,-0.21009373664855957,0.7340468764305115,1.1876072883605957
1667776741444383200,6.23138330078125,-0.9554070234298706,1.2185838222503662,1.1013489961624146
1667776741454433800,6.241433837890625,-1.0893073081970215,0.9069992899894714,0.911370038986206
1667776741464486100,6.251486083984375,-0.6911243200302124,0.3382643461227417,0.7630982995033264
1667776741474537200,6.261537109375,0.04190037399530411,-0.20567190647125244,0.8020563721656799
1667776741484588000,6.271588134765625,0.8334865570068359,-0.524364173412323,1.0158220529556274
1667776741494638800,6.281638916015625,1.4322007894515991,-0.07566547393798828,1.1359807252883911
1667776741504691200,6.291691162109375,1.2736424207687378,1.9227545261383057,0.10449044406414032
1667776741514742000,6.301741943359375,0.10335655510425568,4.321324348449707,-1.1008775234222412
1667776741524793000,6.31179296875,-0.7897338271141052,3.748539924621582,-0.18060974776744843
1667776741534844000,6.321843994140625,-0.7889572978019714,1.261031150817871,0.8506969809532166
1667776741544896000,6.33189599609375,-0.6274074912071228,-1.2353956699371338,1.4382411241531372
1667776741554947000,6.341947021484375,-0.5643814206123352,-2.777681589126587,1.911211609840393
1667776741564998100,6.351998046875,-0.6766979694366455,-3.4019651412963867,2.281431198120117
1667776741575049000,6.362049072265625,-0.9131733775138855,-3.358898162841797,2.526614189147949
1667776741585100000,6.37210009765625,-1.1891059875488281,-2.9957737922668457,2.798213005065918
1667776741595152100,6.382152099609375,-1.4093924760818481,-2.5238959789276123,3.204110860824585
1667776741605203000,6.392202880859375,-1.4389721155166626,-1.900075912475586,3.655491352081299
1667776741615254000,6.40225390625,-1.2316913604736328,-0.8335712552070618,3.7978203296661377
1667776741625304800,6.412304931640625,-0.9013099670410156,0.10153292864561081,3.1670522689819336
1667776741635357200,6.422357177734375,-0.1367148458957672,0.8535086512565613,1.7860584259033203
1667776741645408000,6.432407958984375,0.6808444261550903,1.63347327709198,0.7318771481513977
1667776741655458800,6.442458740234375,0.8174685835838318,1.7517493963241577,0.5427471995353699
1667776741665510000,6.452510009765625,0.5272218585014343,1.2785009145736694,0.8569371700286865
1667776741675562200,6.462562255859375,0.24228785932064056,0.4154024124145508,1.4254200458526611
1667776741685612800,6.47261279296875,0.05263318866491318,-0.5722705125808716,1.9701095819473267
1667776741695663900,6.482663818359375,-0.09575681388378143,-1.2926868200302124,2.3385608196258545
1667776741705715000,6.49271484375,-0.2521105408668518,-1.5306549072265625,2.482152223587036
1667776741715767000,6.50276708984375,-0.45719045400619507,-1.4708738327026367,2.374465227127075
1667776741725817900,6.51281787109375,-0.6448157429695129,-1.354060173034668,2.1190145015716553
1667776741735869000,6.522868896484375,-0.7102269530296326,-1.2610255479812622,1.8268142938613892
1667776741745920000,6.532919921875,-0.5818995833396912,-1.3398863077163696,1.6181684732437134
1667776741755972000,6.54297216796875,-0.4486877918243408,-1.7309762239456177,1.4624470472335815
1667776741766023000,6.55302294921875,-0.41210824251174927,-2.0968353748321533,1.314347743988037
1667776741776074000,6.563073974609375,-0.38737571239471436,-2.1781113147735596,1.191383957862854
1667776741786125000,6.573125,-0.33442220091819763,-1.9548225402832031,1.0942656993865967
1667776741796176000,6.58317578125,-0.30625659227371216,-1.5772345066070557,1.0406596660614014
1667776741806228000,6.59322802734375,-0.36324477195739746,-1.1974096298217773,1.0297621488571167
1667776741816279000,6.603279052734375,-0.5065249800682068,-0.8965283632278442,1.0365409851074219
1667776741826329900,6.613329833984375,-0.7169749736785889,-0.7179242372512817,1.071872353553772
1667776741836381000,6.623380859375,-0.8933053016662598,-0.65305095911026,1.1229068040847778
1667776741846433000,6.63343310546875,-0.9359591603279114,-0.6583042740821838,1.1584391593933105
1667776741856483800,6.64348388671875,-0.8800008296966553,-0.6839920878410339,1.200001835823059
1667776741866535000,6.653534912109375,-0.7831523418426514,-0.6700161099433899,1.25546133518219
1667776741876586000,6.6635859375,-0.7121418118476868,-0.6355577111244202,1.328909158706665
1667776741886637800,6.673637939453125,-0.6592749357223511,-0.6438689231872559,1.3640265464782715
1667776741896689000,6.68368896484375,-0.572008490562439,-0.6510829329490662,1.3361246585845947
1667776741906740000,6.693739990234375,-0.47796058654785156,-0.5596851110458374,1.281234622001648
1667776741916791000,6.703791015625,-0.36643457412719727,-0.3591863512992859,1.2440816164016724
1667776741926843000,6.7138427734375,-0.27814799547195435,-0.1285691261291504,1.2121177911758423
1667776741936894000,6.72389404296875,-0.26543912291526794,0.0748329907655716,1.0867843627929688
1667776741946945000,6.733945068359375,-0.34468016028404236,0.12189267575740814,0.7814015746116638
1667776741956995800,6.743995849609375,-0.42013418674468994,-0.0014673423720523715,0.43929964303970337
1667776741967048000,6.7540478515625,-0.45530611276626587,-0.15934406220912933,0.2518709897994995
1667776741977099000,6.76409912109375,-0.4442611634731293,-0.3726787269115448,0.14780238270759583
1667776741987150000,6.774150146484375,-0.3752811849117279,-0.5448894500732422,0.03302214667201042
1667776741997201000,6.784200927734375,-0.24065785109996796,-0.5376120805740356,-0.11657373607158661
1667776742007252000,6.794251953125,-0.055800653994083405,-0.36793649196624756,-0.30085277557373047
1667776742017304000,6.804303955078125,0.11747046560049057,-0.15802614390850067,-0.5598111152648926
1667776742027355000,6.81435498046875,0.26426228880882263,0.027694061398506165,-0.9175616502761841
1667776742037406000,6.824406005859375,0.4378247559070587,0.30378955602645874,-1.287708044052124
1667776742047457000,6.83445703125,0.6425362825393677,0.6240191459655762,-1.5859946012496948
1667776742057508900,6.8445087890625,0.8063116669654846,0.8832980990409851,-1.8943665027618408
1667776742067560000,6.854559814453125,0.8824964761734009,1.1853747367858887,-2.206836223602295
1667776742077611000,6.864611083984375,0.9255765676498413,1.6387957334518433,-2.4911887645721436
1667776742087662000,6.874662109375,0.9474012851715088,2.086874008178711,-2.7229127883911133
1667776742097714000,6.8847138671875,0.9832455515861511,2.340686082839966,-2.895747423171997
1667776742107764200,6.89476416015625,1.0446910858154297,2.3158159255981445,-2.991941213607788
1667776742117815300,6.904815185546875,1.1555856466293335,2.1113638877868652,-3.026585340499878
1667776742127866400,6.914866455078125,1.2725204229354858,1.8099676370620728,-2.9609382152557373
1667776742137918200,6.924918212890625,1.3414193391799927,1.3737114667892456,-2.8326494693756104
1667776742147969300,6.93496923828125,1.3469866514205933,0.8578258752822876,-2.725865602493286
1667776742158020400,6.945020263671875,1.2797963619232178,0.38268887996673584,-2.7111403942108154
1667776742168071200,6.9550712890625,1.1635206937789917,-0.04650420695543289,-2.7652475833892822
1667776742178123300,6.965123291015625,1.0390684604644775,-0.28210127353668213,-2.781068801879883
1667776742188174300,6.97517431640625,0.9714481234550476,-0.23658807575702667,-2.685544490814209
1667776742198225200,6.98522509765625,0.9940751194953918,0.18437939882278442,-2.4797263145446777
1667776742208276200,6.995276123046875,1.1071323156356812,0.837474524974823,-2.2603421211242676
1667776742218327000,7.0053271484375,1.2794978618621826,1.4795501232147217,-2.063687801361084
1667776742228379100,7.015379150390625,1.4543631076812744,1.947807788848877,-1.9311286211013794
1667776742238430200,7.02543017578125,1.5603479146957397,1.980747103691101,-1.8858509063720703
1667776742248481300,7.035481201171875,1.6009089946746826,1.636095404624939,-1.9210600852966309
1667776742258532000,7.045531982421875,1.5044975280761719,1.2459872961044312,-1.9629491567611694
1667776742268584200,7.055584228515625,1.2436259984970093,1.2744123935699463,-1.886966586112976
1667776742278635300,7.06563525390625,0.9405614733695984,1.4617990255355835,-1.789527177810669
1667776742288686300,7.075686279296875,0.656983494758606,1.5301284790039062,-1.7427095174789429
1667776742298737200,7.085737060546875,0.4235081374645233,1.5748754739761353,-1.7137342691421509
1667776742308789200,7.095789306640625,0.2254977822303772,1.7099369764328003,-1.6969774961471558
1667776742318840300,7.10584033203125,0.05691354721784592,1.903407096862793,-1.6955151557922363
1667776742328891100,7.11589111328125,-0.044429928064346313,2.1565470695495605,-1.6940819025039673
1667776742338942000,7.12594189453125,-0.1301397681236267,2.273078203201294,-1.6403111219406128
1667776742348994300,7.135994384765625,-0.19535477459430695,2.236705780029297,-1.5001150369644165
1667776742359045400,7.14604541015625,-0.24683848023414612,2.1038975715637207,-1.3205479383468628
1667776742369096000,7.156095947265625,-0.2832273840904236,1.9220702648162842,-1.1140367984771729
1667776742379147000,7.16614697265625,-0.29560232162475586,1.7122560739517212,-0.8652123808860779
1667776742389199400,7.176199462890625,-0.261377215385437,1.502772331237793,-0.5932165384292603
1667776742399250200,7.186250244140625,-0.1706092357635498,1.33867609500885,-0.30975979566574097
1667776742409301000,7.196301025390625,-0.04717051610350609,1.1728832721710205,-0.029761604964733124
1667776742419352000,7.20635205078125,0.13016165792942047,1.0396509170532227,0.31932926177978516
1667776742429403100,7.216403076171875,0.37203091382980347,0.9050053954124451,0.8009238243103027
1667776742439455200,7.226455322265625,0.5839170813560486,0.8100296258926392,1.3820396661758423
1667776742449506000,7.236506103515625,0.6179428100585938,0.7813792824745178,1.8451929092407227
1667776742459557000,7.24655712890625,0.510032594203949,0.8402764201164246,2.0607073307037354
1667776742469608200,7.256608154296875,0.37087246775627136,0.8522756099700928,2.0886342525482178
1667776742479660300,7.266660400390625,0.35544371604919434,0.7539663314819336,1.875588297843933
1667776742489711000,7.276711181640625,0.5053157806396484,0.553809642791748,1.2942109107971191
1667776742499762200,7.28676220703125,0.627360999584198,0.3364053964614868,0.37377139925956726
1667776742509813000,7.29681298828125,0.7187954187393188,0.24687427282333374,-0.3055305778980255
1667776742519865300,7.306865234375,0.8411389589309692,0.28730106353759766,-0.49790826439857483
1667776742529916200,7.316916259765625,0.8758732080459595,-0.08774397522211075,-0.489238440990448
1667776742539967000,7.326967041015625,0.8451104760169983,-0.8259032368659973,-0.4916453957557678
1667776742550018000,7.33701806640625,0.6993162035942078,-1.590635895729065,-0.7306448221206665
1667776742560070400,7.3470703125,0.2884516716003418,-2.7453954219818115,-1.1342540979385376
1667776742570121000,7.357120849609375,-0.5524892807006836,-3.5129823684692383,-0.4755350947380066
1667776742580172000,7.367172119140625,-1.387156367301941,-2.7750511169433594,-0.10838718712329865
1667776742590223000,7.37722314453125,-1.3428906202316284,-0.8925091028213501,-0.3737010657787323
1667776742600275000,7.38727490234375,-0.508648693561554,0.8573408722877502,-0.5963437557220459
1667776742610326000,7.397325927734375,-0.012262782081961632,-0.14815644919872284,-0.20008492469787598
1667776742620377000,7.407377197265625,0.28794872760772705,-1.8525744676589966,0.710796058177948
1667776742630428200,7.41742822265625,0.4619194567203522,-3.007232189178467,1.7167868614196777
1667776742640479000,7.42747900390625,0.4685184955596924,-3.5322105884552,2.265197277069092
1667776742650531000,7.437531005859375,0.22073690593242645,-3.539715051651001,2.5427889823913574
1667776742660582100,7.44758203125,-0.2592722773551941,-3.063183307647705,2.800525426864624
1667776742670633000,7.457633056640625,-0.7859742045402527,-2.1644389629364014,2.9767355918884277
1667776742680684000,7.46768408203125,-1.2908141613006592,-0.9623392224311829,2.8563461303710938
1667776742690736000,7.477736083984375,-1.639724850654602,0.012024909257888794,2.350116491317749
1667776742700787000,7.487786865234375,-1.7281359434127808,0.102239228785038,2.3020477294921875
1667776742710838000,7.497838134765625,-1.4529680013656616,-0.13715407252311707,2.742387533187866
1667776742720889000,7.50788916015625,-1.0277445316314697,-0.06513500213623047,2.9558167457580566
1667776742730941200,7.517941162109375,-0.9274798035621643,0.1623082160949707,2.940793752670288
1667776742740992000,7.527991943359375,-0.9211596250534058,0.320272296667099,2.9532203674316406
1667776742751043000,7.53804296875,-0.9216700792312622,0.27248457074165344,3.015824317932129
1667776742761094100,7.54809423828125,-0.9101359248161316,0.08351173251867294,3.097805976867676
1667776742771146000,7.55814599609375,-0.9621053338050842,-0.18841376900672913,3.112487316131592
1667776742781197000,7.568197021484375,-1.035901665687561,-0.3256709575653076,3.0777056217193604
1667776742791248100,7.578248046875,-1.0125131607055664,-0.25133615732192993,3.061037063598633
1667776742801299200,7.58829931640625,-0.9172535538673401,-0.2628878653049469,2.954403877258301
1667776742811351000,7.59835107421875,-0.7846874594688416,-0.39859381318092346,2.7270967960357666
1667776742821402000,7.608402099609375,-0.702323853969574,-0.38970446586608887,2.471414089202881
1667776742831453200,7.618453125,-0.6971532106399536,-0.3219892084598541,2.193371057510376
1667776742841504000,7.62850390625,-0.6739789247512817,-0.39135655760765076,1.9733935594558716
1667776742851555000,7.63855517578125,-0.6262093782424927,-0.6093475818634033,1.8670953512191772
1667776742861607200,7.648607177734375,-0.5553037524223328,-0.8256953358650208,1.7400712966918945
1667776742871658000,7.658657958984375,-0.4767131507396698,-0.7644187211990356,1.4988458156585693
1667776742881709000,7.668708984375,-0.3409697115421295,-0.3906000852584839,1.089503526687622
1667776742891760000,7.678760009765625,-0.11017484217882156,0.07300899177789688,0.48744210600852966
1667776742901812000,7.68881201171875,0.14546918869018555,0.3662504553794861,-0.3059849441051483
1667776742911863000,7.698863037109375,0.4595145583152771,0.35295554995536804,-1.1808348894119263
1667776742921914000,7.7089140625,0.8077936768531799,-0.10731032490730286,-1.7616652250289917
1667776742931965200,7.718965087890625,1.1611801385879517,-0.6831253170967102,-1.8138123750686646
1667776742942017000,7.72901708984375,1.4530718326568604,-0.772274374961853,-1.4416383504867554
1667776742952068000,7.739068115234375,1.5833423137664795,-0.3209989070892334,-1.089005708694458
1667776742962119200,7.749119140625,1.4808896780014038,0.36483991146087646,-1.2492002248764038
1667776742972170200,7.759170166015625,1.1231820583343506,1.536908507347107,-1.978104829788208
1667776742982222000,7.76922216796875,0.6222725510597229,3.2295444011688232,-2.844787359237671
1667776742992273200,7.779273193359375,0.08967427909374237,4.642893314361572,-3.167922019958496
1667776743002324200,7.78932421875,-0.1471065729856491,4.5409345626831055,-2.774909496307373
1667776743012375000,7.799375,-0.28340765833854675,3.4744930267333984,-2.511030673980713
1667776743022427100,7.80942724609375,-0.5236862897872925,2.2656004428863525,-2.3431556224823
1667776743032478200,7.819478271484375,-0.5947093963623047,2.0683517456054688,-2.5304715633392334
1667776743042529000,7.829529052734375,-0.31232672929763794,2.088925361633301,-3.786881685256958
1667776743052580000,7.839580078125,0.4668042063713074,1.4364184141159058,-4.54197883605957
1667776743062632200,7.849632080078125,1.092287302017212,0.1376638263463974,-4.144504547119141
1667776743072683000,7.85968310546875,1.4897679090499878,-1.3259077072143555,-3.4529333114624023
1667776743082734000,7.869734130859375,1.4219743013381958,-2.2830810546875,-3.114546060562134
1667776743092785200,7.87978515625,0.859128475189209,-2.4649109840393066,-3.053229331970215
1667776743102836700,7.889836669921875,0.20708173513412476,-1.8741061687469482,-3.120330333709717
1667776743112888600,7.899888671875,0.03543134033679962,-0.7435007095336914,-3.161936044692993
1667776743122939600,7.909939697265625,0.1841968446969986,-0.16055606305599213,-3.0306551456451416
1667776743132990700,7.91999072265625,0.3446788191795349,-0.4843612015247345,-2.6720011234283447
1667776743143041500,7.93004150390625,0.5513070821762085,-0.8473548293113708,-2.1721107959747314
1667776743153093600,7.94009375,0.6985470056533813,-0.6641956567764282,-1.680993676185608
1667776743163144700,7.950144775390625,0.622972846031189,-0.007251311559230089,-1.2163541316986084
1667776743173195500,7.960195556640625,0.43302398920059204,0.737109899520874,-0.7807058095932007
1667776743183246600,7.97024658203125,0.25627556443214417,1.4596816301345825,-0.428201287984848
1667776743193298700,7.980298583984375,0.05142989754676819,1.848732590675354,-0.05550942197442055
1667776743203349500,7.990349609375,-0.16160434484481812,1.9823092222213745,0.3184337913990021
1667776743213400600,8.000400634765626,-0.3392961025238037,1.8523129224777222,0.6758256554603577
1667776743223451600,8.01045166015625,-0.4293716847896576,1.6995289325714111,1.2133433818817139
1667776743233503500,8.02050341796875,-0.3066312372684479,1.645188808441162,2.227285623550415
1667776743243554600,8.030554443359375,0.020707499235868454,1.6641846895217896,3.485903024673462
1667776743253605600,8.040605712890626,0.24733397364616394,1.3199756145477295,4.336352348327637
1667776743263656700,8.05065673828125,-0.07627897709608078,0.3814190924167633,4.591544151306152
1667776743273708500,8.06070849609375,-0.6620266437530518,-0.6579386591911316,4.366967678070068
1667776743283759600,8.070759521484375,-1.1875386238098145,-1.6486963033676147,3.9275364875793457
1667776743293810700,8.080810791015624,-1.4884710311889648,-2.5055301189422607,3.1239888668060303
1667776743303861500,8.090861572265625,-1.3029812574386597,-2.827547073364258,1.0301932096481323
1667776743313912600,8.10091259765625,-0.8715789318084717,-2.4911065101623535,-1.4022259712219238
1667776743323964700,8.110964599609375,-0.610190212726593,-1.732186198234558,-2.9074008464813232
1667776743334015500,8.121015380859374,-0.41709452867507935,-0.3749507963657379,-2.925694465637207
1667776743344066600,8.131066650390625,0.03438131511211395,1.9033783674240112,-1.3973180055618286
1667776743354117600,8.14111767578125,0.6362830996513367,2.495488166809082,0.6715542078018188
1667776743364169500,8.15116943359375,1.042574167251587,-0.3095439672470093,1.5728400945663452
1667776743374220500,8.161220458984374,0.6391816735267639,-5.129120349884033,2.1678502559661865
1667776743384271600,8.171271728515626,-0.6531105637550354,-9.43730354309082,2.7486720085144043
1667776743394322700,8.18132275390625,-1.4509801864624023,-9.118402481079102,2.5505900382995605
1667776743404374500,8.19137451171875,-2.0712130069732666,0.2332853078842163,-0.9494156837463379
1667776743414425600,8.201425537109374,-1.2813174724578857,4.248923301696777,-2.6402156352996826
1667776743424476700,8.2114765625,-0.6862770915031433,2.993664503097534,-2.3215627670288086
1667776743434527700,8.22152783203125,-0.590033233165741,1.0653777122497559,-1.5954766273498535
1667776743444579600,8.23157958984375,-0.7662559151649475,-0.6569005250930786,-0.46660685539245605
1667776743454630700,8.241630615234374,-0.8842542171478271,-1.8929754495620728,0.9980459809303284
1667776743464681700,8.251681640625,-0.5281331539154053,-1.9603478908538818,2.618605613708496
1667776743474732500,8.261732666015625,-0.021245991811156273,-0.47997334599494934,4.009960651397705
1667776743484784600,8.27178466796875,0.38437792658805847,1.317592740058899,4.9679436683654785
1667776743494835700,8.281835693359374,0.17077642679214478,1.8726431131362915,5.965853214263916
1667776743504886500,8.291886474609376,-0.3429313600063324,1.702919363975525,6.410362720489502
1667776743514937600,8.3019375,-0.5450695157051086,1.4497382640838623,5.045148849487305
1667776743524988700,8.31198876953125,0.015009483322501183,0.6209468245506287,3.0656440258026123
1667776743535040500,8.32204052734375,0.5213797092437744,-0.17280781269073486,2.188349962234497
1667776743545091600,8.332091552734376,0.15696124732494354,-0.47241905331611633,2.549858331680298
1667776743555142700,8.342142578125,-0.5097148418426514,-0.3230307996273041,3.1728529930114746
1667776743565193700,8.35219384765625,-0.8904547691345215,0.1490056961774826,3.0768251419067383
1667776743575245600,8.36224560546875,-1.0074659585952759,0.604268491268158,2.3957033157348633
1667776743585296600,8.372296630859376,-0.967549204826355,0.436679482460022,1.5315898656845093
1667776743595347700,8.38234765625,-0.848569393157959,-0.304643839597702,0.7216214537620544
1667776743605398500,8.3923984375,-0.6604083180427551,-1.2246158123016357,0.03040599264204502
1667776743615450600,8.40245068359375,-0.40984463691711426,-1.9432785511016846,-0.5708516240119934
1667776743625501700,8.412501708984376,-0.15671195089817047,-2.141291856765747,-1.1462994813919067
1667776743635552800,8.422552734375,0.13096852600574493,-1.7400578260421753,-1.6789218187332153
1667776743645603600,8.432603515625,0.44435733556747437,-0.868854284286499,-2.0611016750335693
1667776743655655700,8.44265576171875,0.7527638077735901,0.19886159896850586,-2.1567673683166504
1667776743665706800,8.452706787109374,1.0624538660049438,1.0692648887634277,-2.088226795196533
1667776743675757600,8.462757568359375,1.2908855676651,1.5371036529541016,-2.1369833946228027
1667776743685808600,8.47280859375,1.3878339529037476,1.6254606246948242,-2.49285888671875
1667776743695860700,8.48286083984375,1.2304126024246216,1.7597078084945679,-3.1226329803466797
1667776743705911600,8.49291162109375,0.7543613314628601,2.6970810890197754,-3.640979290008545
1667776743715962600,8.502962646484375,0.17240563035011292,4.733234882354736,-3.4067323207855225
1667776743726013700,8.513013671875,-0.3237873315811157,6.158864498138428,-2.588308572769165
1667776743736064800,8.523064697265625,-0.5653338432312012,5.584614276885986,-1.9680002927780151
1667776743746116600,8.53311669921875,-0.526727020740509,3.7118377685546875,-2.0251238346099854
1667776743756167700,8.543167724609376,-0.4151715636253357,1.7188457250595093,-2.5882792472839355
1667776743766218800,8.55321875,-0.2731662094593048,0.3065965473651886,-3.029917001724243
1667776743776269600,8.56326953125,-0.09790267050266266,-1.1419185400009155,-3.577315092086792
1667776743786321700,8.57332177734375,0.47150540351867676,-3.865936517715454,-4.230423450469971
1667776743796372700,8.583372802734376,1.4166030883789062,-4.433259963989258,-3.997119426727295
1667776743806423600,8.593423583984375,2.112222909927368,-3.197622299194336,-3.691389560699463
1667776743816474600,8.603474609375,2.3450865745544434,-1.9076920747756958,-3.3056368827819824
1667776743826526700,8.613526611328124,2.088186025619507,-0.7598475217819214,-2.856353998184204
1667776743836577500,8.62357763671875,1.3315602540969849,0.11271781474351883,-2.4612860679626465
1667776743846628600,8.633628662109375,0.6232651472091675,0.5656938552856445,-2.3519771099090576
1667776743856679700,8.6436796875,0.38606488704681396,0.7926161289215088,-2.3565046787261963
1667776743866731500,8.6537314453125,0.30805930495262146,0.7634331583976746,-2.1788971424102783
1667776743876782600,8.663782470703126,0.2569599449634552,0.9356074333190918,-1.788140058517456
1667776743886833700,8.673833740234375,0.25566670298576355,1.4653801918029785,-1.2592700719833374
1667776743896884700,8.683884765625,0.19691479206085205,1.997127652168274,-0.7833103537559509
1667776743906936600,8.6939365234375,0.08592730015516281,2.5076513290405273,-0.4326511323451996
1667776743916987600,8.703987548828126,-0.028494136407971382,2.8884642124176025,-0.11637798696756363
1667776743927038700,8.714038818359375,-0.15292687714099884,2.859653949737549,0.2314244657754898
1667776743937089800,8.72408984375,-0.3569818437099457,2.3123581409454346,0.611173689365387
1667776743947141600,8.7341416015625,-0.6213935613632202,1.4118932485580444,1.1551669836044312
1667776743957192700,8.744192626953126,-0.6516567468643188,0.6270071864128113,2.0933539867401123
1667776743967243800,8.754243896484375,-0.3085164725780487,0.4603705406188965,3.4163358211517334
1667776743977294600,8.764294677734375,-0.06600024551153183,0.5821094512939453,4.600984573364258
1667776743987345700,8.774345703125,-0.03933747485280037,0.11441632360219955,4.816136837005615
1667776743997397800,8.784397705078124,-0.16617649793624878,-0.7597149610519409,4.246682643890381
1667776744007448600,8.794448486328125,-0.563127875328064,-1.4916623830795288,3.652839183807373
1667776744017499600,8.804499755859375,-1.072662591934204,-2.0606329441070557,3.1026318073272705
1667776744027550700,8.81455078125,-1.425334095954895,-2.1166908740997314,2.437593936920166
1667776744037602600,8.8246025390625,-1.1922401189804077,-1.2390682697296143,1.0387802124023438
1667776744047653600,8.834653564453125,-0.0727853998541832,-0.4915030002593994,-1.3383840322494507
1667776744057704700,8.84470458984375,0.6938057541847229,-0.57282555103302,-2.8692688941955566
1667776744067755800,8.854755859375,1.3282779455184937,0.2668187916278839,-2.2111446857452393
1667776744077807600,8.8648076171875,1.7012351751327515,0.06949707120656967,0.03506247326731682
1667776744087858700,8.874858642578126,1.9068410396575928,-3.4503259658813477,1.7283936738967896
1667776744097909800,8.88490966796875,1.9528323411941528,-7.407149314880371,2.1332530975341797
1667776744107960600,8.894960693359375,1.1385877132415771,-10.546747207641602,1.962456226348877
1667776744118012700,8.9050126953125,-0.4366532862186432,-9.998346328735352,1.5259016752243042
1667776744128063700,8.915063720703126,-2.1660306453704834,-5.054080963134766,0.6775344014167786
1667776744138114800,8.92511474609375,-2.7822091579437256,3.735867500305176,-1.604383945465088
1667776744148165600,8.93516552734375,-1.298478603363037,6.083801746368408,-2.05849552154541
1667776744158216700,8.945216796875,-0.1925157904624939,5.243149280548096,-1.9370412826538086
1667776744168268800,8.955268798828126,0.3524617552757263,3.3337602615356445,-1.581788420677185
1667776744178319600,8.965319580078125,0.33234331011772156,0.8973581194877625,-0.5075012445449829
1667776744188370700,8.97537060546875,-0.06011579930782318,-1.4504857063293457,0.8745629787445068
1667776744198421800,8.985421875,-0.6347512006759644,-3.188325881958008,2.0746843814849854
1667776744208473600,8.9954736328125,-1.3520528078079224,-3.5357472896575928,3.0511562824249268
1667776744218524700,9.005524658203125,-1.6291131973266602,-1.842617392539978,3.7217183113098145
1667776744228575700,9.01557568359375,-1.4423850774765015,0.9461078643798828,4.203450679779053
1667776744238626800,9.025626708984374,-1.2218376398086548,2.9684653282165527,4.98447322845459
1667776744248678700,9.0356787109375,-0.9810511469841003,3.0744118690490723,5.444448471069336
1667776744258729700,9.045729736328125,-0.5373392105102539,1.6552810668945312,4.475488185882568
1667776744268780800,9.05578076171875,-0.09046906977891922,-0.03682294115424156,3.2883780002593994
1667776744278831600,9.06583154296875,-0.09325379133224487,-0.5466198921203613,2.848006248474121
1667776744288883700,9.0758837890625,-0.523758590221405,0.20890583097934723,2.9319918155670166
1667776744298934800,9.085934814453125,-0.9511121511459351,1.2795727252960205,2.784492254257202
1667776744308985600,9.095985595703125,-1.0870441198349,1.5672883987426758,2.1337027549743652
1667776744319036700,9.10603662109375,-1.0327670574188232,0.8297121524810791,1.3193200826644897
1667776744329088800,9.1160888671875,-0.8439286947250366,-0.16381417214870453,0.508867621421814
1667776744339139600,9.1261396484375,-0.5643765926361084,-0.9588716626167297,-0.2516210675239563
1667776744349190700,9.136190673828125,-0.1410583108663559,-1.401114583015442,-0.9455639123916626
1667776744359241700,9.14624169921875,0.35807445645332336,-1.5173999071121216,-1.570297360420227
1667776744369293600,9.15629345703125,0.8322426080703735,-1.1999393701553345,-1.9405134916305542
1667776744379344600,9.1663447265625,1.2511762380599976,-0.5351752638816833,-2.021775007247925
1667776744389395700,9.176395751953125,1.6875109672546387,0.13014309108257294,-2.040086507797241
1667776744399446800,9.18644677734375,2.011167287826538,0.618693470954895,-2.302008867263794
1667776744409497900,9.196497802734376,2.1282174587249756,0.8788390755653381,-2.9205098152160645
1667776744419549700,9.2065498046875,1.9835211038589478,1.3063156604766846,-3.6302056312561035
1667776744429600800,9.216600830078125,1.625687837600708,2.5661752223968506,-3.7625973224639893
1667776744439651800,9.22665185546875,1.1715089082717896,4.886974811553955,-3.2002861499786377
1667776744449702700,9.23670263671875,0.6064151525497437,6.524209022521973,-2.6326258182525635
1667776744459754800,9.246754638671876,0.06851553171873093,6.306611061096191,-2.2931978702545166
1667776744469805800,9.256805908203125,-0.3124150335788727,4.6043171882629395,-2.389366388320923
1667776744479856600,9.266856689453125,-0.6726336479187012,2.2131848335266113,-2.950753927230835
1667776744489907700,9.27690771484375,-0.9115482568740845,-0.294330358505249,-3.513094902038574
1667776744499959800,9.286959716796876,-0.8613361716270447,-1.723218560218811,-3.7587592601776123
1667776744510010600,9.2970107421875,-0.5691255927085876,-3.5068395137786865,-3.927260398864746
1667776744520061700,9.307061767578125,-0.014580685645341873,-5.092184543609619,-3.9567971229553223
1667776744530112800,9.31711279296875,1.090686321258545,-4.108260631561279,-3.865309715270996
1667776744540164600,9.32716455078125,2.0607898235321045,-2.5165464878082275,-3.4900643825531006
1667776744550215700,9.337215576171875,2.386367082595825,-1.267469882965088,-3.042029619216919
1667776744560266800,9.347266845703125,2.140077590942383,-0.5768764615058899,-2.577150821685791
1667776744570317800,9.35731787109375,1.5273090600967407,-0.15542136132717133,-2.191767692565918
1667776744580369700,9.36736962890625,0.9298315048217773,0.3829503059387207,-1.9492878913879395
1667776744590420700,9.377420654296875,0.6472647786140442,1.149090051651001,-1.8062570095062256
1667776744600471800,9.387471923828125,0.4792257845401764,1.8136119842529297,-1.57007896900177
1667776744610522600,9.397522705078124,0.3161575198173523,2.3788397312164307,-1.148816466331482
1667776744620573700,9.40757373046875,0.09902544319629669,2.8617775440216064,-0.6877133250236511
1667776744630625800,9.417625732421875,-0.13730107247829437,3.0806374549865723,-0.26336097717285156
1667776744640676900,9.4276767578125,-0.30377501249313354,3.081162452697754,0.16175536811351776
1667776744650727700,9.437727783203124,-0.4209900498390198,2.847834825515747,0.5623642802238464
1667776744660778800,9.44777880859375,-0.5858126282691956,2.246556043624878,0.9284151792526245
1667776744670830800,9.457830810546875,-0.8364730477333069,1.3022966384887695,1.3375500440597534
1667776744680881700,9.467881591796875,-0.950401782989502,0.25870928168296814,1.948236107826233
1667776744690932700,9.4779326171875,-0.7073302865028381,-0.46416184306144714,2.8843352794647217
1667776744700983800,9.48798388671875,-0.34543099999427795,-0.6385506391525269,4.050690650939941
1667776744711035600,9.49803564453125,-0.29274383187294006,-0.4490821361541748,4.9402313232421875
1667776744721086700,9.508086669921875,-0.413516104221344,-0.3508799374103546,4.976337432861328
1667776744731137800,9.5181376953125,-0.5268490314483643,-0.9296167492866516,4.182525634765625
1667776744741188900,9.52818896484375,-0.9376150369644165,-1.5592384338378906,3.4240195751190186
1667776744751240700,9.53824072265625,-1.5470064878463745,-1.707579493522644,2.9312474727630615
1667776744761291800,9.548291748046875,-1.8424952030181885,-0.8495314717292786,2.0706615447998047
1667776744771342800,9.5583427734375,-1.264122724533081,1.2198413610458374,0.35249367356300354
1667776744781393700,9.5683935546875,-0.059326402842998505,2.2298357486724854,-1.8332208395004272
1667776744791445800,9.57844580078125,0.6536731719970703,0.5467029809951782,-2.8386011123657227
1667776744801496800,9.588496826171875,1.3924026489257812,0.425944983959198,-1.935017704963684
1667776744811547600,9.598547607421875,1.8152401447296143,-0.6788239479064941,-0.09942512959241867
1667776744821598700,9.6085986328125,1.9492669105529785,-5.191263675689697,1.1427534818649292
1667776744831649800,9.61864990234375,1.6792365312576294,-9.191909790039062,2.3469958305358887
1667776744841701600,9.62870166015625,0.9816430807113647,-11.842573165893555,3.0759854316711426
1667776744851752700,9.638752685546875,-0.29052284359931946,-12.13953971862793,3.0495998859405518
1667776744861803800,9.6488037109375,-1.4700288772583008,-6.404995441436768,2.2648303508758545
1667776744871854800,9.658854736328125,-2.4090466499328613,3.389676809310913,-1.1337711811065674
1667776744881906700,9.66890673828125,-2.2710399627685547,5.148787498474121,-2.533482551574707
1667776744891957800,9.678957763671875,-2.131173610687256,4.447193145751953,-2.684821128845215
1667776744902008800,9.6890087890625,-1.8954389095306396,3.902432441711426,-1.9825072288513184
1667776744912060000,9.699059814453125,-1.7144782543182373,3.165400981903076,-0.008323689922690392
1667776744922111700,9.70911181640625,-1.1866295337677002,2.3850820064544678,1.3678454160690308
1667776744932162800,9.719162841796875,-0.6008437275886536,1.3314632177352905,2.637732744216919
1667776744942214000,9.7292138671875,-0.020887454971671104,0.21208418905735016,3.780064105987549
1667776744952264700,9.7392646484375,0.272193968296051,-0.2987668216228485,4.317914962768555
1667776744962316800,9.74931689453125,0.38122302293777466,-0.25793835520744324,4.266871929168701
1667776744972368000,9.759367919921875,0.3351931869983673,-0.7287849187850952,4.690090179443359
1667776744982418700,9.769418701171874,0.07519980520009995,-1.284273624420166,4.705277919769287
1667776744992469800,9.7794697265625,0.16473475098609924,-0.6840282082557678,3.6508994102478027
1667776745002521900,9.78952197265625,0.14877930283546448,-0.10200798511505127,2.82357120513916
1667776745012572700,9.79957275390625,-0.22171062231063843,-0.09978318214416504,2.5549850463867188
1667776745022623700,9.809623779296874,-0.6724949479103088,-0.11142474412918091,2.361555337905884
1667776745032674800,9.8196748046875,-0.980254590511322,0.14262138307094574,1.9794268608093262
1667776745042726700,9.8297265625,-1.0627702474594116,0.020692696794867516,1.392566442489624
1667776745052777700,9.83977783203125,-1.026179313659668,-0.7617954611778259,0.6425169706344604
1667776745062828800,9.849828857421874,-0.9202793836593628,-1.6808960437774658,-0.19909541308879852
1667776745072879900,9.8598798828125,-0.6668985486030579,-2.2669196128845215,-0.8835922479629517
1667776745082930700,9.8699306640625,-0.26340189576148987,-2.460465669631958,-1.445919394493103
1667776745092982800,9.879982666015625,0.25066861510276794,-2.2617874145507812,-1.9536670446395874
1667776745103033000,9.890033203125,0.8529382944107056,-1.6677886247634888,-2.2963221073150635
1667776745113084200,9.900084228515626,1.4204424619674683,-0.8645509481430054,-2.3899648189544678
1667776745123135000,9.910135009765625,1.9421576261520386,-0.31256142258644104,-2.5116779804229736
1667776745133187000,9.92018701171875,2.333962917327881,-0.05375780537724495,-2.8070716857910156
1667776745143238100,9.930238037109374,2.4753124713897705,0.02752249501645565,-3.1994264125823975
1667776745153289000,9.9402890625,2.3221631050109863,0.26140156388282776,-3.381709575653076
1667776745163340000,9.950340087890625,1.7890753746032715,1.3196712732315063,-3.078057289123535
1667776745173392100,9.96039208984375,1.3654398918151855,3.3869245052337646,-2.616347074508667
1667776745183443000,9.97044287109375,1.1808446645736694,5.018676280975342,-2.5000016689300537
1667776745193494000,9.980493896484376,1.109006404876709,5.076161861419678,-2.5858938694000244
1667776745203545000,9.990545166015625,1.168898105621338,3.748748302459717,-2.8676271438598633
1667776745213597200,10.00059716796875,1.1188684701919556,2.14271879196167,-3.5438039302825928
1667776745223648000,10.01064794921875,0.9814082980155945,1.4527641534805298,-3.8334803581237793
1667776745233699000,10.020698974609376,1.0213764905929565,1.0669581890106201,-3.570760488510132
1667776745243750100,10.030750244140625,1.2128901481628418,-1.0442721843719482,-3.6371517181396484
1667776745253802000,10.040802001953125,1.9016326665878296,-3.085265874862671,-4.3126044273376465
1667776745263853000,10.05085302734375,2.4179904460906982,-3.2097527980804443,-4.578785419464111
1667776745273904000,10.060904052734376,2.6497771739959717,-2.27581787109375,-4.341200828552246
1667776745283955200,10.070955078125,2.5250966548919678,-0.7692458629608154,-3.729520797729492
1667776745294006000,10.081006103515625,1.9438798427581787,0.7527474761009216,-3.122483015060425
1667776745304058000,10.09105810546875,1.285109519958496,1.533406138420105,-2.9874162673950195
1667776745314109200,10.101109130859374,0.9134936332702637,1.564409852027893,-3.0534255504608154
1667776745324160000,10.111159912109375,0.9247345328330994,1.3228707313537598,-2.871595621109009
1667776745334211000,10.121211181640625,0.9043033123016357,1.393233060836792,-2.429442882537842
1667776745344263200,10.13126318359375,0.5920778512954712,2.117490530014038,-1.834579348564148
1667776745354314000,10.14131396484375,0.14400070905685425,2.920168399810791,-1.3329412937164307
1667776745364365000,10.151364990234375,-0.24946267902851105,3.4307076930999756,-0.9989499449729919
1667776745374416100,10.161416015625,-0.5724385976791382,3.574798583984375,-0.6985254287719727
1667776745384468000,10.171468017578125,-0.8134362697601318,3.4722347259521484,-0.19738073647022247
1667776745394519000,10.18151904296875,-0.982886016368866,2.4994289875030518,0.49115636944770813
1667776745404570000,10.191570068359376,-1.061881184577942,0.6805935502052307,1.2004913091659546
1667776745414621200,10.20162109375,-0.9590044021606445,-1.2303721904754639,1.7964646816253662
1667776745424673000,10.211673095703125,-0.8553416132926941,-3.012587070465088,2.2822484970092773
1667776745434724000,10.22172412109375,-0.9955589771270752,-4.486985683441162,2.846738815307617
1667776745444775200,10.231775146484376,-1.4355664253234863,-5.437702655792236,3.5511081218719482
1667776745454826200,10.241826171875,-1.8713167905807495,-5.4394073486328125,4.32936429977417
1667776745464878000,10.251878173828125,-2.17798113822937,-4.504851818084717,5.101232051849365
1667776745474929200,10.26192919921875,-2.168318510055542,-3.0097289085388184,5.570740222930908
1667776745484980200,10.271980224609376,-1.9352346658706665,-1.6883056163787842,5.295284748077393
1667776745495031000,10.282031005859375,-1.6590780019760132,-0.9540438055992126,4.673354625701904
1667776745505082000,10.29208203125,-1.3527774810791016,-0.1772785186767578,3.874683141708374
1667776745515134200,10.30213427734375,-1.0097508430480957,0.7767427563667297,2.8308908939361572
1667776745525185000,10.31218505859375,-0.6555026173591614,2.2202162742614746,1.2482993602752686
1667776745535236000,10.322236083984375,0.6099865436553955,4.397058963775635,-1.8737517595291138
1667776745545287200,10.332287109375,2.1384596824645996,3.734694480895996,-3.2668583393096924
1667776745555339000,10.342339111328124,2.745959997177124,2.28463077545166,-1.8211203813552856
1667776745565390000,10.35239013671875,2.5975239276885986,-1.3398202657699585,-0.0037240306846797466
1667776745575441200,10.362441162109375,2.0782649517059326,-5.446067810058594,0.631402313709259
1667776745585492200,10.3724921875,1.0568058490753174,-9.097753524780273,1.0358244180679321
1667776745595544000,10.3825439453125,-0.785091757774353,-12.149256706237793,1.2731269598007202
1667776745605595100,10.39259521484375,-3.7579994201660156,-6.794260501861572,-0.6654831767082214
1667776745615646200,10.402646240234375,-5.75135612487793,3.857191801071167,-2.903701066970825
1667776745625697000,10.412697021484375,-5.633233547210693,3.521836042404175,-2.5751547813415527
1667776745635749000,10.4227490234375,-4.911191940307617,1.7255114316940308,-1.6588693857192993
1667776745645800200,10.43280029296875,-3.924893617630005,0.1907721757888794,-0.7446022033691406
1667776745655851000,10.44285107421875,-2.648712635040283,0.13082627952098846,0.4301064610481262
1667776745665902000,10.452902099609375,-1.1431037187576294,0.990013062953949,1.8597204685211182
1667776745675954200,10.4629541015625,0.49260932207107544,1.7750442028045654,3.3219377994537354
1667776745686005000,10.4730048828125,1.4697964191436768,1.6834368705749512,4.565446853637695
1667776745696056000,10.48305615234375,1.4322471618652344,1.0268185138702393,4.91511344909668
1667776745706107100,10.493107177734375,0.7906373143196106,-0.5688838958740234,4.788179874420166
1667776745716159200,10.5031591796875,0.11837529391050339,-2.287382125854492,4.082216262817383
1667776745726210000,10.5132099609375,-0.526782214641571,-2.056101083755493,3.125153064727783
1667776745736261000,10.52326123046875,-0.6821845769882202,0.3015962541103363,2.7764790058135986
1667776745746312200,10.533312255859375,-0.37784910202026367,1.9667569398880005,3.1196789741516113
1667776745756363300,10.54336328125,-0.4702770411968231,1.5268498659133911,3.5582995414733887
1667776745766415000,10.5534150390625,-0.9888307452201843,0.43267929553985596,3.6944141387939453
1667776745776466200,10.563466064453126,-1.2984898090362549,0.13295598328113556,3.2854385375976562
1667776745786517200,10.573517333984375,-1.232073187828064,0.24326500296592712,2.5300896167755127
1667776745796568000,10.583568115234375,-1.2100865840911865,-0.11740744113922119,1.8920871019363403
1667776745806620200,10.5936201171875,-1.2791366577148438,-1.0814770460128784,1.3950523138046265
1667776745816671200,10.603671142578126,-1.297863245010376,-2.260192394256592,0.9815139770507812
1667776745826722000,10.61372216796875,-1.2428982257843018,-2.841409683227539,0.5138400793075562
1667776745836773000,10.623773193359375,-1.0182212591171265,-2.7390196323394775,-0.17741507291793823
1667776745846825200,10.6338251953125,-0.5928037166595459,-2.4428963661193848,-0.9942978620529175
1667776745856876000,10.6438759765625,0.05866782367229462,-1.8805874586105347,-1.6314735412597656
1667776745866927000,10.653927001953125,0.8107960224151611,-0.9165398478507996,-1.9660859107971191
1667776745876978200,10.663978271484375,1.5418273210525513,0.08152154088020325,-2.2479324340820312
1667776745887030000,10.674030029296874,2.1000068187713623,0.6990535259246826,-2.5711936950683594
1667776745897081000,10.6840810546875,2.4059977531433105,0.8988257646560669,-2.7499966621398926
1667776745907132200,10.694132080078125,2.4411094188690186,1.0800604820251465,-2.563443660736084
1667776745917183200,10.704183349609375,2.2111620903015137,1.5438493490219116,-2.2975213527679443
1667776745927234000,10.714234130859374,1.6911561489105225,2.411944627761841,-2.3772096633911133
1667776745937286100,10.7242861328125,1.3930919170379639,3.672442674636841,-2.785069704055786
1667776745947337200,10.734337158203125,1.2406771183013916,4.2524542808532715,-3.0331356525421143
1667776745957388300,10.74438818359375,1.1659408807754517,3.486722946166992,-3.0508415699005127
1667776745967439000,10.754439208984374,1.087338924407959,2.286282539367676,-3.3071134090423584
1667776745977491200,10.7644912109375,0.89283287525177,1.8381998538970947,-3.332486152648926
1667776745987542300,10.774542236328125,1.0699470043182373,1.7916738986968994,-3.2023606300354004
1667776745997593000,10.784593017578125,1.2350664138793945,1.0472303628921509,-2.9287667274475098
1667776746007644200,10.79464404296875,1.4282336235046387,-1.4803050756454468,-2.908268451690674
1667776746017696300,10.8046962890625,1.9930799007415771,-4.261399745941162,-3.536895275115967
1667776746027747000,10.8147470703125,2.6510350704193115,-5.1031270027160645,-3.97029709815979
1667776746037798100,10.824798095703125,2.8976850509643555,-3.839071273803711,-3.624253511428833
1667776746047849200,10.83484912109375,2.4967312812805176,-1.0195986032485962,-2.811116933822632
1667776746057901000,10.844901123046874,1.7445733547210693,1.406335473060608,-2.3947432041168213
1667776746067952000,10.8549521484375,1.1673578023910522,2.3368852138519287,-2.367952585220337
1667776746078003200,10.865003173828125,0.9301098585128784,2.3823978900909424,-2.2971246242523193
1667776746088054300,10.87505419921875,0.8546402454376221,1.9980394840240479,-2.079615592956543
1667776746098106000,10.885106201171874,0.7826070189476013,1.7435060739517212,-1.7347877025604248
1667776746108157400,10.895157470703126,0.6416921019554138,1.9605190753936768,-1.3459354639053345
1667776746118208300,10.905208251953125,0.46334317326545715,2.266624927520752,-0.9484680891036987
1667776746128259000,10.915259033203125,0.2969343364238739,2.357820749282837,-0.5266866683959961
1667776746138311400,10.9253115234375,0.1496490240097046,2.342306613922119,-0.09936120361089706
1667776746148362500,10.935362548828126,0.005819774232804775,2.2308437824249268,0.31311824917793274
1667776746158413000,10.9454130859375,-0.14175637066364288,1.8300495147705078,0.6861283183097839
1667776746168464100,10.955464111328125,-0.31091025471687317,1.0474958419799805,1.0384942293167114
1667776746178515200,10.96551513671875,-0.45600777864456177,0.018307719379663467,1.512279987335205
1667776746188567300,10.9755673828125,-0.7635592222213745,-1.026067852973938,2.2904045581817627
1667776746198618000,10.9856181640625,-1.1034009456634521,-1.8319470882415771,3.3458199501037598
1667776746208669200,10.995669189453125,-1.3914251327514648,-2.03054141998291,4.246272563934326
1667776746218720300,11.00572021484375,-1.644039273262024,-1.5318812131881714,4.239796161651611
1667776746228772000,11.015772216796876,-1.7357920408248901,-0.9333529472351074,3.4245505332946777
1667776746238823200,11.0258232421875,-1.7583248615264893,-0.7158176898956299,2.633511543273926
1667776746248874200,11.035874267578125,-1.768883228302002,-0.5345042943954468,2.176996946334839
1667776746258925300,11.04592529296875,-1.7628600597381592,0.10730979591608047,1.8008077144622803
1667776746268977200,11.05597705078125,-1.484715223312378,1.4531668424606323,1.0863474607467651
1667776746279028200,11.0660283203125,-0.5928181409835815,3.0140492916107178,-0.29313933849334717
1667776746289079300,11.076079345703125,0.547154426574707,2.514457941055298,-2.051006555557251
1667776746299130000,11.086130126953124,1.2911968231201172,1.0167043209075928,-2.5194177627563477
1667776746309182200,11.09618212890625,1.8112980127334595,0.3728598952293396,-0.9364644885063171
1667776746319233300,11.1062333984375,2.1709401607513428,-3.5345520973205566,0.6184854507446289
1667776746329284000,11.1162841796875,1.8800376653671265,-8.113523483276367,1.1681145429611206
1667776746339335200,11.126335205078124,0.739783763885498,-10.940926551818848,1.2875418663024902
1667776746349386200,11.13638623046875,-0.8451447486877441,-9.98056411743164,0.9235221147537231
1667776746359438000,11.14643798828125,-1.980424404144287,-5.070687294006348,-0.15322154760360718
1667776746369489200,11.1564892578125,-2.1073367595672607,-0.13794061541557312,-1.390093207359314
1667776746379540200,11.166540283203124,-1.835190773010254,1.8010739088058472,-1.4177459478378296
1667776746389591300,11.17659130859375,-1.7341312170028687,2.493004322052002,-0.842190682888031
1667776746399643100,11.18664306640625,-1.808967113494873,2.6075806617736816,0.008975839242339134
1667776746409694200,11.196694091796875,-2.067399501800537,2.5402143001556396,1.1216442584991455
1667776746419745300,11.206745361328124,-2.2642924785614014,2.923962354660034,2.540822982788086
1667776746429796000,11.216796142578126,-2.2553062438964844,3.38265323638916,3.8242886066436768
1667776746439848200,11.22684814453125,-2.0717575550079346,3.6352574825286865,4.544881343841553
1667776746449899300,11.236899169921875,-1.8639476299285889,3.599487781524658,4.623457908630371
1667776746459950300,11.246950439453125,-1.7380142211914062,2.2609622478485107,4.459867000579834
1667776746470001200,11.257001220703126,-1.3058279752731323,0.6109248995780945,3.6952672004699707
1667776746480053200,11.26705322265625,-0.6718899011611938,-0.04186619818210602,3.024540901184082
1667776746490104300,11.277104248046875,-0.1538688689470291,-0.17658284306526184,3.0199432373046875
1667776746500155100,11.287155029296875,-0.13432526588439941,-0.13416457176208496,3.481685161590576
1667776746510206200,11.297206298828126,-0.5800397992134094,0.3184371292591095,3.859090566635132
1667776746520258300,11.30725830078125,-1.1468204259872437,0.6500265002250671,3.714547634124756
1667776746530309000,11.31730908203125,-1.4280561208724976,0.4913669526576996,3.0436885356903076
1667776746540360200,11.327360107421875,-1.2654024362564087,-0.33364251255989075,2.3032641410827637
1667776746550411300,11.337411376953124,-0.9219576716423035,-1.4047141075134277,1.706081509590149
1667776746560463000,11.347463134765626,-0.7774518728256226,-2.3254001140594482,1.4041402339935303
1667776746570514200,11.35751416015625,-0.8792382478713989,-2.8369483947753906,1.019139289855957
1667776746580565200,11.367565185546875,-0.8768882751464844,-2.5726847648620605,0.12628203630447388
1667776746590616300,11.3776162109375,-0.5775976777076721,-2.2369749546051025,-1.005642294883728
1667776746600667100,11.387667236328125,-0.003164511639624834,-2.264932632446289,-1.7170300483703613
1667776746610719200,11.39771923828125,0.7722082138061523,-2.0116257667541504,-1.9532289505004883
1667776746620770300,11.407770263671875,1.656965732574463,-1.4945212602615356,-2.124244451522827
1667776746630821000,11.417821044921874,2.5061373710632324,-0.9790356755256653,-2.4225432872772217
1667776746640872200,11.4278720703125,3.133195400238037,-0.352798730134964,-2.601705312728882
1667776746650924300,11.43792431640625,3.4817724227905273,0.2303970456123352,-2.553895950317383
1667776746660975000,11.44797509765625,3.506781816482544,0.7385412454605103,-2.380434989929199
1667776746671026200,11.458026123046874,3.211681365966797,1.2922255992889404,-2.372251510620117
1667776746681077200,11.4680771484375,2.5863118171691895,2.483527660369873,-2.741609811782837
1667776746691129000,11.478129150390625,1.8853508234024048,4.431385040283203,-2.763335943222046
1667776746701180200,11.48818017578125,1.7057405710220337,5.247886657714844,-2.475323438644409
1667776746711231200,11.498231201171874,1.7902148962020874,4.538201808929443,-2.5495636463165283
1667776746721282300,11.5082822265625,1.6990610361099243,3.955043077468872,-2.7798428535461426
1667776746731334100,11.518334228515625,1.5097659826278687,3.500487804412842,-2.7945621013641357
1667776746741385200,11.52838525390625,1.4556872844696045,2.1811585426330566,-2.832205057144165
1667776746751436300,11.538436279296874,1.163722038269043,-0.8058397769927979,-3.076606273651123
1667776746761487400,11.5484873046875,1.2533725500106812,-3.909503698348999,-3.73700213432312
1667776746771539200,11.558539306640625,1.8440828323364258,-5.179592609405518,-4.246673583984375
1667776746781590300,11.56859033203125,2.3333301544189453,-4.402722358703613,-4.072333335876465
1667776746791641300,11.578641357421875,2.479187250137329,-2.1552863121032715,-3.3759372234344482
1667776746801692200,11.588692138671876,2.1359238624572754,0.0017830750439316034,-2.7467522621154785
1667776746811744300,11.598744140625,1.5466995239257812,0.9918847680091858,-2.53873610496521
1667776746821795300,11.60879541015625,1.2333372831344604,1.2274237871170044,-2.393436908721924
1667776746831846100,11.61884619140625,1.2003564834594727,1.0563684701919556,-2.116697072982788
1667776746841897200,11.628897216796876,1.2593140602111816,0.8108921051025391,-1.6793512105941772
1667776746851948300,11.6389482421875,1.1106065511703491,1.080313801765442,-1.1369587182998657
1667776746862000000,11.649000244140625,0.8158087134361267,1.7499078512191772,-0.6212618350982666
1667776746872051200,11.65905126953125,0.4877240061759949,2.171482801437378,-0.2168249785900116
1667776746882102300,11.669102294921874,0.1216123178601265,2.131197452545166,0.12364950776100159
1667776746892153300,11.6791533203125,-0.20851349830627441,1.6989736557006836,0.5179033279418945
1667776746902205200,11.689205078125,-0.5225949883460999,0.8069398999214172,1.0735557079315186
1667776746912256300,11.69925634765625,-0.99809730052948,-0.36492690443992615,1.8999515771865845
1667776746922307300,11.709307373046874,-1.715685486793518,-1.3125663995742798,3.023735284805298
1667776746932358100,11.719358154296875,-2.045081377029419,-1.7691452503204346,4.124882221221924
1667776746942410200,11.72941015625,-2.2204415798187256,-1.4563508033752441,4.422209739685059
1667776746952461300,11.73946142578125,-2.2710962295532227,-0.6767105460166931,3.7774367332458496
1667776746962512100,11.74951220703125,-2.2374351024627686,-0.11903028935194016,2.840390920639038
1667776746972563200,11.759563232421876,-2.3328723907470703,-0.03950142860412598,2.084850788116455
1667776746982615300,11.769615234375,-2.467144727706909,0.17316636443138123,1.5139446258544922
1667776746992666400,11.779666259765625,-2.3623697757720947,1.3841203451156616,0.49275442957878113
1667776747002717200,11.78971728515625,-1.5700254440307617,3.374755620956421,-1.4079763889312744
1667776747012768300,11.799768310546876,-0.29940858483314514,3.384690761566162,-2.6838386058807373
1667776747022819300,11.8098193359375,0.682706892490387,1.1157907247543335,-2.450911521911621
1667776747032871200,11.81987109375,1.4082767963409424,0.28758832812309265,-0.27944454550743103
1667776747042922200,11.829922119140624,2.0884323120117188,-2.65029239654541,1.3594977855682373
1667776747052973300,11.839973388671876,2.3505666255950928,-7.38346529006958,1.6673080921173096
1667776747063024400,11.8500244140625,2.1553163528442383,-10.363130569458008,1.4308724403381348
1667776747073076200,11.860076171875,1.4625492095947266,-11.736917495727539,1.0588101148605347
1667776747083127300,11.870127197265624,0.2529720067977905,-11.941995620727539,0.25956782698631287
1667776747093178400,11.880178466796876,-1.4028739929199219,-7.905398845672607,-0.9547079801559448
1667776747103229200,11.890229248046875,-3.653299331665039,5.245108127593994,-3.681624412536621
1667776747113281800,11.90028173828125,-3.8964250087738037,8.232718467712402,-2.5720977783203125
1667776747123332900,11.910332763671875,-3.5315585136413574,7.444932460784912,-1.1780215501785278
1667776747133383700,11.9203837890625,-3.018279790878296,5.810488700866699,0.16300716996192932
1667776747143434800,11.930434814453125,-2.501919984817505,3.467982053756714,1.771963119506836
1667776747153486800,11.94048681640625,-1.8439362049102783,1.3353513479232788,2.735938549041748
1667776747163537700,11.95053759765625,-1.3566250801086426,0.04976482689380646,3.0947372913360596
1667776747173588700,11.960588623046876,-1.2644720077514648,-0.5367492437362671,3.0770070552825928
1667776747183639800,11.970639892578125,-1.2718167304992676,-0.05674297362565994,3.1297247409820557
1667776747193691600,11.980691650390625,-1.384090781211853,1.0599143505096436,3.664102077484131
1667776747203742700,11.99074267578125,-1.3546806573867798,2.044504165649414,4.457177639007568
1667776747213793800,12.000793701171874,-0.8966327905654907,1.9711507558822632,4.631775379180908
1667776747223844900,12.010844970703126,-0.4544691741466522,0.7311662435531616,3.917907476425171
1667776747233896700,12.020896728515625,-0.2753100097179413,-0.5797445178031921,3.516082525253296
1667776747243947800,12.03094775390625,-0.5328512787818909,-0.8073047399520874,3.654297113418579
1667776747253998800,12.040998779296874,-1.099642038345337,-0.01101388968527317,3.654752731323242
1667776747264049700,12.051049560546875,-1.6362296342849731,1.037793517112732,3.3212523460388184
1667776747274100500,12.0611005859375,-1.8412184715270996,1.3766608238220215,2.8725225925445557
1667776747284152800,12.07115283203125,-1.6899950504302979,0.4178082048892975,2.345360517501831
1667776747294203600,12.08120361328125,-1.4134622812271118,-1.2503142356872559,1.8830596208572388
1667776747304254700,12.091254638671876,-1.2707970142364502,-2.416400671005249,1.304229736328125
1667776747314305500,12.101305419921875,-1.3117767572402954,-2.5396900177001953,0.18688729405403137
1667776747324357600,12.111357666015625,-1.236279845237732,-2.2275235652923584,-1.2301892042160034
1667776747334408700,12.12140869140625,-0.7167950868606567,-2.3061821460723877,-2.1935648918151855
1667776747344459800,12.131459716796876,0.2088744342327118,-2.2106173038482666,-2.5117979049682617
1667776747354510600,12.141510498046875,1.238288402557373,-1.645970344543457,-2.4865236282348633
1667776747364562700,12.151562744140625,2.1153764724731445,-0.897390604019165,-2.427974224090576
1667776747374613800,12.16161376953125,2.7997443675994873,-0.10399869829416275,-2.288172960281372
1667776747384664800,12.171664794921876,3.2423417568206787,0.39320653676986694,-2.2478325366973877
1667776747394715600,12.181715576171875,3.37473726272583,0.4369099736213684,-2.318181037902832
1667776747404767700,12.191767822265625,3.119025945663452,0.5463911890983582,-2.518373727798462
1667776747414818800,12.20181884765625,2.388500452041626,1.7823052406311035,-2.823953151702881
1667776747424870000,12.211869873046876,1.8660190105438232,4.0674896240234375,-2.6743550300598145
1667776747434920400,12.22192041015625,1.7752645015716553,4.967207908630371,-2.283203363418579
1667776747444971500,12.231971435546875,1.819378137588501,3.7943308353424072,-2.465022087097168
1667776747455023900,12.24202392578125,1.7730555534362793,2.1151180267333984,-3.245302438735962
1667776747465074400,12.252074462890626,1.5266972780227661,1.4774277210235596,-3.5484235286712646
1667776747475125500,12.26212548828125,1.4490470886230469,1.404890775680542,-3.7057621479034424
1667776747485176600,12.272176513671875,1.9432810544967651,0.9596211910247803,-3.7384798526763916
1667776747495228700,12.282228759765625,2.3688406944274902,-0.6306540966033936,-3.580170154571533
1667776747505279500,12.292279541015626,2.3595168590545654,-2.9512765407562256,-3.790738582611084
1667776747515330600,12.30233056640625,2.21895432472229,-4.694820880889893,-4.107278823852539
1667776747525381600,12.312381591796875,2.1995108127593994,-4.619438648223877,-4.078603267669678
1667776747535433700,12.322433837890625,2.1443252563476562,-2.6509742736816406,-3.6644906997680664
1667776747545484500,12.332484619140626,1.900101900100708,0.025889946147799492,-3.033449172973633
1667776747555535600,12.34253564453125,1.6501071453094482,1.8915693759918213,-2.4334750175476074
1667776747565586700,12.352586669921875,1.4381848573684692,2.3070197105407715,-2.0535635948181152
1667776747575638800,12.362638671875,1.3529062271118164,1.77377450466156,-1.8026001453399658
1667776747585689600,12.372689697265624,1.2852305173873901,1.5666834115982056,-1.5116677284240723
1667776747595740700,12.38274072265625,0.9273378252983093,2.1235477924346924,-1.1943610906600952
1667776747605791500,12.39279150390625,0.433880478143692,2.5500800609588623,-0.9140077829360962
1667776747615843800,12.40284375,-0.03093337081372738,2.4916629791259766,-0.6255671977996826
1667776747625894700,12.412894775390624,-0.36719685792922974,2.049467086791992,-0.23894277215003967
1667776747635945500,12.422945556640625,-0.6285955309867859,1.4146677255630493,0.21395601332187653
1667776747645996500,12.43299658203125,-0.8702707886695862,0.6631566286087036,0.7061302661895752
1667776747656047600,12.443047607421875,-1.1097146272659302,-0.4374558925628662,1.3995591402053833
1667776747666099500,12.453099365234374,-1.4616851806640625,-1.8298611640930176,2.4363741874694824
1667776747676150500,12.463150634765626,-2.0360124111175537,-2.9489762783050537,3.483940362930298
1667776747686201600,12.47320166015625,-2.6404478549957275,-3.353609323501587,4.1682915687561035
1667776747696252700,12.483252685546875,-3.039250373840332,-2.8575921058654785,4.0570387840271
1667776747706304500,12.493304443359374,-2.9969921112060547,-1.811238408088684,3.2449138164520264
1667776747716355600,12.50335546875,-2.8250532150268555,-0.8596070408821106,2.3052401542663574
1667776747726406700,12.51340673828125,-2.461284875869751,0.2787020206451416,1.5188168287277222
1667776747736457500,12.52345751953125,-1.6991161108016968,1.8818610906600952,0.6629368662834167
1667776747746509600,12.533509521484374,-0.5304252505302429,3.4229159355163574,-0.47426164150238037
1667776747756560600,12.543560546875,1.023559808731079,3.7382428646087646,-1.9455921649932861
1667776747766611500,12.553611572265625,1.8674668073654175,2.012484312057495,-2.573338747024536
1667776747776662500,12.56366259765625,1.6375298500061035,0.7393694519996643,-1.6948292255401611
1667776747786714600,12.573714599609374,1.3586499691009521,-0.07906227558851242,-0.4047327935695648
1667776747796765400,12.583765380859376,1.461424469947815,-3.229534149169922,0.6797851920127869
1667776747806816500,12.59381640625,1.7595866918563843,-6.8519392013549805,1.5283583402633667
1667776747816867600,12.60386767578125,1.6825966835021973,-8.14278793334961,1.843257188796997
1667776747826919700,12.613919677734375,1.0302921533584595,-8.777405738830566,2.187272071838379
1667776747836970500,12.623970458984376,0.04312560334801674,-8.912878036499023,2.3771350383758545
1667776747847021600,12.634021484375,-1.1467297077178955,-4.456753253936768,1.7532238960266113
1667776747857072600,12.64407275390625,-2.8902196884155273,10.160333633422852,-2.3638789653778076
