time,seconds_elapsed,z,y,x
1667709579352397600,0.0493974609375,-1.155087734735012,-0.8035427532088011,-1.2933438205197452
1667709579362448400,0.059448486328125,-1.4602391408115625,-0.9135765877895057,-1.4781396852917967
1667709579372499500,0.06949951171875,-1.254455286937952,-1.1368811199802904,-1.6810944532193242
1667709579382549500,0.079549560546875,-0.9008288960278034,-1.3151523322239518,-1.9789123015373944
1667709579392600600,0.0896005859375,-0.698619978031516,-1.2734364662617443,-2.2430310016103086
1667709579402651600,0.099651611328125,-1.0823948389679192,-0.9425029686748981,-2.005265470933914
1667709579412702500,0.109702392578125,-1.8588760553151369,-0.9061468761801719,-0.9068011023052036
1667709579422753500,0.11975341796875,-2.1805150703340765,-1.1827068324141203,0.3528127364397049
1667709579432804600,0.1298046875,-2.1265017405956983,-1.4596012812994419,0.9514626663304865
1667709579442854700,0.139854736328125,-2.2032541408866644,-1.6728304827429352,0.8127754956521094
1667709579452905700,0.14990576171875,-2.2848738549530503,-1.6251066085375845,0.3971623119063675
1667709579462956500,0.15995654296875,-1.7146908717423677,-1.6196727469205856,-0.3486550322383642
1667709579473007600,0.170007568359375,-0.21947452557384967,-1.6202071460582315,-1.0147643411569296
1667709579483058400,0.180058349609375,1.5778911222457885,-1.4268492046460508,-1.0176800824731589
1667709579493109500,0.190109619140625,2.4970927103102207,-1.338578946649283,-0.3868685891680419
1667709579503159600,0.20015966796875,1.9458722017228602,-1.435310158999264,1.0589366603605448
1667709579513210600,0.210210693359375,-0.5682219122707843,-1.1642981922812758,2.1451830601900816
1667709579523261400,0.220261474609375,-4.099102374768257,-0.05650660785883665,2.414799627026915
1667709579533312500,0.2303125,-6.436748034965992,1.2907960357330739,2.26762344494462
1667709579543363600,0.240363525390625,-6.678548374116421,2.2506838544510304,1.4603902397200463
1667709579553414700,0.25041455078125,-5.958240295889973,2.8236291419818995,0.6460996633298695
1667709579563464700,0.260464599609375,-4.702858541756868,2.8852216748028994,0.7459851019270718
1667709579573515800,0.270515869140625,-3.1569641477525234,2.3083852250523864,1.4170673769526183
1667709579583566600,0.280566650390625,-1.4536983408659696,1.564812737224996,2.040374924368411
1667709579593617700,0.29061767578125,-0.35290158376693725,0.6700672527641057,2.4920424411833286
1667709579603668500,0.30066845703125,0.06111234808862209,-0.00884893075749278,3.3865719448059797
1667709579613719600,0.310719482421875,0.08229016067385674,-0.5580941937491297,4.116862487864494
1667709579623769600,0.32076953125,-0.06842588597238064,-0.76975789944157,3.9402152966260906
1667709579633820400,0.3308203125,-0.21935762119591234,-0.4814695114910602,3.4327895061016083
1667709579643871500,0.34087158203125,-0.23997312372326848,-0.1302104342341423,2.7705738436207175
1667709579653922600,0.350922607421875,0.33367782785892486,0.26871611086577174,1.992097800194472
1667709579663973600,0.3609736328125,1.02851361117661,0.7111860296159982,1.1060425487980245
1667709579674024700,0.371024658203125,1.6436217777848243,0.9500897705420851,0.33732349088490005
1667709579684074800,0.38107470703125,2.2255226713180543,0.9158984548658132,-0.0844043763488531
1667709579694125600,0.39112548828125,2.4401094248503443,0.6306824600979686,-0.09190510736778378
1667709579704176600,0.4011767578125,2.394358312022686,0.1518342370212078,0.15478636482506988
1667709579714227700,0.411227783203125,2.3081956938296555,-0.23462153356224297,0.23569968418776988
1667709579724278500,0.421278564453125,2.2107342675089834,-0.4588002913042903,0.13839169486314057
1667709579734329300,0.431329345703125,2.1897791577637196,-0.7139452651962638,0.07521057767644525
1667709579744379600,0.441379638671875,2.016310012039542,-0.9330930430337786,-0.1810406038917601
1667709579754430500,0.451430419921875,1.6756465630769728,-0.9966861020222305,-0.5099154153831302
1667709579764481500,0.4614814453125,1.5313123264223336,-0.9371411493808031,-0.7914192577600478
1667709579774532600,0.47153271484375,1.8391180463999508,-0.8200783660113811,-1.1221490494683384
1667709579784583700,0.481583740234375,1.971578305387497,-0.6583394055694342,-1.5410796871989965
1667709579794634500,0.491634521484375,2.0810493184536694,-0.2924471150651574,-1.8966902376636863
1667709579804684500,0.5016845703125,2.149180605393648,0.07645604769289494,-1.8619860040292142
1667709579814735600,0.511735595703125,2.021880505648255,0.43785219582170243,-1.701219103489816
1667709579824786700,0.52178662109375,1.8158172503113745,0.7868044574409723,-1.884581282196939
1667709579834837800,0.531837646484375,1.690361317127943,0.9310136064112186,-2.4931787517368793
1667709579844888600,0.541888671875,1.6108067188978195,1.1504562755420804,-2.765753291596472
1667709579854939400,0.551939453125,1.7886761454075575,1.2516606877833605,-2.8898350138172506
1667709579864989400,0.561989501953125,2.3085002297341823,0.9112824855029582,-2.8898464119940996
1667709579875040500,0.57204052734375,2.5323563313931223,0.30713410432636734,-2.801783513137698
1667709579885091600,0.582091552734375,2.3901292961508034,-0.11140315017253159,-2.345580837111175
1667709579895142700,0.592142578125,2.047892314261198,-0.3860118262082338,-1.647270363420248
1667709579905193500,0.602193359375,1.7691735725581645,-0.7563572967290878,-1.1823492511481046
1667709579915244500,0.61224462890625,1.5026841978311538,-0.9657324530929327,-0.780605602800846
1667709579925294600,0.622294677734375,0.7831371671050786,-1.0055638204827904,-0.1039259461596608
1667709579935345700,0.632345703125,-0.12022212418317794,-1.3143190962702036,0.22994418940097092
1667709579945396700,0.642396728515625,-0.8499509417057037,-1.5230857653468846,0.056360769647359844
1667709579955447600,0.652447509765625,-1.3206898003458976,-1.4907219573587178,-0.12311346171051263
1667709579965498600,0.66249853515625,-1.487256327074766,-1.3543947938099503,-0.33510420740023256
1667709579975549400,0.672549560546875,-1.5305378349184988,-1.1850354214921592,-0.5885824171237647
1667709579985599500,0.682599609375,-1.4924316838860512,-1.054756013675034,-0.7778532353527844
1667709579995650600,0.692650634765625,-1.4327847321748732,-0.9913029476791619,-0.9490550206668674
1667709580005701600,0.70270166015625,-1.4416063365340233,-0.9776876793026924,-1.1431366001784802
1667709580015752400,0.71275244140625,-1.7062375161737202,-1.011396472159028,-0.8929967410974204
1667709580025803500,0.722803466796875,-2.164604384496808,-1.1779703054115176,-0.5308719864331185
1667709580035854600,0.7328544921875,-2.3194956710010763,-1.3217217737421392,-0.6294486805193126
1667709580045904600,0.742904541015625,-2.1375603102266787,-1.4289035068273543,-0.931661841186881
1667709580055955700,0.752955810546875,-1.5441922662615775,-1.5011810997918247,-1.122061225054413
1667709580066006800,0.7630068359375,-0.9545768528282642,-1.590749142514169,-1.1819205043420196
1667709580076057600,0.7730576171875,-0.6097744043648242,-1.6758561141744255,-1.2619995648376643
1667709580086108700,0.783108642578125,-0.4060241021454334,-1.5589736558079719,-1.4137182126551866
1667709580096159500,0.793159423828125,-0.38691140539646146,-1.285649466624856,-1.3066488539032637
1667709580106209500,0.80320947265625,-0.9315525355935096,-0.9999515335589647,-0.8071274067625402
1667709580116260600,0.813260498046875,-1.8883721989125013,-0.5972396247014403,-0.2097027808830142
1667709580126311400,0.8233115234375,-3.275841287067532,-0.00888882437646389,0.23969576808661222
1667709580136362500,0.833362548828125,-4.6217035225927825,0.4729138645917177,0.28133213907182214
1667709580146413600,0.84341357421875,-5.336325371876359,0.9202586959019303,0.1868159724228084
1667709580156464600,0.853464599609375,-5.095336933630705,1.2810153770834207,0.19607874467819927
1667709580166514700,0.8635146484375,-4.087913456755876,1.4840104770213365,0.5690327902622521
1667709580176565800,0.873565673828125,-2.7524703239142894,1.6128171819373964,0.8879363889679313
1667709580186616600,0.883616455078125,-1.3626356756716966,1.7303607345610856,0.9203773538455366
1667709580196667600,0.893667724609375,-0.10250526570677757,1.9012007008254528,0.6974401205971836
1667709580206718700,0.90371875,0.8243459603279829,2.0457856973707673,0.3589244973182678
1667709580216769500,0.91376953125,1.284575115391612,2.049159849978983,0.06300313027128576
1667709580226819600,0.923819580078125,1.2685808429241179,1.9658909074008464,0.1444122703269124
1667709580236870400,0.933870361328125,1.097587731924653,1.8019155662089585,0.49529564613923427
1667709580246921500,0.94392138671875,0.7556517788082361,1.6477794819861649,0.8258546113252639
1667709580256972500,0.95397265625,0.46721126903593535,1.4957096826434135,0.9377750633701681
1667709580267023600,0.964023681640625,0.39061201348006724,1.390677236546576,0.8410776071593165
1667709580277074700,0.97407470703125,0.3753805420786142,1.3098945578262209,0.7996586783170699
1667709580287124700,0.984124755859375,0.4647299736142158,1.1687401202514767,0.7507968861229717
1667709580297175600,0.994175537109375,0.6029758302658796,0.940156990070641,0.8177703813299536
1667709580307226600,1.0042265625,0.8132534884274005,0.6859981046065687,0.8647460675165056
1667709580317277700,1.014277587890625,0.9967483536034822,0.463961327329278,0.7917980279445648
1667709580327328800,1.024328857421875,1.1453192049145697,0.3101271486625075,0.6079504038080573
1667709580337379300,1.03437939453125,1.3269289869964123,0.28459698608666656,0.47350890787541866
1667709580347429600,1.0444296875,1.5326210709333419,0.3098340109348297,0.4575564287230372
1667709580357480400,1.05448046875,1.6198264761775731,0.20605244168192147,0.35158714016750453
1667709580367531500,1.064531494140625,1.7819477139353752,0.12850304579436778,0.04513736484348774
1667709580377582600,1.07458251953125,1.576653689405322,0.19530074604302644,-0.3275184284463525
1667709580387633700,1.084633544921875,1.0686696804761886,0.19890578479766843,-0.5196139487072825
1667709580397684500,1.0946845703125,0.5334142182618379,0.13578969567120075,-0.5319508677110075
1667709580407734500,1.104734619140625,0.28173779726326464,0.06031272214353084,-0.8122448959067463
1667709580417785600,1.11478564453125,0.3320674700528383,0.04261369158476591,-1.0511030441254376
1667709580427836700,1.124836669921875,0.4358177673846483,-0.020626900704205035,-1.1152199808575212
1667709580437887700,1.1348876953125,0.703135409629345,-0.11866466560810804,-1.0898856331147253
1667709580447938600,1.1449384765625,1.0248884064167738,-0.15067600689679383,-0.9588242811396718
1667709580457989400,1.1549892578125,1.0966834765613078,-0.08745674965679645,-0.7143387945584952
1667709580468039400,1.165039306640625,1.164780276709795,0.012902151671051978,-0.4822796588301658
1667709580478090500,1.175090576171875,1.3875216951251028,0.11966507482230662,-0.444363769672811
1667709580488141600,1.1851416015625,1.5991472607642412,0.12554478051066398,-0.5565208069525659
1667709580498192600,1.195192626953125,1.6313614311486482,0.015228548792004585,-0.6743950528353452
1667709580508243500,1.205243408203125,1.3619512005388736,-0.09358195453882216,-0.6252198107779026
1667709580518294500,1.21529443359375,0.9044149378210306,-0.24738807615488767,-0.5767531553812325
1667709580528344600,1.225344482421875,0.3120604548126459,-0.4099421523720026,-0.4222486762374639
1667709580538395600,1.235395751953125,-0.4742775541603565,-0.5194456064030528,-0.22501915408894418
1667709580548446700,1.24544677734375,-1.2327023048132657,-0.48319677367508407,-0.19510580799281596
1667709580558497800,1.255497802734375,-1.7322580926150082,-0.3359963339343667,-0.2629483411192894
1667709580568548600,1.265548583984375,-1.9793746583521366,-0.19866613082289694,-0.16206015522032977
1667709580578599400,1.275599365234375,-1.982714031907916,-0.17124591671675443,0.04406009100079536
1667709580588649500,1.2856494140625,-1.8421189817816017,-0.1261477148398757,0.10351181240081786
1667709580598700500,1.295700439453125,-1.6358131498605013,-0.133825409860909,-0.02097439896762371
1667709580608751600,1.305751708984375,-1.411260882630944,-0.16622136655300854,-0.1957467362448573
1667709580618802400,1.315802490234375,-1.3527426426887512,-0.20100421838164328,-0.35934929860159753
1667709580628853500,1.325853515625,-1.6705974629938602,-0.2663745161756873,-0.3466751104675233
1667709580638904600,1.335904541015625,-2.1577625557780267,-0.27491613454967734,-0.19771277562081813
1667709580648954600,1.34595458984375,-2.4198446354568004,-0.23559885416179893,0.15275807386785745
1667709580659005700,1.356005615234375,-2.4150948105812073,-0.07981091107875109,0.6631900604709983
1667709580669056800,1.366056884765625,-2.3781962817728517,0.03930938934236765,1.00906130720973
1667709580679107600,1.376107666015625,-2.373995322951674,-0.10100713610351085,1.2276722016915678
1667709580689158700,1.38615869140625,-2.2626246137440202,-0.3584446048468351,1.2018095922909677
1667709580699209500,1.39620947265625,-2.300146827408671,-0.43981589711010455,1.0422387696683406
1667709580709260500,1.406260498046875,-2.4556729046851395,-0.2838824080765247,0.9762759128086268
1667709580719310600,1.416310546875,-2.766786434036493,-0.24257979909032582,0.9054606474816799
1667709580729361400,1.426361328125,-3.0799381912171837,-0.1227311843946576,0.981618735141307
1667709580739412500,1.43641259765625,-3.318333690360188,0.009864099149405956,1.0413688549660145
1667709580749463600,1.446463623046875,-3.2469384331881996,0.02383563361763954,1.2652099051862955
1667709580759514600,1.4565146484375,-2.688767959332466,0.1240361295133829,1.4843191045790909
1667709580769565700,1.466565673828125,-1.6766706454277038,0.04778904839605093,1.657382299850881
1667709580779615700,1.47661572265625,-0.46287587018013,0.057986325022578236,2.1062816671267153
1667709580789666600,1.48666650390625,0.45721594472229476,0.3796645030081272,2.0274957151815296
1667709580799717600,1.496717529296875,1.0280161830484866,0.707213911114633,1.9262708446741104
1667709580809768700,1.506768798828125,1.3536989205002783,0.8612398129612207,1.9267831781104205
1667709580819819300,1.5168193359375,1.281567165747285,0.9260086377307772,1.7897338377669452
1667709580829869300,1.526869384765625,1.0837982760250569,1.027461471775174,1.5899515623956917
1667709580839920400,1.53692041015625,0.8051818256527185,1.016736079621315,1.5309820715546607
1667709580849971200,1.54697119140625,0.6271878959804773,0.9074486064285039,1.5587822248890995
1667709580860022300,1.557022216796875,0.9009913931131363,0.813961344435811,1.55636610365808
1667709580870073300,1.5670732421875,1.453176947340369,0.6050532210618257,1.5521411794394253
1667709580880124400,1.57712451171875,2.1052701519966126,0.3869508606240153,1.4187626365631818
1667709580890175200,1.58717529296875,2.6500498138815165,0.1684326128616929,0.9414794708460569
1667709580900225300,1.597225341796875,3.0221406667649746,0.08019932587444782,0.6292933438271284
1667709580910276400,1.6072763671875,3.128144295981526,0.1296162677332759,0.42349721499383447
1667709580920327400,1.617327392578125,3.00789995996654,0.14498539403975008,0.09333002560436725
1667709580930378500,1.62737841796875,3.1217338444173333,0.07667232079207897,-0.26173136654496193
1667709580940429300,1.63742919921875,3.428112746462226,0.07960340580791235,-0.6278218099698424
1667709580950480100,1.647480224609375,3.5101100616693492,0.05904430964291096,-0.8395718787714839
1667709580960530200,1.6575302734375,3.4372295343756676,0.0038721652582287785,-0.765903708231449
1667709580970581200,1.667581298828125,3.445606317576766,-0.01767214255183935,-0.8647820156127214
1667709580980632300,1.67763232421875,3.4523061074763532,0.04606850821375846,-0.9167837132677435
1667709580990683400,1.687683349609375,3.3025328946381807,0.05288403344750404,-1.006362861905992
1667709581000734200,1.697734130859375,3.2210417753875253,-0.06667495065182447,-1.1720961526811122
1667709581010785300,1.707785400390625,3.3184365662127733,-0.05455635057389736,-1.3998393249064682
1667709581020835300,1.71783544921875,3.4446968015164137,0.08189356257170438,-1.4518018595948814
1667709581030886400,1.727886474609375,3.3962060345917937,0.1238423605069518,-1.6114689821988344
1667709581040937500,1.7379375,3.328403248953819,-0.03478489765524864,-1.6687369298189878
1667709581050988500,1.747988525390625,3.039326779365539,-0.09810440039932727,-1.3576970502257346
1667709581061039000,1.7580390625,2.567656192833185,-0.1527434608206153,-1.0266475250437854
1667709581071089200,1.768089111328125,2.294959195637703,-0.31857641257792707,-0.8835787782803177
1667709581081140200,1.77814013671875,2.1183868232011793,-0.3922738092124462,-0.7437126269504427
1667709581091191300,1.78819140625,1.6498685632199048,-0.4869897362172603,-0.8384937281459569
1667709581101242400,1.798242431640625,0.935802009731531,-0.7353112938299775,-0.9713514620184898
1667709581111293400,1.80829345703125,0.45277767001390457,-0.9158043468415736,-0.9707543729081749
1667709581121344300,1.81834423828125,0.21981354826986788,-1.0575263551712035,-1.101938620610535
1667709581131395300,1.828395263671875,0.1792091506808996,-1.2844906519785522,-0.9215785463288426
1667709581141445400,1.8384453125,0.15173720638751984,-1.4464286421239376,-0.7491685542687774
1667709581151496400,1.848496337890625,-0.09355448201000689,-1.432561444813013,-0.9283268515452742
1667709581161547500,1.858547607421875,-0.4123533051669597,-1.261501406057179,-1.291941552506387
1667709581171598300,1.868598388671875,-0.5931956100076436,-1.1310840510740876,-1.6093088815554975
1667709581181649200,1.878649169921875,-0.7071499059677123,-1.1310694380268453,-1.576034096202254
1667709581191700200,1.8887001953125,-0.3104267161309719,-1.2612728579983115,-1.3390318049833179
1667709581201750300,1.898750244140625,0.4656681312471628,-1.5073513128593563,-1.2215110487133263
1667709581211801300,1.90880126953125,1.0193892244786023,-1.6955793440371751,-0.821061531829834
1667709581221852400,1.918852294921875,1.1272101322501897,-1.6874942372590302,-0.02158347077667713
1667709581231903200,1.9289033203125,0.5224620316147804,-1.5760703365594149,0.24890344915390014
1667709581241954300,1.938954345703125,-0.5678372968673706,-1.5252140095472335,0.09320201531052588
1667709581252005400,1.94900537109375,-1.6234773999005556,-1.4859678946994244,0.19256489133834837
1667709581262055400,1.959055419921875,-2.5898785460352896,-1.4974366525664924,0.38818566311597824
1667709581272106500,1.9691064453125,-3.11664850397706,-1.5596949558198452,0.9155456959053874
1667709581282157300,1.9791572265625,-3.3899744467258452,-1.5245543765947223,1.5682792442917823
1667709581292208400,1.98920849609375,-3.4664667347759006,-1.4610601018056273,1.8428835364133118
1667709581302259200,1.99925927734375,-3.5124767908006906,-1.5538146656095981,2.0164827382579444
1667709581312310300,2.009310302734375,-3.471643260630965,-1.7161685430794953,2.3021979147195815
1667709581322360300,2.0193603515625,-3.458366430428624,-1.7198446012437343,2.2579411321029066
1667709581332411400,2.029411376953125,-3.7251328685313463,-1.5310107131272555,1.7469047498658299
1667709581342462200,2.039462158203125,-4.064904337090254,-1.1373122779391704,1.2364210330754517
1667709581352513300,2.04951318359375,-4.361376762148738,-0.5652164468444884,1.0453519332528114
1667709581362564400,2.059564453125,-4.28166200492084,-0.0077742872633039944,1.0614227780878542
1667709581372615400,2.069615478515625,-4.107856174588203,0.49612508270069955,1.4269947505965828
1667709581382665500,2.07966552734375,-4.020926079154014,0.71990636555776,1.6424480578303335
1667709581392716300,2.08971630859375,-3.5946564768373963,0.8007651782542466,1.3286895669281482
1667709581402767400,2.099767333984375,-2.9040894568800923,1.033565926130116,1.03886432479918
1667709581412818400,2.109818359375,-1.924346598613262,1.2810245833031833,1.0851982059508563
1667709581422869200,2.119869140625,-1.2388251716077328,1.339556267248839,1.2582485417410731
1667709581432920300,2.12992041015625,-0.7640794154137373,1.333953917197138,1.1432985127419233
1667709581442970400,2.139970458984375,-0.08447393445372581,1.3382030990742146,0.9833364988446235
1667709581453021200,2.150021240234375,0.5888005899190902,1.3165044774852692,0.7525035439103841
1667709581463072300,2.160072265625,1.1665472863823174,1.3010128938429057,0.5663046804726124
1667709581473123300,2.170123291015625,1.5680588795393704,1.3560108507044613,0.5055138194233179
1667709581483174400,2.18017431640625,1.583127269333601,1.4164004374764858,0.49387715764343737
1667709581493225200,2.19022509765625,1.5595073242932558,1.4162722810521722,0.2735290641054511
1667709581503275500,2.200275634765625,1.4300269578993319,1.3579136155858635,0.10103343958854674
1667709581513326300,2.210326416015625,1.2390887909799813,1.224359716142714,0.01177227085828781
1667709581523377400,2.22037744140625,1.2205313900262116,1.0597505340266973,-0.10847264967858791
1667709581533428500,2.230428466796875,1.2800211053490638,0.9225101280905306,-0.41586248233169315
1667709581543479300,2.240479248046875,1.3565396968841552,0.8579990774743258,-0.7834580696225166
1667709581553530000,2.250530029296875,1.4924240851014852,0.8054341929785906,-1.1549991796687245
1667709581563580200,2.260580078125,1.7105524567633865,0.7128467293698341,-1.4679188816592097
1667709581573631200,2.27063134765625,2.0239386072218415,0.5956973636955022,-1.6305585903331636
1667709581583682300,2.280682373046875,2.4232477218985555,0.48836365491896866,-1.6815625091224908
1667709581593733400,2.2907333984375,2.8417425985604523,0.4492877820715308,-1.7644848302200435
1667709581603784400,2.300784423828125,3.140758862882852,0.3686582480862736,-1.8739105428397655
1667709581613835300,2.310835205078125,3.2889579582720994,0.38653848043084144,-1.9291537066340445
1667709581623885300,2.32088525390625,3.4390438903212543,0.5114750659152865,-2.0347914251476524
1667709581633936400,2.330936279296875,3.5343028381615875,0.6800293323952704,-2.2020468109235165
1667709581643987500,2.340987548828125,3.657642217582464,0.9998615171879529,-2.4142478383630515
1667709581654038500,2.35103857421875,3.9933910064965485,1.3652125404223798,-2.8612594921961425
1667709581664089000,2.361089111328125,4.428690302965045,1.576488415841013,-3.191701991395652
1667709581674140200,2.37114013671875,4.88303215355575,1.6907967859357595,-3.536448618018627
1667709581684190200,2.381190185546875,5.38242485975027,1.8456588463455437,-3.7790158498883244
1667709581694241300,2.3912412109375,5.559754772555828,2.203750399971008,-4.079133937972784
1667709581704292400,2.401292236328125,5.26991082572639,2.795401995407045,-4.037861431863904
1667709581714343400,2.411343505859375,5.00332558940947,3.562113220629096,-3.88202789607346
1667709581724394200,2.421394287109375,5.029204127031565,5.1014638920783995,-3.5955548869818448
1667709581734445300,2.4314453125,5.875616957738996,6.004485914236307,-3.6672400670111176
1667709581744495400,2.441495361328125,6.279891001346707,4.096004701013863,-5.42483542997837
1667709581754546400,2.45154638671875,6.036494332915544,3.1411203896716233,-6.2538943903028965
1667709581764597500,2.461597412109375,6.291935074883699,3.2214982869833704,-6.246993524873257
1667709581774648300,2.4716484375,6.719923756077885,4.204854367311299,-5.51301406416893
1667709581784699100,2.48169921875,7.045225385257601,6.19642536715269,-4.931569097709655
1667709581794750200,2.491750244140625,6.82448536979258,5.884063883566856,-2.848656907993555
1667709581804800300,2.50180029296875,5.837105733036995,5.0244279986709355,-0.17965221827328204
1667709581814851300,2.511851318359375,5.267348281762003,4.592182244554162,1.7966075229287146
1667709581824902400,2.52190234375,5.4424844839155675,4.997449390852451,3.603542378604412
1667709581834953200,2.531953125,5.2167444682061666,5.6723161528527735,5.615173877438902
1667709581845004300,2.54200439453125,4.194775164106488,6.509545560151338,7.445991713005304
1667709581855055400,2.552055419921875,2.511848380893469,7.35245009047687,8.915878387606144
1667709581865105400,2.56210546875,0.6149545834816992,7.886856242385506,9.757157947078346
1667709581875156500,2.572156494140625,-0.8084352744907141,7.92220987983942,10.39811600973606
1667709581885207300,2.582207275390625,-1.5249264247775076,6.622497401070595,10.738139407229422
1667709581895258400,2.59225830078125,-1.8449089047610758,5.524850632435083,10.87237135206461
1667709581905309200,2.60230908203125,-1.7819290092349052,5.116692440870404,11.286741257750988
1667709581915360300,2.6123603515625,-1.6919816118061541,4.653391038754582,11.781011798626183
1667709581925411300,2.622411376953125,-1.5291852512657642,4.268006989055872,12.442489502221346
1667709581935461400,2.63246142578125,-1.4389830022931098,4.061701157134771,12.72991411294937
1667709581945512200,2.64251220703125,-1.585943495798111,3.3200258812308308,12.414220854592322
1667709581955563300,2.652563232421875,-1.236821430569887,1.9953812057793139,11.504211457765102
1667709581965614300,2.6626142578125,-0.31843232793211934,1.0499024361640215,9.307795638465882
1667709581975665400,2.67266552734375,0.7191348697286098,0.3280903831154108,6.673228640398383
1667709581985715500,2.682715576171875,1.7604747177958489,-0.3515174359321594,4.630450308150053
1667709581995766500,2.6927666015625,2.7562802375912665,-0.5841396123707294,2.8251190882787105
1667709582005817300,2.7028173828125,3.485929560136795,-0.18284896848797796,1.7161945543035864
1667709582015868400,2.712868408203125,3.707963707065582,0.5393021072566508,1.2303887671738862
1667709582025919500,2.72291943359375,3.117380325382948,1.2488923921138047,0.6469669476836919
1667709582035970300,2.73297021484375,1.497180339717865,1.3496908539026975,0.30314591147303577
1667709582046021000,2.743021240234375,-0.43198513041920955,1.207872983983159,0.169256788726151
1667709582056071200,2.7530712890625,-1.9799710168100892,1.2373311336576938,-0.12757073338031769
1667709582066122200,2.763122314453125,-3.029504473531246,1.2966378936290741,-0.9555839840441942
1667709582076173300,2.77317333984375,-4.002705362808704,1.0828080959439277,-1.9951807147711513
1667709582086224400,2.783224365234375,-4.647496135497093,0.607184387871623,-3.048676206991076
1667709582096275500,2.793275390625,-4.844040451860428,0.04111410067677498,-3.689347269400954
1667709582106326300,2.803326171875,-4.937069448691606,-0.38421559044122694,-3.6586262601837514
1667709582116376300,2.813376220703125,-4.910069213563204,-0.8458020053327083,-3.180879568608105
1667709582126427400,2.823427490234375,-4.793708440983295,-1.4613789584964514,-2.3420517862021923
1667709582136478500,2.833478515625,-4.66372713932991,-2.2495786696881055,-1.5755805072158575
1667709582146529500,2.843529541015625,-3.63396440487504,-2.851259783968329,-0.4851715808793902
1667709582156580000,2.853580078125,-2.3587094910144804,-3.3154794699728485,0.6001856150254606
1667709582166631200,2.863631103515625,-1.5100623253837226,-4.01690456855297,1.99521140217036
1667709582176681200,2.87368115234375,-1.161815727815777,-4.475091988655924,3.6298283279836174
1667709582186732300,2.883732177734375,-0.4795453384954482,-4.78079459887445,4.770238425807655
1667709582196783400,2.893783447265625,-2.5349159527480603,-4.738202242338657,5.29861260407567
1667709582206834400,2.90383447265625,-2.51788883010149,-4.965757783037424,5.038651754334569
1667709582216885200,2.91388525390625,-1.6934300570487975,-4.388995421436428,4.027304382014274
1667709582226936300,2.923936279296875,-1.0756956335902212,-3.4036019900619983,2.8038112195730207
1667709582236986400,2.933986328125,0.08476035017967223,-3.461782960873842,2.505155605256557
1667709582247037400,2.944037353515625,0.7511772637426852,-3.4926071382045745,2.6426003746584055
1667709582257088500,2.954088623046875,0.7871399730056524,-3.551663722807169,2.276648901312798
1667709582267139300,2.964139404296875,0.7843973962992429,-3.641920332315564,1.9411770296439528
1667709582277190100,2.974190185546875,0.7283890933513641,-3.335433878242969,2.3109800638511775
1667709582287241200,2.9842412109375,0.3500426872044802,-2.9806986493080854,2.4503859041929243
1667709582297291300,2.994291259765625,0.2274428010392934,-2.7334096496134994,2.652956056717038
1667709582307342300,3.00434228515625,-0.7331570384055376,-1.3669400948673487,3.3453988074183463
1667709582317393400,3.014393310546875,-0.26133268608357757,-0.6721399673849344,2.8805145200252533
1667709582327444200,3.0244443359375,0.770870390728116,-0.5528992554545402,2.9014950564727187
1667709582337495300,3.034495361328125,0.6597510259330273,0.48979544128775593,3.3314065224230287
1667709582347546400,3.04454638671875,0.9506775073021649,0.9659814594179391,3.135071464896202
1667709582357596400,3.054596435546875,1.426080850622058,0.7742232082873582,1.918813222144544
1667709582367647500,3.0646474609375,1.9258591951332986,0.7134528055042028,0.5820807801447808
1667709582377698300,3.0746982421875,2.0006074159950016,0.8641612533658742,4.715457326567173
1667709582387749400,3.084749267578125,1.8345003234714268,1.3099240761816502,8.201707789221405
1667709582397800200,3.09480029296875,1.8212597336262464,1.772005581113696,7.154007247015834
1667709582407851300,3.104851318359375,0.6824813286572694,2.217901090398431,5.8005894815444945
1667709582417902300,3.11490234375,0.6400690048635006,2.772868384298682,4.683292840543389
1667709582427952400,3.124952392578125,0.7008024366371333,3.482240057969093,3.815708919252455
1667709582438003200,3.135003173828125,0.9139617877148091,4.39022525549233,3.533057806536555
1667709582448054300,3.14505419921875,1.5101460581444204,5.5727469405978916,3.138963796159625
1667709582458105300,3.155105224609375,1.5647843879133463,6.477282289928198,2.263882504850626
1667709582468156400,3.165156494140625,1.448502671919018,7.202099954533576,1.1936521509289741
1667709582478207200,3.175207275390625,1.3165817805051803,7.801741087418794,-0.15961159302443265
1667709582488257500,3.185257568359375,1.8697722739912568,7.873206487217545,-1.6360636174902319
1667709582498308400,3.195308349609375,3.7496138143152,7.288024087795614,-2.777113474522531
1667709582508359400,3.205359375,4.046956007945537,6.34486177842915,-2.8225127051725982
1667709582518410200,3.21541015625,2.669838217934966,5.524480630078911,-2.2861340841472146
1667709582528461300,3.22546142578125,-0.05226444024443626,5.36648085616529,-1.2425246106475591
1667709582538512100,3.23551220703125,-0.2224661086052656,5.656487300080061,-1.4182637471303343
1667709582548562200,3.245562255859375,0.48976051610484717,5.149865227153897,-2.1711384624406693
1667709582558613200,3.25561328125,1.296587624746561,5.118663448682427,-1.9669629205465315
1667709582568664300,3.265664306640625,1.489320858389139,5.12677135181427,-2.3303327068358657
1667709582578715400,3.27571533203125,-0.9432079020738601,4.094623183527589,-1.0813653497897089
1667709582588766500,3.285766357421875,-3.494868945656717,3.794507433530688,1.9564944257631898
1667709582598817300,3.2958173828125,-4.570824106965959,3.828967337015271,1.3619769195020197
1667709582608867300,3.305867431640625,-4.683498884509503,1.8963731345385313,-0.8047394887126982
1667709582618918400,3.31591845703125,-3.0995269810453054,1.0763912146389483,0.06618789778724313
1667709582628969500,3.325969482421875,-1.8697753427311776,0.26819208699166774,0.6997405064940452
1667709582639020300,3.336020263671875,-0.7217775662571191,-1.8876830476045607,-0.004065642003715038
1667709582649071000,3.346071044921875,0.8351619533747434,-3.7252199622929094,-0.43436143109649417
1667709582659122200,3.3561220703125,1.8075909814968705,-4.859287705352902,0.6493523815155029
1667709582669173200,3.36617333984375,2.282615554632246,-5.86743891198039,0.5707612214900553
1667709582679223300,3.376223388671875,1.9627707295536994,-6.306468627148866,0.19914543877243995
1667709582689274400,3.3862744140625,2.5747794688418506,-6.5383215727806085,-0.41553982624858615
1667709582699325400,3.396325439453125,3.5349461045011874,-6.841390911886095,-1.309118605017662
1667709582709376300,3.406376220703125,3.854868670991063,-7.105436985114216,-1.9569450921401381
1667709582719427300,3.41642724609375,2.923148669876158,-6.923351402214169,-1.8479007800534366
1667709582729478400,3.426478515625,1.4722624638214707,-7.160216038528084,-1.4695464828610418
1667709582739528400,3.436528564453125,1.8933476492375134,-7.265444591718912,-2.1740257083147765
1667709582749579500,3.44657958984375,2.6514666949421164,-7.461819396734238,-3.2922251433745027
1667709582759630000,3.456630126953125,3.6309713605389,-8.696438933345675,-2.2544611810326574
1667709582769681200,3.46668115234375,3.4456308674961327,-8.727641296339035,-2.6413173491105435
1667709582779732200,3.476732177734375,2.9740102575853467,-7.612343720200657,-4.292979810009896
1667709582789783300,3.486783203125,2.4326179000511763,-6.250556185790896,-4.892981592901051
1667709582799833300,3.496833251953125,1.7894325167328118,-5.25991433236897,-2.9867215628594157
1667709582809884400,3.506884521484375,1.1259721148878334,-4.686365087595582,-1.6037135457664726
1667709582819935200,3.516935302734375,-0.3408452352702617,-3.804931212389469,-0.8131044353455305
1667709582829985500,3.526985595703125,-0.021015607760846614,-2.1966502125769853,0.25470658247470856
1667709582840036600,3.53703662109375,1.2258382642626762,-1.9963281312406063,1.462763398592174
1667709582850087700,3.547087646484375,0.5005787011086941,-1.8253952259957789,2.1574486675232647
1667709582860137700,3.5571376953125,0.3337719358831644,-0.49194414375424383,1.9915829825401306
1667709582870188800,3.567188720703125,-0.20278964049369094,1.2688058838516474,2.0175141271322965
1667709582880239600,3.577239501953125,-0.16105068591684102,2.557434074026346,1.9778467181324957
1667709582890290700,3.587290771484375,0.5627642313867807,2.1415520102113486,1.749308596137166
1667709582900341800,3.597341796875,1.1219292692378162,1.5849521466732024,1.3128291499733924
1667709582910392800,3.607392822265625,1.306477442859113,0.19138240355551242,2.9597242503404617
1667709582920443600,3.617443603515625,0.5584598121911287,-1.9025982926636933,5.465646163794398
1667709582930493700,3.62749365234375,-0.3007242372840643,-3.6721541425377127,7.742223315045237
1667709582940544500,3.63754443359375,-1.0843819211319088,-2.0614304257482288,7.635066424140334
1667709582950595600,3.647595703125,-0.41954643154144283,0.6433680464088917,5.251384404432773
1667709582960646700,3.657646728515625,-0.8031932821840048,0.6517144344717264,2.252383790236711
1667709582970697700,3.66769775390625,-1.5715610424414277,1.9730612374216316,0.05345043515861034
1667709582980748500,3.67774853515625,-1.7901997017130256,4.197873130121827,-0.6173065534353256
1667709582990798600,3.687798583984375,-1.8426430056557057,4.623680960145593,1.111028812777996
1667709583000849700,3.697849609375,-4.1058951036483045,4.906193248912691,0.48762335794568057
1667709583010900700,3.707900634765625,-2.505176648044586,4.826012043216824,1.4491063369005919
1667709583020951800,3.717951904296875,-0.6936193932652474,3.1077906592607496,4.351780081763863
1667709583031003000,3.7280029296875,0.3613376959398389,1.9073726674586533,4.897483288234472
1667709583041053700,3.7380537109375,0.43582419712543485,1.3269260643869638,5.321632245135307
1667709583051103500,3.748103515625,1.0986319802805782,0.9292617943078278,5.156595996713638
1667709583061154600,3.758154541015625,1.975684571662545,0.8960726414114236,4.810319091783463
1667709583071205600,3.76820556640625,1.298055359211564,0.6938982102066278,4.297811175689101
1667709583081256700,3.778256591796875,0.2869976174876094,0.5047288065254688,3.913824717828631
1667709583091307500,3.7883076171875,0.04277648093104362,0.2815221086859703,3.444658807593584
1667709583101358600,3.798358642578125,-0.20509704065322876,-0.34365152486264705,2.1932009489059445
1667709583111408600,3.80840869140625,-0.6095522860467434,-0.5094277779966593,0.48418227758109567
1667709583121459700,3.818459716796875,-1.0807602235034108,-0.023577859464287757,-1.239206864401698
1667709583131510800,3.8285107421875,-0.678254066351056,0.05024082546234131,-2.9498247876167296
1667709583141561900,3.838561767578125,0.7004035004474223,-0.21578443888425825,-4.440883429583907
1667709583151612700,3.84861279296875,1.5152163471460343,0.48982642094790935,-5.273876222226023
1667709583161663700,3.858663818359375,1.187115442636609,1.4318839839428663,-4.747856205868721
1667709583171714800,3.86871484375,0.4989265499874949,2.556976977908611,-4.539138636630773
1667709583181764600,3.8787646484375,-0.8036269974261522,3.6243922744095323,-4.2656437670558685
1667709583191815700,3.888815673828125,-1.5089121324352919,4.783136778086424,-3.4272838944226502
1667709583201866800,3.89886669921875,-1.0323509973824023,6.497335482397675,-3.229413297891617
1667709583211917600,3.90891748046875,-1.7502227883726358,7.078411031022667,-2.2281536043435333
1667709583221968600,3.91896875,-1.733340042632818,6.620338177210092,-1.7519518041223288
1667709583232019700,3.929019775390625,-0.9237801480263471,5.289610966974497,-1.7475211281985044
1667709583242069800,3.93906982421875,0.07947342275269328,2.5301953539669513,-2.1668957103043796
1667709583252120800,3.949120849609375,0.8530372172832489,0.506923686221242,-1.8863170199483632
1667709583262171600,3.959171630859375,1.3410562965482473,0.007235211950540542,-0.6631687254220247
1667709583272222700,3.96922265625,1.0373176798790693,-0.5768956325918436,0.7880524116754531
1667709583282273800,3.979273681640625,0.840205792760849,-1.857913347762823,1.1787754843145608
1667709583292324900,3.989324951171875,0.9243003725081682,-2.9919419278562067,1.852501259586215
1667709583302374700,3.999374755859375,1.3647159890770912,-3.7569308593302964,2.3538310713231563
1667709583312425700,4.00942578125,1.436618026727438,-4.015743123558163,1.9324995099306106
1667709583322476500,4.0194765625,0.8590671450972557,-4.178580985152721,0.9237731337636709
1667709583332527600,4.029527587890625,0.24531682283878326,-3.91763112437427,-0.6222627145379781
1667709583342578700,4.03957861328125,-0.2683645209491253,-3.2146447678267953,-2.5700655920624733
1667709583352629800,4.049629638671875,0.5668155526041985,-3.408035004073381,-3.7853123196840284
1667709583362679800,4.0596796875,0.4581505586912855,-3.936947819262743,-3.6592993371397253
1667709583372730600,4.069730712890625,-0.19847795130703597,-4.151564967933297,-3.5827456742912527
1667709583382781700,4.07978173828125,-0.9814975929796695,-4.207594313669205,-3.971878847390413
1667709583392832800,4.089832763671875,-1.623051283442974,-4.050936017492413,-4.042784859740734
1667709583402883800,4.0998837890625,-2.1589374447762966,-3.8266432779818773,-3.0919395946562287
1667709583412934700,4.1099345703125,-2.23326992444396,-3.4502450832933187,-1.1267103660345077
1667709583422984700,4.119984619140625,-1.5561270342051983,-3.254273598381877,0.868281548166275
1667709583433035500,4.130035400390625,-0.15591419981122015,-3.458140804979205,1.863676149073243
1667709583443086600,4.140086669921875,1.7344880436241625,-3.280595788118243,2.240948203986883
1667709583453137700,4.1501376953125,4.281601799166202,-2.4051149760976434,2.409633038043976
1667709583463188700,4.160188720703125,7.393680511009693,-1.804195786100626,1.7508125709593294
1667709583473239600,4.170239501953125,10.111865118962525,-2.066767402862012,1.1960276478886605
1667709583483289600,4.18028955078125,11.189974827957153,-1.6329051534593104,2.4464994181483983
1667709583493340700,4.190340576171875,10.173099632126092,-0.7096312013894319,4.623288745957613
1667709583503391700,4.200391845703125,8.25526226927638,-0.7677402760088443,6.44639264614582
1667709583513442800,4.21044287109375,5.903139170914888,0.023544833977520465,8.115956674438715
1667709583523494000,4.220493896484375,4.266429948997497,1.5920806833788752,9.447394663292169
1667709583533544700,4.230544677734375,3.8535669407427307,1.370798231600225,8.587356042814255
1667709583543594500,4.240594482421875,2.7595325173854826,0.6182962951250374,7.618287723296881
1667709583553645600,4.2506455078125,0.9855191035807133,0.4662669739231467,7.438041046261787
1667709583563696600,4.260696533203125,-1.7713035703241824,0.45198914998471734,6.208275963944196
1667709583573747700,4.270747802734375,-3.8944986705899236,-0.16136019025743006,4.421347538986802
1667709583583798500,4.280798583984375,-4.4083436805069445,-0.4630088489100337,3.2242496315181253
1667709583593849600,4.290849609375,-4.5637931854158635,-0.48196927770674225,2.722694194331765
1667709583603900700,4.300900634765625,-5.038461784720421,-0.39657881292998787,2.9104496395617723
1667709583613950700,4.31095068359375,-4.817848902766406,0.06359905033782125,3.273692000079155
1667709583624001800,4.321001708984375,-3.325520386993885,0.35333383770436044,2.2628408868432044
1667709583634052900,4.331052978515625,-1.6048437188401818,0.804814307514578,2.430477673152089
1667709583644103700,4.341103759765625,-0.41569589359313247,0.7871257983498274,3.4325650496959685
1667709583654154800,4.35115478515625,-0.3478255956768989,1.3966896287038921,4.088163047602772
1667709583664204500,4.36120458984375,-0.8813640248402953,2.365772853529453,4.399321585139632
1667709583674255600,4.371255615234375,-1.2856143953114747,3.5094106812283394,3.882826352974772
1667709583684305700,4.3813056640625,-1.4151660733759401,4.672312889106571,3.2862294100910425
1667709583694356700,4.391356689453125,-1.0083113656252622,5.3674657755494115,2.5857290251404046
1667709583704407800,4.40140771484375,0.1021679965764284,6.537911238414049,2.109938728329539
1667709583714458600,4.411458740234375,1.2996598717987538,7.442742940342426,1.2330547715127467
1667709583724509700,4.421509765625,2.2496032196074722,7.6909993237644425,-0.3598831132173538
1667709583734560800,4.431560791015625,2.867929763740301,7.700641596856713,-1.5449053829669952
1667709583744611800,4.44161181640625,3.1235674895852803,7.4799074266105885,-2.5426287190824746
1667709583754662000,4.451661865234375,3.1465918068200347,7.150179213160276,-2.446979310619831
1667709583764712700,4.461712646484375,3.309184753742814,6.696226654148101,-2.599655843684077
1667709583774763500,4.471763427734375,3.6936528576403855,6.7905883608877655,-2.672005040580034
1667709583784814600,4.481814697265625,3.9663369953542946,6.165071612989902,-2.1356097606807944
1667709583794865700,4.49186572265625,3.8259395136266945,5.185229386001825,-1.35699679300189
1667709583804916700,4.501916748046875,3.7372079217284915,4.409040138338506,-0.8560001587420701
1667709583814966800,4.511966796875,3.404943467798829,3.8764693851634857,-0.36825229763388634
1667709583825018400,4.522018310546875,2.8885996268033978,3.200156223747134,-0.008062894946336746
1667709583835069400,4.5320693359375,2.366411151432991,2.4890011737912894,0.13950316323637962
1667709583845120500,4.54212060546875,1.948752141073346,1.9475471491977572,-0.181362529322505
1667709583855171300,4.55217138671875,1.6033002887904644,1.2684978408157825,-0.5233908368974923
1667709583865222100,4.56222216796875,1.8460025452166795,0.5518655284926295,-0.7712596823066472
1667709583875272200,4.572272216796875,2.6565467746853826,0.139386843380332,-1.0460288096010684
1667709583885323300,4.5823232421875,3.122232441589236,-0.05338759905546903,-1.6099147384941577
1667709583895374300,4.592374267578125,3.1359377263367176,0.02442687750905752,-2.6052386122524736
1667709583905425400,4.60242529296875,3.20859321270287,-0.14623466344848274,-2.7467536998331545
1667709583915476200,4.612476318359375,3.4008208349108693,-0.1491392988488078,-1.77824593680799
1667709583925527300,4.62252734375,3.0637054338186975,-0.0336079628303647,-1.1041834769278764
1667709583935577300,4.632577392578125,2.6343653380155563,0.07658259668201207,0.18273615576326846
1667709583945628400,4.64262841796875,1.8945529333740472,0.15170169668272138,0.7903472446143627
1667709583955679500,4.652679443359375,0.9160638745605945,-0.04012815837934613,0.05873100591003894
1667709583965730300,4.662730224609375,0.005964461362361908,-0.34736601534113287,-1.2939701357245446
1667709583975781000,4.672781005859375,-0.563683099797368,-0.4185806552492082,-2.305173131138086
1667709583985832200,4.682832275390625,-0.5582032070815562,-0.29811361639425155,-2.824212202566862
1667709583995882200,4.69288232421875,-0.06336158832013607,-0.16988500362709164,-2.6110738942772147
1667709584005933300,4.702933349609375,0.5892109242856503,0.06185790575891733,-2.1796499779373404
1667709584015984400,4.712984375,0.7920780139297247,0.2099573401659727,-1.9271411977678536
1667709584026035200,4.72303515625,0.37672026624977584,0.07230930327698588,-1.5691674253031611
1667709584036086300,4.733086181640625,-0.25016718547940253,-0.29686054759323593,-0.9941703198090195
1667709584046137300,4.743137451171875,-1.10906306566298,-0.46635494446754455,-0.25955665285438295
1667709584056188400,4.7531884765625,-1.6498714858293533,-0.5369136046849191,-0.17590514069944618
1667709584066238500,4.763238525390625,-1.6589350822508333,-0.8152847019940614,-0.2234288161575794
1667709584076289500,4.77328955078125,-1.6638731231749058,-0.9260141906887293,-0.05014700969904661
1667709584086340400,4.78334033203125,-1.8529642009228466,-0.99840284281224,0.11907441545277833
1667709584096391200,4.79339111328125,-1.9577029247701168,-1.0784373335137962,0.24292612830996513
1667709584106442200,4.803442138671875,-2.451642041733861,-0.9073371088780462,0.13486878143399952
1667709584116493300,4.813493408203125,-3.3638375504285096,-0.746078771559894,0.052263855722546576
1667709584126543400,4.82354345703125,-4.3120331777870655,-0.6755071057304739,0.1582300755381584
1667709584136594200,4.83359423828125,-4.622050144073367,-0.7832152007773518,0.0525873885884881
1667709584146645200,4.843645263671875,-4.442344734308123,-0.9361053765922784,0.44494536895304915
1667709584156696300,4.8536962890625,-4.002109150481224,-1.0143231732606888,0.7536158890664577
1667709584166747400,4.863747314453125,-3.4272914932072163,-1.1660253083348273,0.8181979590922593
1667709584176798500,4.873798583984375,-2.838529481732845,-1.3152818038225174,0.7514248087629676
1667709584186848500,4.8838486328125,-2.517998720216751,-1.0899810563132166,0.784388043949008
1667709584196899300,4.8938994140625,-2.673953836560249,-0.7669298364087939,1.1919283958762883
1667709584206950400,4.903950439453125,-2.7708687349140644,-0.5566504246816039,1.6191951925367116
1667709584217001500,4.91400146484375,-2.6153286291122435,-0.4361141199827194,1.803777560688555
1667709584227052300,4.92405224609375,-2.084364726611972,-0.1057452705413103,1.5923863883271812
1667709584237103000,4.93410302734375,-1.6561720472782848,0.5001230662956834,1.1557026517629623
1667709584247153400,4.9441533203125,-1.390117556837201,1.0492238062500954,0.8963950052335857
1667709584257204200,4.954204345703125,-1.1201239733815191,1.408547532019019,0.6926540553644299
1667709584267255300,4.96425537109375,-0.6909037045657634,1.6115391248255968,0.5662836376845837
1667709584277306400,4.974306396484375,0.057709261646866794,1.8449808009535074,0.6660270374625921
1667709584287357400,4.984357421875,0.5693576383024453,2.136750162887573,1.0954665019869805
1667709584297408300,4.994408203125,0.952930254665017,2.222592755346,1.4746440982609987
1667709584307459300,5.004459228515625,1.4401321723282337,2.24799373858422,1.9912644181102512
1667709584317509400,5.01450927734375,1.6991215466886758,2.19125215292573,2.7451521098554132
1667709584327560400,5.024560546875,1.7676012086749076,1.8871163536325095,3.280286576038599
1667709584337611500,5.034611572265625,2.263994733053446,1.641078230781853,3.281912715935707
1667709584347662300,5.044662353515625,2.799679818856716,1.6211951341822743,3.009650895287096
1667709584357713200,5.054713134765625,3.1346412567853927,1.6191066374704242,2.3395266516387463
1667709584367764200,5.06476416015625,3.1396786664307115,1.6695651973366736,1.6233713091775774
1667709584377814300,5.074814208984375,3.2336995969086884,1.8172776782527564,1.1320002891361713
1667709584387865300,5.084865234375,2.895270775130391,2.0750977165728806,0.4820432197257876
1667709584397916400,5.09491650390625,2.5468250017285348,1.5729770467191935,0.015445114152133463
1667709584407967200,5.10496728515625,2.927302574685216,1.0652154483690857,-0.40222646342813967
1667709584418018300,5.115018310546875,3.284902545401454,0.5480269732430577,-1.0187789836257695
1667709584428069400,5.1250693359375,3.2541187000811096,0.17036358092427253,-1.2080898416042327
1667709584438120400,5.135120361328125,3.6648540486574173,0.4206494243472814,-1.4437445176064967
1667709584448170500,5.14517041015625,4.475764188829064,0.37338176947683094,-1.837547436082363
1667709584458221300,5.15522119140625,4.947370477953553,0.059008361546695226,-2.0330024959042667
1667709584468272000,5.165272216796875,4.855857730904221,0.11171733068823814,-2.0906559357106684
1667709584478323200,5.1753232421875,4.895560795739293,0.11234189232736826,-2.275229243773222
1667709584488374300,5.185374267578125,4.802977789109945,0.23076573491692542,-2.237132445091009
1667709584498425300,5.19542529296875,5.039298235544562,0.31821430126726624,-2.2135396803185343
1667709584508475400,5.205475341796875,5.821898227033019,0.356456645900011,-2.4759943927019834
1667709584518526200,5.215526123046875,6.4404918976694345,0.3648594403252005,-3.05249255040884
1667709584528577300,5.225577392578125,6.900985841149091,0.5069640182316303,-3.669543083256483
1667709584538628400,5.23562841796875,6.9846332616508,0.5713757001265883,-4.119745349824428
1667709584548679400,5.245679443359375,7.081584400361776,0.4916092127114534,-4.499828662766516
1667709584558730200,5.255730224609375,7.428755331522226,0.5329112371757626,-4.826731005141139
1667709584568781300,5.26578125,7.560749726563691,0.6374705128028988,-5.390415273982286
1667709584578831400,5.275831298828125,7.304531570482253,1.06871381187886,-5.7737698636800046
1667709584588882200,5.285882080078125,6.644912061974406,1.4782149424850939,-6.183406895625591
1667709584598933200,5.295933349609375,6.076752693545818,1.6149534633137286,-6.724585318148136
1667709584608984300,5.305984375,6.277714826351404,1.7084474473081528,-7.177356558421254
1667709584619035100,5.31603515625,6.604703385704755,2.0926815963193772,-7.2121724357366555
1667709584629086200,5.326086181640625,7.0346619056671855,2.5889272366598246,-7.030756714922189
1667709584639136300,5.33613623046875,7.6759958158999675,2.7566256900280712,-7.072235557258129
1667709584649187300,5.346187255859375,8.520238901352881,3.317825156316161,-6.849712165507674
1667709584659238400,5.35623828125,8.650947932758926,4.91009434800446,-6.427255399477481
1667709584669289500,5.36628955078125,8.78352509612441,5.623330880409479,-6.4898956877857445
1667709584679340300,5.37634033203125,8.539529292756319,5.94285977140665,-5.611483790749311
1667709584689391400,5.386391357421875,7.483713248634338,6.7464400070816275,-4.416847889479994
1667709584699442400,5.3964423828125,6.134968735671043,7.890650373971462,-2.28588157069087
1667709584709492200,5.4064921875,3.5770997773587703,9.029098524072765,1.4881810407042502
1667709584719543300,5.416543212890625,0.5258072503894567,10.124901126146316,5.5277697347521775
1667709584729594000,5.426593994140625,-2.4837433993935583,11.302540884429217,9.107816086956857
1667709584739645200,5.436645263671875,-5.7300277525871985,11.788078668272494,11.798293772816658
1667709584749696300,5.4466962890625,-7.83440533965826,10.717235735410451,12.368546314132212
1667709584759747300,5.456747314453125,-7.707218052637576,9.067954032167792,10.48273373657465
1667709584769798400,5.46679833984375,-6.7564592967927455,7.730159952285885,7.2989014556407925
1667709584779848400,5.476848388671875,-5.761484967124462,6.992931718918681,4.8943514199495315
1667709584789899300,5.486899169921875,-3.5320763942837714,8.430636956360935,4.276031890079379
1667709584799950300,5.496950439453125,-1.3468039002895353,11.886139229530094,5.2727662151575085
1667709584810001400,5.50700146484375,-0.10599266943112015,15.81566128270626,7.401808872407674
1667709584820052500,5.517052490234375,0.17003975579738617,17.5328416331768,8.35420078241229
1667709584830103300,5.527103271484375,0.11297156853303313,16.284572925919292,8.728297129899262
1667709584840153300,5.5371533203125,0.40845454416275023,14.851216531336307,10.30837436401248
1667709584850204400,5.547204345703125,0.5965840468695387,13.903498458361625,12.667480160868168
1667709584860255500,5.55725537109375,0.6424573613047599,13.030968605101108,14.993859746164082
1667709584870306600,5.567306640625,0.7797972820926458,11.584662712574005,15.748011057281493
1667709584880357400,5.577357421875,1.8590080111317335,8.74037159857452,15.07659648156166
1667709584890408400,5.587408447265625,4.509240341973305,5.033250187551975,14.423152446818351
1667709584900459500,5.59745947265625,7.497087109470367,1.8700714030683039,14.0169366214931
1667709584910509300,5.60750927734375,10.517764133423567,0.5858294651538133,11.724947966098785
1667709584920560400,5.617560302734375,12.240363001811504,0.6543254937529563,7.9466955017983905
1667709584930611500,5.627611572265625,11.118504167461394,0.7947644765347242,5.33427077743411
1667709584940662300,5.637662353515625,8.559820970156789,0.8239075689107179,2.7910452615022656
1667709584950713300,5.64771337890625,5.884883383256197,1.0203829116910696,0.2914735938578844
1667709584960764400,5.657764404296875,3.6838153542369603,1.2551198883265255,-1.4577452781692146
1667709584970815500,5.6678154296875,1.555206119967997,1.7328443680703638,-1.6370526285275815
1667709584980865500,5.677865478515625,-0.7579083255633712,2.1038994481652975,-0.341508667615056
1667709584990916600,5.68791650390625,-2.7396067506879564,1.8987164827942846,1.7390514060169457
1667709585000967400,5.697967529296875,-3.657366907772422,1.1076818404376507,3.080679949495196
1667709585011018500,5.7080185546875,-2.990681114140153,-0.10795359424054622,3.839795605021715
1667709585021069600,5.718069580078125,0.08591536543369292,-1.1588543937921523,5.059813200306892
1667709585031120600,5.72812060546875,3.2500001588463783,-2.2556945222198963,6.299423969334364
1667709585041170400,5.73817041015625,4.7335114541739225,-3.2269746725678443,6.564825548824667
1667709585051221200,5.74822119140625,3.374884721882641,-3.6472675385624167,6.578959288117289
1667709585061272300,5.758272216796875,-0.24928455742597577,-3.4140485652744768,6.30165158225596
1667709585071323400,5.768323486328125,1.3174006956726312,-2.660738965678215,2.7467221356511113
1667709585081374500,5.77837451171875,0.7103884494975209,-1.0331061996638775,3.564412145221233
1667709585091425500,5.788425537109375,-4.547565104192495,-0.7754290769457817,4.201329115794599
1667709585101476400,5.798476318359375,-1.7099302332118154,-1.2216221078723668,-1.5894953430607914
1667709585111526400,5.8085263671875,3.444234736962616,-2.1723370245754716,-5.882016887909174
1667709585121577500,5.818577392578125,2.8109380027130246,-3.053011021324992,-5.859898579603433
1667709585131628500,5.828628662109375,3.70649421903491,-4.054058533427119,-6.567707826262712
1667709585141679600,5.8386796875,4.9894636527955525,-4.91369441832304,-4.507064751499891
1667709585151730400,5.84873046875,4.651830657570064,-5.773931776243448,0.18679010732918977
1667709585161781500,5.858781494140625,3.8462618784263727,-5.679456672257185,1.6039099451214074
1667709585171831300,5.868831298828125,-0.6911988881200551,-4.910715694773197,1.1974766776531933
1667709585181882400,5.87888232421875,-3.075083736923337,-5.818917165395617,-0.24691110629290342
1667709585191933400,5.888933349609375,1.222789398086071,-7.216520109552144,-2.091964095699787
1667709585201984500,5.898984619140625,3.994878614705801,-6.6874383675366635,-2.0946692630052564
1667709585212035300,5.909035400390625,1.866658087493479,-5.736144774162769,-1.9269047586634753
1667709585222086400,5.91908642578125,0.5003156662583351,-5.158218629479408,-2.3099995283812285
1667709585232137500,5.929137451171875,1.522687998200953,-4.546104968512058,-2.0311717733457684
1667709585242187500,5.9391875,1.7995163961127398,-4.278143767666816,-1.7687804815873502
1667709585252238600,5.949238525390625,1.3223127253726124,-4.091181518641114,-0.7525549818366766
1667709585262289400,5.959289306640625,0.9856476983964443,-3.757811733818054,1.103650685225427
1667709585272340500,5.969340576171875,0.9379273313224316,-3.3982711504280565,2.6663945072218773
1667709585282391600,5.9793916015625,1.0918792911499737,-3.3716403331339357,4.325566028577089
1667709585292442600,5.989442626953125,0.8749211323112249,-2.9499960525304076,5.4018648887574665
1667709585302493400,5.999493408203125,0.21085545804947614,-0.07040858422219753,4.287096012668312
1667709585312543500,6.00954345703125,-1.6128934620440005,3.8056671254485845,3.655010115513205
1667709585322594300,6.01959423828125,-3.5965704937651752,1.660849391439557,8.572019941994547
1667709585332645400,6.029645263671875,-2.132977658611536,2.6694208693057297,7.142875612148642
1667709585342696400,6.039696533203125,-1.7534093094542622,7.545800579234958,3.283482741731405
1667709585352747500,6.04974755859375,-2.0927961626097558,8.487152624309063,4.0244875710278745
1667709585362798300,6.05979833984375,-1.0758744972884655,6.298416253596544,3.9495173779785633
1667709585372848400,6.069848388671875,-0.1613105058968067,3.615103052538633,3.188007520791888
1667709585382899500,6.0798994140625,0.14904095304086803,0.7901128513365984,2.1336101112961767
1667709585392950500,6.089950439453125,0.359583399618417,-1.492558525136113,0.5829957030326127
1667709585403001600,6.100001708984375,0.2018745714753866,-2.7057676094502208,-0.8156552888721227
1667709585413052700,6.110052734375,-0.0031868133425712584,-2.420923078343272,-1.6747037292689084
1667709585423103200,6.120103271484375,-0.5735632732987404,-1.6551894659817217,-1.662486637252569
1667709585433154300,6.130154296875,-0.8569657889038323,0.016212883654236794,-1.8655214846789836
1667709585443204400,6.140204345703125,-1.1116636035501957,2.84366801366508,-1.7386486704349517
1667709585453255400,6.15025537109375,-0.6409679995298385,3.9231478419691324,-1.97765207234323
1667709585463306500,6.160306396484375,1.1178431689679622,5.7466053779006,-2.574258367577195
1667709585473357300,6.170357421875,1.9108418048739433,5.700697613206505,-1.6735358545333145
1667709585483408400,6.180408447265625,0.6048293491780757,2.7999124585688113,0.9950871423929929
1667709585493459500,6.19045947265625,0.9135165281653403,3.0922382853418586,2.5604654045462607
1667709585503510500,6.200510498046875,1.4739584540843962,2.8660885197877883,2.9296792406886816
1667709585513560600,6.210560546875,0.9487865789890289,2.501381347414851,1.3549053736805916
1667709585523611600,6.220611572265625,1.8681598703585565,2.560660634857416,0.7023626716911793
1667709585533662500,6.230662353515625,2.136252004107088,1.1195353598386049,-0.64256900498569
1667709585543713300,6.24071337890625,1.9690633999571203,-1.2341828987598418,-1.2637795801222325
1667709585553764400,6.250764404296875,-0.6506193327113986,-3.4161446607708927,1.1131669938504696
1667709585563815400,6.2608154296875,-4.385198951762915,-1.1559925746202468,0.7962322109997272
1667709585573865500,6.270865478515625,-4.349527918922901,2.893029133683443,0.7672101146548986
1667709585583916500,6.28091650390625,-2.452728667926788,4.925726216900348,0.9344815747827291
1667709585593967400,6.29096728515625,-2.579698220543563,3.2861282878041265,0.14678104528486727
1667709585604018400,6.301018310546875,-3.8368157124280926,0.8346575109839439,-1.0488099647521971
1667709585614069500,6.311069580078125,-3.5160350678041574,-1.0150023876965046,-3.1951684984624382
1667709585624120600,6.32112060546875,-2.505441728721559,-2.010273069962859,-5.20840217179656
1667709585634170600,6.331170654296875,-1.6723697333633898,-2.047485487025976,-5.756023194587231
1667709585644221400,6.341221435546875,-1.3298881290629505,-2.5272370886832474,-4.9953760917097325
1667709585654272500,6.3512724609375,-1.4642670811533927,-3.333222631934285,-3.5310768618524073
1667709585664323300,6.3613232421875,-1.6088570461347698,-3.84639748750478,-1.212466156992316
1667709585674374400,6.37137451171875,-1.9535335301309822,-3.9355999117851255,0.6092500882297754
1667709585684425500,6.381425537109375,-2.3661630218908187,-3.908103709833324,1.1487357353597878
1667709585694476300,6.391476318359375,-2.069901609234512,-3.5586265475571155,0.7007078902214765
1667709585704526300,6.4015263671875,-2.226530387055874,-3.247852333162725,-0.35383681879043577
1667709585714577400,6.411577392578125,-2.382602407777309,-3.130632605665922,-1.7957944529801606
1667709585724628500,6.42162841796875,-2.7410595798447726,-3.3546354223191734,-3.1687767506211992
1667709585734679600,6.431679443359375,-3.5697920846939084,-3.676363284665346,-4.629856433910131
1667709585744730400,6.44173046875,-4.677250637769699,-3.5521775175482033,-5.947557573834061
1667709585754781400,6.451781494140625,-4.877351477570832,-3.339388168826699,-6.468458347481489
1667709585764832500,6.46183251953125,-4.477486190316081,-2.8221839116096494,-7.022590944123268
1667709585774882600,6.471882568359375,-4.248398033222556,-2.5140327391952275,-7.147492166033387
1667709585784933400,6.481933349609375,-3.3468922608464955,-1.7784113565027713,-6.646266399192809
1667709585794984400,6.491984375,-1.1235659305289387,-0.7723889785975218,-6.096538174989819
1667709585805035300,6.50203515625,4.214109686912596,1.044619527325034,-4.3543046318054195
1667709585815086300,6.51208642578125,22.27687974206209,5.85969867311716,3.2007460063338278
1667709585825137200,6.52213720703125,26.454488082790373,9.36772140711844,9.185743960767985
1667709585835187000,6.53218701171875,17.92266863375902,8.167641268968582,8.057280029064417
1667709585845238000,6.542238037109375,11.704562180674076,7.099169156891107,7.859025401651859
1667709585855289000,6.5522890625,5.708008228480815,6.050379650405049,6.148251411092281
1667709585865340000,6.56233984375,0.8395192718014121,2.31137666195333,1.0146318008184432
1667709585875391000,6.572390869140625,-3.4741526131033895,0.860993144723773,-0.5911667345285415
1667709585885442000,6.582442138671875,-5.108416195434332,1.4804875635921955,-0.39913375810980795
1667709585895493000,6.5924931640625,-6.877203399023413,2.064234961774945,-0.8361912964224815
1667709585905543200,6.602543212890625,-7.0212184867262835,1.9705548075586556,-1.8459189585864544
1667709585915594000,6.612593994140625,-4.969266667941213,1.3326514562964438,-1.964644122210145
1667709585925645000,6.62264501953125,-1.4869056139409542,0.6328291167378425,-1.2157307117462157
1667709585935696100,6.632696044921875,1.3879852209836243,0.14047288505136965,-0.7945137166440487
1667709585945747200,6.642747314453125,3.3967321042925116,0.5267904162079096,-1.5361509986251591
1667709585955798300,6.65279833984375,2.4643396107435227,1.895961631128192,-2.4617250443309544
1667709585965848000,6.66284814453125,-0.37042555001974103,3.218209766831994,-3.5646798562467095
1667709585975899000,6.67289892578125,-3.1855729871213434,3.598234335324168,-4.850778820204734
1667709585985950000,6.682949951171875,-6.416782520779967,2.259251337918639,-5.050251591235399
1667709585996001000,6.6930009765625,-8.169821535617112,0.8856459399431943,-3.742708857232332
1667709586006052000,6.703052001953125,-7.950057671707868,-0.6811310830920935,-3.0965760222852228
1667709586016103000,6.71310302734375,-7.318456050938368,-1.812757862740755,-2.7511215396538375
1667709586026154000,6.723154052734375,-6.558848227980732,-2.8218858054459095,-2.117761384779215
1667709586036204000,6.7332041015625,-5.836093341124058,-3.2957144467949866,-1.4022329420447348
1667709586046255000,6.743255126953125,-5.523812521559,-3.529290562957525,-0.12132014855295419
1667709586056306200,6.75330615234375,-5.665598827296495,-3.522849131733179,1.0296955144375561
1667709586066357200,6.763357177734375,-5.3575955389201635,-3.0386101555287834,1.3589955656036734
1667709586076408000,6.773407958984375,-3.984675200599432,-2.150555400878191,1.5831005274571477
1667709586086459100,6.783459228515625,-3.919289412975311,-2.1572493455588817,2.410846505486965
1667709586096510200,6.79351025390625,-5.364812046170234,-2.862548655223846,2.5543846233278513
1667709586106560000,6.80356005859375,-7.074162141406536,-2.874891419446468,2.4766671773970126
1667709586116611000,6.813611083984375,-7.606586764109134,-2.935983309268951,2.2662141626685854
1667709586126662000,6.823661865234375,-6.853847657877206,-2.5270278298467397,2.272838549244404
1667709586136713000,6.833712890625,-4.460706320428848,-1.5503800149857998,2.0452730716735124
1667709586146764000,6.843763916015625,-1.821582974231243,0.495030419331789,1.6598846380606294
1667709586156815000,6.853815185546875,1.189065992182493,4.464593975517153,-0.015397219889797269
1667709586166865200,6.863865234375,2.246233450913429,14.162309553545713,-3.5313109628692265
1667709586176916200,6.873916259765625,1.2117694068998097,21.21229470055103,-5.304799183756113
1667709586186967000,6.883967041015625,0.38658531524725254,13.3239777379632,-1.3663915210738777
1667709586197018000,6.89401806640625,1.4617238264113663,-0.030080665487051007,4.529585503126681
1667709586207069200,6.904069091796875,2.592360425978899,-4.3677188246518375,4.950287826704979
1667709586217120300,6.914120361328125,2.8849077865481374,-3.8306092590034004,3.7203424193844197
1667709586227171000,6.924171142578125,2.8322178143680095,-1.8964917924821376,1.7460569008648394
1667709586237221000,6.93422119140625,2.448859133017063,-0.2843932802081108,-1.0713847846537827
1667709586247272000,6.94427197265625,2.2523966497182846,1.028211413359642,-3.175745128329098
1667709586257323000,6.954322998046875,2.3328864829719067,1.163713524261117,-3.550210601389408
1667709586267374000,6.9643740234375,2.4909628292530774,-0.4504962810784578,-2.4542335195317864
1667709586277425200,6.974425048828125,3.231806038247049,-2.538107442265749,-0.9498431023046374
1667709586287476000,6.98447607421875,4.547715910840034,-4.2178035729944705,-0.9808891056925058
1667709586297527000,6.994527099609375,5.426434681868553,-4.139859917092323,-1.6583920614153145
1667709586307577000,7.0045771484375,4.61215944917798,-2.501797527000308,-1.459174726450443
1667709586317628200,7.014628173828125,2.757743295881152,0.08339256895780563,0.4088748154014349
1667709586327679200,7.02467919921875,1.0754735152721404,1.8002134384661912,2.840510426416993
1667709586337730000,7.03472998046875,0.5475751378223299,3.397018520018458,4.184607698096334
1667709586347781000,7.044781005859375,0.9713415251463651,4.751505960547924,4.627352342134714
1667709586357832000,7.05483203125,1.4512141228348017,4.7299598991721865,4.429353150787949
1667709586367882000,7.064882080078125,2.0624676598414777,4.278821813058853,3.776655258236825
1667709586377933000,7.07493310546875,2.445186874245107,4.015555492031574,2.78354964504987
1667709586387984100,7.084984130859375,3.0741259978070854,4.004076651161909,1.1892159220471978
1667709586398035000,7.095034912109375,3.884572319859266,4.006598278594017,-0.8936860385358333
1667709586408086000,7.1050859375,4.88063707511276,3.406578960046172,-2.6333403788819907
1667709586418137000,7.11513720703125,5.519073218077421,2.6185534363776446,-3.2163603395730256
1667709586428188200,7.125188232421875,5.370466710931062,2.9743291142761707,-2.3484967245578763
1667709586438238200,7.13523828125,4.702791906261444,4.240149844837188,0.4763999531418085
1667709586448289300,7.145289306640625,4.396351629418135,6.186769065535068,3.363530676436424
1667709586458340000,7.155340087890625,4.705469601038098,8.524356273543834,3.400508407960832
1667709586468391200,7.16539111328125,5.123438407999277,9.077705026331543,3.172035752417147
1667709586478442000,7.17544189453125,5.39063154708147,8.185355789357423,2.650291221421957
1667709586488493000,7.1854931640625,5.440269730475545,6.728211691951751,1.5893968511223793
1667709586498543900,7.1955439453125,4.9294776783883565,5.439632601615786,0.8844742658153176
1667709586508594000,7.205593994140625,4.33184905436933,4.406786514192819,0.009079378512501715
1667709586518645000,7.21564501953125,3.9084056153893467,3.818521930846572,-1.1945453003764153
1667709586528696000,7.225696044921875,2.7525468962818382,3.652477966687083,-2.176849533563852
1667709586538747100,7.2357470703125,-0.3015338731665164,3.321182065528631,-1.8031237729549408
1667709586548798200,7.245798095703125,-3.6530794397115707,3.048991848811507,-1.0273501203551887
1667709586558849000,7.25584912109375,-5.834812069141864,3.3100919317156072,-0.4786009703174233
1667709586568900000,7.265900146484375,-6.666813512659073,3.757451668334007,0.02424684476703405
1667709586578950100,7.2759501953125,-6.415394281291961,3.4315742850929496,0.4017547542631626
1667709586589001200,7.286001220703125,-3.807992938047647,3.801421158441901,-3.141921184660494
1667709586599052000,7.296052001953125,-0.8438670917473733,3.4007705660283563,-7.956970227575302
1667709586609102800,7.306102783203125,0.826940799126774,3.0018957511156796,-7.698513352656364
1667709586619154000,7.31615380859375,1.2533749443553388,2.9838708496034143,-5.2649932430684565
1667709586629205000,7.326205078125,2.18907437049523,2.6126883437365294,-3.4177138097837565
1667709586639255000,7.336255126953125,1.513465411825478,1.3598685490459204,-1.984019561548531
1667709586649306000,7.34630615234375,-0.37494536553174257,-0.02252805815041065,-2.080145647612214
1667709586659357200,7.356357177734375,-2.0729136505320667,-0.4818769232481718,-2.9603394596293566
1667709586669408000,7.366407958984375,-3.1845696552976963,-1.021678212198615,-3.3476600303485986
1667709586679459000,7.376458984375,-4.260291007851064,-1.4016273773670196,-2.9843481117263435
1667709586689510100,7.38651025390625,-5.583140324318409,-1.5348679730772972,-2.0759522875756025
1667709586699561200,7.396561279296875,-7.115880637717247,-1.783033171084523,-0.8194578960254788
1667709586709611300,7.406611328125,-6.681368107712268,-2.0071517230719325,0.1940967770807445
1667709586719661800,7.416661865234375,-4.808804595567286,-2.4274241308003663,0.6635311289936303
1667709586729713000,7.426712890625,-4.0047570346415045,-3.227535813581943,0.8533863229818641
1667709586739764000,7.436763916015625,-4.326594494841992,-4.071740905112028,0.9146844029009341
1667709586749815000,7.44681494140625,-4.773703471569717,-4.690802193260192,1.263616206254065
1667709586759866000,7.4568662109375,-4.970954767158627,-5.212203317645192,1.7814748357266186
1667709586769917000,7.4669169921875,-5.248153751948475,-5.635924989044666,2.020913852573186
1667709586779967000,7.476967041015625,-5.524567139318585,-5.897772090923786,1.9928265528604387
1667709586790018000,7.48701806640625,-5.725540962561965,-6.0796951767385,1.8946746600575743
1667709586800069000,7.497069091796875,-6.142143157345056,-6.446162344521284,1.8891721171185374
1667709586810120200,7.5071201171875,-6.728373604515195,-7.0224255244284866,1.9357525203771888
1667709586820171000,7.5171708984375,-7.192288170093297,-7.441686124765872,1.729089983972907
1667709586830222300,7.527222412109375,-7.235693596577644,-7.523765857559442,1.6509439373664556
1667709586840272400,7.5372724609375,-6.864560775071382,-7.309487147063017,1.5706933196961879
1667709586850323200,7.5473232421875,-6.337628904566168,-6.887717778775095,1.3251226682268082
1667709586860374300,7.557374267578125,-5.66452681415081,-6.5570818028300994,1.277382719669491
1667709586870425300,7.56742529296875,-4.439222802895308,-6.2267041855603456,1.2394538249000906
1667709586880476200,7.57747607421875,-2.7369702647045253,-5.353530189177394,1.4607896143011747
1667709586890527200,7.58752734375,-0.5633905465915798,-3.8852486116856335,1.4487445178508758
1667709586900578300,7.597578369140625,3.3309833285748955,-1.6063175907850265,0.7175903437003492
1667709586910628400,7.60762841796875,12.021914312154054,2.8974194775968787,0.7923788965724408
1667709586920679400,7.617679443359375,20.798911467814445,11.781312242877483,1.4506952135272324
1667709586930730200,7.627730224609375,27.384976788544652,23.786430903053283,-2.6033313173264263
1667709586940781300,7.63778125,17.28688885052204,24.22489480103254,-7.805542233267426
1667709586950832400,7.647832275390625,6.777837015864253,13.214824120283126,-5.250735585135221
1667709586960883500,7.657883544921875,4.380131731501222,2.9297482142716644,-2.889830629903078
1667709586970934300,7.667934326171875,3.244742676709592,-3.1091707154423,-2.661609318771958
1667709586980984300,7.677984375,1.3060817215397953,-7.190611176791787,-2.729046193706989
1667709586991035100,7.68803515625,-1.4564113992169498,-9.364507121247053,-3.1946120336234567
1667709587001086200,7.698086181640625,-2.555522687447071,-8.77875130585134,-3.898858619365096
1667709587011137300,7.70813720703125,-2.882743301990628,-5.297466941171884,-4.9338072320252655
1667709587021188400,7.718188232421875,-3.184941703480482,0.3327560368388891,-6.172799576893448
1667709587031239200,7.7282392578125,-4.18047746642381,6.574435673213005,-5.415010786056518
1667709587041290200,7.738290283203125,-7.153598081693053,8.72895413250327,-4.638001746442914
1667709587051340300,7.74834033203125,-2.655976865842938,7.072732400864362,-7.694522237193584
1667709587061391400,7.758391357421875,1.2762106071501969,2.661300106692314,-13.237704645133018
1667709587071442400,7.7684423828125,-2.2299115539267658,-1.9147130933493375,-8.81066035580933
1667709587081493500,7.778493408203125,-4.54229680840075,-3.7726714492976665,-0.24531419249027966
1667709587091544300,7.78854443359375,-8.06848180655837,-4.531324748009443,5.227656907364726
1667709587101595400,7.798595458984375,-10.506530791747569,-4.391451582416892,8.431308572012185
1667709587111646500,7.808646484375,-11.027082605826854,-3.402695396611094,9.021196372646093
1667709587121696300,7.8186962890625,-10.637557218539714,-1.8693430887937545,8.117649449831246
1667709587131747300,7.828747314453125,-9.176658152514696,0.27801205473840235,6.175249308133125
1667709587141798100,7.838798095703125,-6.011845044827461,2.780503993743658,2.7952175787508486
1667709587151849200,7.84884912109375,-2.32692056030482,5.620511146813631,0.3261393951781094
1667709587161900300,7.858900390625,-1.160903143015504,7.878644294357299,0.29254648378640413
1667709587171951400,7.868951416015625,-1.78532362010926,8.28691237603724,0.6829224965535103
1667709587182001400,7.87900146484375,-1.9765455724060534,7.730409543132781,1.3003183357074857
1667709587192052500,7.889052490234375,-2.0249439848721025,6.263858150434493,1.6876240011185406
1667709587202103300,7.899103271484375,-2.1393711590409277,3.4709891806364057,1.0830135553881526
1667709587212154400,7.909154296875,-2.301120202485472,0.5845458550840615,0.4030896561287343
1667709587222205400,7.919205322265625,-2.2892238668560982,-1.365064948645234,0.012152794608473776
1667709587232256500,7.929256591796875,-1.9459340149126947,-2.6185855850815773,-0.5376474719174206
1667709587242307300,7.939307373046875,-1.3320774558007715,-3.3317151499807833,-1.2809114783175288
1667709587252357000,7.949357177734375,-0.440357748901844,-3.7976971694827077,-2.222212816117704
1667709587262408200,7.959408203125,0.34602643730044363,-4.143146099156141,-2.784362422737479
1667709587272459300,7.969459228515625,0.6242880828857421,-4.132678481155634,-3.130986825931072
1667709587282510300,7.97951025390625,0.6638298196792602,-3.779194129064679,-3.226747585813701
1667709587292561400,7.9895615234375,0.6551824028432369,-3.231585381233692,-2.896418191599846
1667709587302612200,7.9996123046875,0.6466051286339759,-2.579416773253679,-2.260616927183419
1667709587312663300,8.009663330078125,0.6391073932897299,-1.9861913526296615,-1.6144387917898595
1667709587322713300,8.01971337890625,0.7200479659855366,-1.5595266135156154,-0.9960878438681363
1667709587332764400,8.029764404296875,0.7865554511159658,-1.1127601666152476,-0.5040791104450821
1667709587342815500,8.0398154296875,0.8845119674772024,-0.6205114869564772,0.13734423163682222
1667709587352866300,8.0498662109375,0.941650735759735,-0.18389876980185507,0.8859354244090616
1667709587362917400,8.05991748046875,1.097065169355273,-0.19310966573953628,1.4747288539350032
1667709587372968400,8.069968505859375,1.49288118121922,-0.6450549765825271,1.7160324956096709
1667709587383019300,8.080019287109375,1.9028375082470474,-1.2001467736452818,1.8055828565448522
1667709587393069300,8.0900693359375,2.1433501456744968,-1.5348989527374506,1.8077632693238554
1667709587403120400,8.100120361328125,2.5330893218427897,-1.5808821207553148,1.9081774079702793
1667709587413171200,8.110171142578125,3.218696089044213,-1.3864204558849333,2.0404180328577755
1667709587423222300,8.12022216796875,3.8636943670034407,-0.8449211308449506,2.2004747393012045
1667709587433273300,8.1302734375,3.5934368719145655,0.18376432976722717,2.7574928282514213
1667709587443324400,8.140324462890625,2.5686367283031344,1.6526707611590623,3.6077182029843327
1667709587453375200,8.150375244140625,1.5975523927882314,2.8848773914098738,4.323608757029474
1667709587463425300,8.16042529296875,1.389393918737769,3.4079262830018995,4.8455321517229075
1667709587473476400,8.170476318359375,2.0182529628008603,3.331862449496984,5.512964964330196
1667709587483527400,8.18052734375,2.919119852751493,3.1631641714364287,6.239781693798303
1667709587493578500,8.19057861328125,3.4099612959608434,3.096810415562987,6.514134056985378
1667709587503629300,8.20062939453125,3.4056641832888124,2.968242487838864,5.989248013094067
1667709587513680100,8.21068017578125,3.4598405946344135,2.956714547130465,4.372014183758199
1667709587523731200,8.220731201171875,3.9822345294490455,3.463738186594844,2.019061356574297
1667709587533781200,8.23078125,5.0252340543568135,4.1294215251863005,-0.3757803550511598
1667709587543832300,8.240832275390625,6.036922202938794,4.721376195222139,-2.258514255815744
1667709587553883400,8.25088330078125,6.25457652734816,5.340242253059149,-2.8634359594523904
1667709587563934200,8.260934326171874,5.722627705463767,5.80581978341341,-1.3703154165193439
1667709587573985300,8.2709853515625,5.481211397194862,6.285999839615822,1.6464567089498041
1667709587584036400,8.281036376953125,5.626140092611313,6.692012835845351,4.13841936289519
1667709587594087400,8.29108740234375,5.712146643459796,7.146890693008899,5.213488681280612
1667709587604137500,8.301137451171876,5.697064809662104,7.467986687192321,5.171254052141308
1667709587614188500,8.3111884765625,5.52653522452116,6.796934515044093,4.46567212614268
1667709587624239000,8.321239013671875,4.854576458922028,5.410763065484166,3.4742253860786554
1667709587634290200,8.331290283203124,4.483251914235949,4.129406327617168,1.992510618779063
1667709587644341200,8.34134130859375,3.959340268334746,3.4645874969005583,0.48261137500256296
1667709587654392300,8.351392333984375,1.6039561223506926,3.228452343904972,-0.35383331165909765
1667709587664443100,8.361443115234374,-2.9593682765096423,3.045056847450137,0.0342006680265069
1667709587674493400,8.371493408203126,-6.4912634690076105,3.211038852289319,0.5623454214528203
1667709587684544300,8.381544189453125,-7.730497805938124,3.461928506824374,0.18513810233846306
1667709587694595300,8.39159521484375,-7.088260809385776,3.9932676723778244,-0.6239958219408989
1667709587704646400,8.401646484375,-4.8329392121315,4.761330019947886,-1.8690460055433213
1667709587714697500,8.411697509765625,-1.6354805569052695,6.018665246236324,-2.8605487135782837
1667709587724748300,8.421748291015625,1.3384873228430747,7.125897004818916,-3.7376758315011855
1667709587734799400,8.43179931640625,2.8767478609681127,7.4789727761089795,-4.059470621603727
1667709587744850400,8.441850341796876,2.3903951074801384,6.514879322394728,-3.6779981923907994
1667709587754900200,8.451900146484375,0.7456418414473533,4.645601115530729,-2.9918802607968447
1667709587764951300,8.461951416015625,-0.9502607431948185,3.0348510952562093,-2.290194611584395
1667709587775002400,8.47200244140625,-2.2063979918703436,1.9631307950377463,-1.6685105737172066
1667709587785053200,8.48205322265625,-2.9861773729801175,1.1399573856204748,-1.3837908380337058
1667709587795104300,8.492104248046875,-3.800617440843582,0.5226216060906649,-1.1956653904475272
1667709587805155300,8.5021552734375,-4.552843336856365,-0.06884323460161686,-0.73351622710675
1667709587815205400,8.512205322265626,-5.254185433328152,-0.8562322139322758,-0.7171295943208038
1667709587825256400,8.52225634765625,-5.420252778363228,-1.8161907597988842,-0.8864365057989955
1667709587835307800,8.532307861328125,-5.511827484732866,-2.8114778086781502,-0.716559539347887
1667709587845358800,8.54235888671875,-5.8364580827832215,-3.8005677564829585,-0.37867439599223435
1667709587855410000,8.552409912109376,-6.006462767267227,-4.760732054054737,-0.2258213373173028
1667709587865461000,8.5624609375,-6.129838971567153,-5.479823742228746,-0.213727798615396
1667709587875511800,8.57251171875,-6.112437754911184,-5.984797463425994,-0.3371247534424066
1667709587885563000,8.58256298828125,-6.003124562755227,-6.458138613519072,-0.4298162619475275
1667709587895613000,8.592613037109375,-5.883845272380113,-6.848546044337749,-0.5902320840269327
1667709587905664000,8.6026640625,-5.923323880809545,-7.255560911086201,-0.9062517247941344
1667709587915715000,8.612715087890624,-6.195394270539284,-7.602021648150682,-1.2655869218051432
1667709587925765600,8.622765625,-6.518622016054391,-7.837097647482156,-1.2914911783903837
1667709587935816700,8.632816650390625,-6.71599869158864,-8.001574508455395,-0.9334615110199898
1667709587945867800,8.64286767578125,-6.73194561778307,-7.89613728094995,-0.7091586154416203
1667709587955918800,8.6529189453125,-6.39383652947843,-7.818699236482382,-0.2603789290226996
1667709587965969000,8.662968994140625,-5.833098835483193,-7.789780015990138,-0.00716492319330573
1667709587976020000,8.67302001953125,-5.084442030128836,-7.454742590215802,0.1950182758398354
1667709587986070800,8.68307080078125,-3.9485669453859327,-6.876513663193583,0.6430673098966478
1667709587996121900,8.693121826171875,-2.2755603754237295,-5.78606761971712,1.0019229797624052
1667709588006173000,8.7031728515625,0.8130167570620774,-4.248218585002422,0.8938074729584157
1667709588016224000,8.71322412109375,7.16083972338438,-2.281786410331726,-0.01887406568750739
1667709588026274800,8.72327490234375,14.065840060871839,2.9321126053154467,1.7837063941709697
1667709588036324900,8.733324951171875,20.100933879339692,13.91757140737772,3.5587566036775704
1667709588046375700,8.743375732421875,21.607062080144882,25.361778186035156,-5.894856495738029
1667709588056426800,8.7534267578125,10.115558128261565,22.092177839183805,-6.900850232070684
1667709588066477800,8.763477783203125,4.6331221577078106,9.584999299430846,-1.872701897702366
1667709588076529000,8.77352880859375,3.737313720190525,0.5085393047243356,-1.4844091209501027
1667709588086579700,8.783579833984374,2.7065309950381518,-5.119931276661157,-1.2500627510674298
1667709588096630800,8.793630859375,0.3234764595791697,-9.334201414832473,-0.6526840832214802
1667709588106681900,8.803681884765625,-1.972661424449086,-11.685034473383427,-0.6195711373664439
1667709588116732000,8.81373193359375,-2.9002976633816955,-10.617222871041298,-2.267070048845559
1667709588126783000,8.823782958984374,-2.122831819911301,-5.248543043527007,-4.347358758190274
1667709588136833800,8.833833740234375,-0.3123433634072542,2.445011809939146,-5.319944145917892
1667709588146884900,8.843884765625,-4.624877768714725,9.613895139047504,-4.382795982274413
1667709588156936000,8.85393603515625,-7.383569451361894,12.471509845000504,-3.9090088419795035
1667709588166987000,8.863987060546876,-2.4367630370318887,11.272862370002269,-6.1055187693029636
1667709588177038000,8.8740380859375,-1.032564347872138,5.73394171116054,-11.750966204452514
1667709588187088000,8.884087890625,-4.183877045734226,-0.06588847644925117,-10.65311719124317
1667709588197138700,8.894138671875,-5.579432117450237,-3.7665281242370603,-4.137817305348813
1667709588207189800,8.904189697265625,-7.576284564825892,-5.609532656681537,1.6177119682416319
1667709588217240800,8.91424072265625,-9.862055660879612,-5.955278523474932,5.306062920081615
1667709588227292000,8.9242919921875,-10.416699129652976,-5.147310281974077,6.5270964144110675
1667709588237342700,8.9343427734375,-10.260752196615934,-2.9382600220292803,6.75706661503613
1667709588247393800,8.944393798828125,-8.946017505282162,0.5402887802064419,6.7162243170380584
1667709588257443800,8.95444384765625,-6.148394034433364,4.517527693325281,4.41827295384705
1667709588267495000,8.964494873046876,-2.497377080209553,8.110136005461216,1.7699309667967258
1667709588277546000,8.9745458984375,-0.7675719337046146,9.952202964794635,1.2876923706293106
1667709588287597000,8.98459716796875,-0.6404432450033724,9.821966811597347,2.3935715455591677
1667709588297647900,8.99464794921875,-1.0144818709537387,7.766058364140987,3.8689953960210084
1667709588307699000,9.004698974609376,-1.6378677443027496,4.26116574485898,4.160925793735682
1667709588317750000,9.01475,-2.084005099519342,0.9164718708395957,2.9265508795350788
1667709588327800800,9.02480078125,-2.085354322171211,-1.458193898719549,1.8795412422031164
1667709588337851000,9.034850830078126,-1.8127368199527263,-3.0313410413086412,1.0713429913386703
1667709588347901700,9.044901611328125,-1.451103648197651,-3.8790848283588883,0.261761542487517
1667709588357952800,9.054952880859375,-1.0925181735754013,-4.251302522492408,-0.8875386218219995
1667709588368003800,9.06500390625,-0.4742436518907547,-4.438617822739482,-2.02397952375412
1667709588378055000,9.075054931640626,0.267255061869882,-4.539382966780662,-2.808521881482005
1667709588388106000,9.08510595703125,1.1170832905113697,-4.66240319724977,-3.495917870187759
1667709588398156800,9.09515673828125,1.7908996666759252,-4.524917219054698,-3.6228774859324098
1667709588408206800,9.105206787109376,2.0850778433173893,-3.9052345841377973,-3.095479459220171
1667709588418258000,9.1152578125,2.132572584941983,-2.8584377127736804,-1.9718033463150262
1667709588428309000,9.12530908203125,2.0408342124432326,-1.6011124233573675,-0.8348739302136003
1667709588438360000,9.135360107421874,1.7484006875120102,-0.7083283020973206,-0.20197145597860217
1667709588448410600,9.14541064453125,1.0968895205274223,-0.2632704126805067,0.48105596225410696
1667709588458461700,9.155461669921875,0.45917233948707575,0.10249299074709414,1.016333051778376
1667709588468512800,9.1655126953125,0.18963132210448383,0.29579379514455795,1.3553091321758926
1667709588478562800,9.175562744140626,0.1521395035780966,-0.002097264540195465,1.6788275312006473
1667709588488614000,9.18561376953125,0.2593558695852756,-0.8157248469769954,1.8221050984092055
1667709588498665000,9.1956650390625,0.5218611431121826,-1.6605571304947138,1.7982652270078658
1667709588508715800,9.2057158203125,1.306526250436902,-2.213120285862684,1.742489856033027
1667709588518766800,9.215766845703126,2.6744994877442716,-2.1492560087174177,1.8300056424006819
1667709588528818000,9.22581787109375,4.894349374122918,-1.2690215724289418,2.0043372501730916
1667709588538869000,9.235868896484375,7.452403918135166,0.4469242678105831,2.129105493353307
1667709588548919800,9.245919921875,8.642557121032477,2.647559166109562,2.953850389871001
1667709588558969900,9.255969970703125,7.379191966930032,4.419864022430778,4.853240826404094
1667709588569020700,9.266020751953125,4.919720839005708,5.28429006421268,6.8072893203198905
1667709588579071700,9.27607177734375,2.245821655242145,5.2348360052138565,7.743050413519144
1667709588589122800,9.286122802734376,0.7793965192720294,4.296332335308194,7.311185767674446
1667709588599174000,9.296173828125,1.389088213789463,3.263959710615873,6.0502457948923105
1667709588609224700,9.306224609375,3.279032484324276,2.826207760298252,5.012900642484426
1667709588619275800,9.31627587890625,6.199449683409929,2.9788626660525797,3.5725504434913393
1667709588629325800,9.326325927734375,9.728308284690975,4.23072852101922,1.3540341438040135
1667709588639377000,9.336376953125,11.521550715100764,4.985154557424783,-0.007855097414553164
1667709588649428000,9.346427978515624,10.92375082616806,4.6979205008327956,0.6511684910267591
1667709588659478800,9.356478759765626,9.425368124923109,4.471870103999972,2.906083845567703
1667709588669529900,9.36652978515625,8.276084108030796,5.551794753462076,4.520246596895158
1667709588679581000,9.376580810546875,7.1959794258266685,6.749732034364342,5.22026328998208
1667709588689632000,9.386632080078124,5.355208936044574,6.988340299475192,5.744187795364857
1667709588699683000,9.39668310546875,3.3297631391301747,5.911849716114998,5.494821404874324
1667709588709732900,9.40673291015625,2.7426082705914974,4.0555157464981075,3.603970540888607
1667709588719783700,9.41678369140625,4.0475633261889215,2.9900808101594447,1.2732836137875914
1667709588729834800,9.426834716796876,3.7802842623889443,2.9421061760634184,-0.06091098029762506
1667709588739885800,9.4368857421875,-0.10837722648009657,3.2862235648721456,-0.5387905044727027
1667709588749937000,9.44693701171875,-4.2706139566838734,3.893156608331203,-0.6556086654312908
1667709588759987700,9.45698779296875,-6.115431676030159,4.929467741516232,-1.3504238443523644
1667709588770038800,9.467038818359375,-6.088787414732575,6.325386093586683,-2.6826959459424016
1667709588780088800,9.4770888671875,-4.256478463825583,7.9067773329079145,-3.9699616155922413
1667709588790140000,9.487139892578124,-2.118991218835115,9.386476960992812,-4.219419191497564
1667709588800191000,9.49719091796875,-0.9843863732237368,10.464804112130404,-3.5832030626699325
1667709588810242000,9.507241943359375,0.12705167794227598,11.374665040397643,-2.5981331641614434
1667709588820292900,9.51729296875,1.1802058093786238,11.876184821748733,-1.3534773867040872
1667709588830342700,9.5273427734375,1.1119183089636266,11.578232971787452,-0.9675498777784407
1667709588840393700,9.537393798828125,0.2328793660700321,10.636659392917156,-1.1652557852670549
1667709588850444800,9.54744482421875,-0.6161306415237486,9.13425693463683,-1.7031028714098035
1667709588860494600,9.55749462890625,-1.1689281901694835,7.39739690118432,-1.5866899302512407
1667709588870545700,9.567545654296875,-1.829089696599543,5.413213965767621,-1.3911721804566681
1667709588880596700,9.5775966796875,-2.8245184920370576,3.831246387863159,-1.2165262460380792
1667709588890647600,9.5876474609375,-4.05854269310385,2.51755331453681,-1.0455894683357327
1667709588900698600,9.59769873046875,-4.960861243167519,0.9929624053239822,-1.0288270610399544
1667709588910749700,9.607749755859375,-5.0369724229454995,-0.7760323035359382,-1.3564207466796039
1667709588920800800,9.61780078125,-5.089373056790232,-2.1620260584414006,-1.1994343875922262
1667709588930851600,9.6278515625,-5.097949746477604,-3.1279122407913205,-1.0566853012371809
1667709588940901600,9.637901611328125,-5.087341843223571,-4.182066489180922,-0.9592720249071717
1667709588950952700,9.64795263671875,-4.857723817037046,-5.176187416890263,-0.916179098438099
1667709588961003800,9.658003662109374,-4.635845152930915,-6.230408300775289,-1.0177093816328793
1667709588971054800,9.668054931640626,-4.688086796821653,-7.446965526473522,-1.1113873438920825
1667709588981106000,9.67810595703125,-4.950665427845716,-8.84633898743391,-1.017884957395494
1667709588991156500,9.688156494140625,-5.146058820608258,-10.479733970236778,-0.9372117303989828
1667709589001207600,9.69820751953125,-4.861667293965816,-12.319102776527403,-0.9401648811161517
1667709589011257600,9.708257568359375,-4.642786934892833,-14.091878172969817,-0.9821973387468605
1667709589021308700,9.71830859375,-4.630871163910627,-15.72196008570194,-0.9850929871231316
1667709589031359700,9.72835986328125,-4.947738142222166,-17.065519889503715,-1.2671125239372252
1667709589041410600,9.73841064453125,-5.82430178104341,-17.657233736521004,-1.434998170440644
1667709589051461600,9.748461669921875,-6.374333956629037,-16.741635141384602,-0.9455578992661088
1667709589061512700,9.7585126953125,-5.052368729519844,-13.645619091069698,0.1755574232403189
1667709589071563800,9.768563720703124,-1.6702876663923263,-9.999591323435306,1.2235242151666432
1667709589081614800,9.77861474609375,2.8531039505302904,-6.44292467777431,1.9556921694695948
1667709589091665000,9.788664794921875,12.862046455156802,-2.34858323379755,2.969289366543293
1667709589101715700,9.7987158203125,36.20360242414474,4.946009710994362,7.846542352175712
1667709589111766500,9.8087666015625,40.43835128672123,14.417857847541569,13.442434606039523
1667709589121817600,9.818817626953125,7.905857295453548,18.84217534224987,10.91056284329295
1667709589131868700,9.82886865234375,-27.929704427981374,16.598042663007973,-2.9714103042200204
1667709589141919500,9.83891943359375,-28.368804285776612,8.600758545222877,-12.902294294393062
1667709589151970600,9.848970458984375,-15.070774643540382,3.5100182917326688,-14.197168100959061
1667709589162021600,9.859021728515625,-3.9461365033686158,-0.9034849634945392,-14.283777878397702
1667709589172071700,9.86907177734375,2.094893719410896,-7.053171960347891,-12.955153777921199
1667709589182122800,9.879122802734376,-6.019245091950893,-11.431045683789252,-7.837190001940726
1667709589192173800,9.889173828125,-11.167883407658337,-12.418878325009345,-4.840096098148822
1667709589202224600,9.899224609375,-11.893539276653527,-12.157276722323894,-4.002591088779271
1667709589212275700,9.909275634765624,-11.5163741892457,-10.081619618302582,-3.1351170576035976
1667709589222326800,9.919326904296875,-10.665835218518971,-5.72262127572298,-2.299633763319999
1667709589232377900,9.9293779296875,-9.46274187002778,1.362010237249732,-1.400994340160489
1667709589242428700,9.9394287109375,-6.1764282887846225,16.510084978091715,-1.6752482114091514
1667709589252478700,9.949478759765626,-1.2888397870987653,32.39799082827568,-0.5244458989083767
1667709589262529500,9.959529541015625,6.927146118322014,40.27588693461418,5.953950489741564
1667709589272580600,9.96958056640625,14.678303265929221,33.18486484382152,13.692475534790754
1667709589282631700,9.979631591796876,11.613805804949997,15.815558406853675,11.023643279027938
1667709589292682800,9.989682861328125,6.200736800611018,6.332913566482067,5.955875904846191
1667709589302733600,9.999733642578125,6.109443833792209,1.2452671873539685,0.9660352354317903
1667709589312784600,10.00978466796875,9.94105963948965,-1.4558698396861551,-4.0267911717951295
1667709589322834700,10.019834716796876,12.731557788503169,-2.018370451700687,-7.089000814098119
1667709589332885800,10.0298857421875,11.617234610354899,-1.9979805746227501,-6.982087084299326
1667709589342936800,10.039936767578125,10.493747298020123,-1.6944161454766988,-3.442607135760784
1667709589352987600,10.049987548828126,11.03445459589958,-0.6415460916787386,1.4887296144977211
1667709589363038700,10.060038818359375,11.53646303755045,-0.1808259382277727,4.332787796524167
1667709589373089800,10.07008984375,11.672167977547645,-1.527773630902171,6.3993585077703
1667709589383140900,10.080140869140624,11.023041221481561,-3.0417396857261654,8.325314879667758
1667709589393191700,10.090191650390626,8.884275627118349,-4.040799823403359,9.405581474435328
1667709589403241700,10.10024169921875,6.171333011472225,-4.924060914036631,9.462196511104702
1667709589413292500,10.11029248046875,5.075769478851557,-6.683616763421893,8.280202649265528
1667709589423343600,10.120343505859376,6.001666180640458,-9.106161890009044,6.297689692887664
1667709589433394700,10.130394775390625,7.368816118866205,-10.263414109301566,3.5049051865026355
1667709589443445800,10.14044580078125,7.058975093668699,-9.473321716231107,0.1085394313044846
1667709589453496600,10.15049658203125,4.160639085748792,-6.974808033207059,-2.520352005344629
1667709589463547600,10.160547607421876,1.5604315995313227,-5.011153506556153,-3.7211440911561247
1667709589473598700,10.1705986328125,-0.7786953852653503,-2.0852473546653987,-3.800330440595746
1667709589483648800,10.180648681640625,-1.707550936859846,1.7532950354248285,-3.442835683819651
1667709589493699800,10.190699951171876,0.6739326960206031,7.078399340584873,-4.1715190839424725
1667709589503751000,10.2007509765625,0.755152012592554,15.18592311772108,-6.284261471515894
1667709589513801700,10.2108017578125,-1.7500854257285594,20.04915225417614,-6.671067078450322
1667709589523852500,10.2208525390625,0.015392945573478936,23.044583777713775,-8.526873809322714
1667709589533903600,10.230903564453126,1.4096796047888696,21.727155609512327,-8.91293824250102
1667709589543954700,10.24095458984375,-0.38368718265295026,14.797155270802973,-8.201696683305501
1667709589554005500,10.251005615234375,-3.331499753664434,12.09974573985338,-8.680056538343429
1667709589564055800,10.261055908203126,-4.127403755623102,11.026097101920843,-7.9344754871726035
1667709589574106600,10.271106689453125,-4.164017914532125,10.24612161371708,-6.805349292168021
1667709589584157700,10.28115771484375,-4.2153389364466065,9.353709832900762,-5.274001894432306
1667709589594208800,10.291208740234374,-4.235433629970252,7.682675147533416,-2.330981818394363
1667709589604259800,10.301259765625,-4.069526736193895,5.837631218215823,0.2848439465850591
1667709589614310700,10.311310546875,-4.226655280230939,4.059131598907709,2.2422771145030853
1667709589624361700,10.32136181640625,-4.514343218070269,2.2259102093309164,3.997326592379808
1667709589634412800,10.331412841796874,-5.207175844871998,0.6237953309327363,4.97374644370377
1667709589644462600,10.341462646484375,-5.599056855374575,-1.2549281651467084,4.280504359318316
1667709589654513700,10.351513671875,-5.587793118560314,-3.4492397056430577,3.0707153125807642
1667709589664564700,10.361564697265624,-5.94774695892632,-5.554191293209791,2.135176337699592
1667709589674615600,10.371615478515626,-6.635359805253148,-7.326624159824847,1.0646893786683678
1667709589684666600,10.38166650390625,-7.619494176477193,-8.765514807659388,0.11272359425448812
1667709589694717700,10.3917177734375,-8.470739249646662,-10.25589014353752,-0.4998889652788639
1667709589704768800,10.401768798828124,-8.784317707806824,-12.030737085556984,-0.0485696728131501
1667709589714819600,10.411819580078125,-9.21978885371089,-14.002975900679825,0.973348481054604
1667709589724869600,10.42186962890625,-10.249800594490766,-15.849499254900216,1.1579594907790423
1667709589734920700,10.431920654296874,-10.295402654236554,-16.84179179813862,-0.26666940746903417
1667709589744971800,10.4419716796875,-8.801468749094008,-16.601826857721804,-0.963477075381577
1667709589755022800,10.45202294921875,-5.827449431419372,-15.235708016109466,-0.8541668058350682
1667709589765073700,10.46207373046875,-1.0375802763380109,-13.003719363647699,-0.6442272935867309
1667709589775124700,10.472124755859374,7.039349186700582,-9.430473923629522,0.7405702372714876
1667709589785175800,10.48217578125,24.1307470293045,-2.7464889114171265,4.2922798450469966
1667709589795227000,10.492226806640625,27.36187414537668,5.735275590112805,5.328738277748227
1667709589805276700,10.502276611328124,22.1929026512146,9.960994174015521,3.5440158384025096
1667709589815327700,10.51232763671875,18.83651950844526,9.167662945154309,4.544573813422024
1667709589825378600,10.522378662109375,10.5633182623744,5.890215391933918,5.938507421416044
1667709589835430000,10.532429931640625,-4.490386296160519,3.6804227891892194,2.9813802018314597
1667709589845481000,10.54248095703125,-25.822954266560075,3.2853765926539897,-7.546998264586925
1667709589855532000,10.552531982421876,-20.310779575824736,5.093147899153828,-13.703930994784832
1667709589865582600,10.56258251953125,-8.567889125800132,6.297494462576508,-14.80852071442604
1667709589875633700,10.572633544921874,-0.9927776964068412,4.237151247543096,-17.782873209577797
1667709589885683700,10.58268359375,-7.5283023319453,-1.2716682875454426,-13.758285685306786
1667709589895734800,10.59273486328125,-11.514407857608795,-5.5800844438791275,-8.226586794412135
1667709589905785900,10.602785888671875,-12.53450026192069,-7.43745769341588,-5.095205416205525
1667709589915837000,10.6128369140625,-13.536984528827666,-7.044419329571723,-2.2153505291327833
1667709589925887700,10.6228876953125,-14.624922388875484,-5.261318353947996,0.8131926981508731
1667709589935938800,10.632938720703125,-13.974222099882363,-0.7844897507578134,1.791603138770163
1667709589945990000,10.642989990234375,-11.157468396627902,7.14508042871654,0.7131837062392383
1667709589956041000,10.653041015625,-6.679505820971727,17.709522726684806,-0.3490565987765789
1667709589966091000,10.663091064453125,1.8141151225686072,27.435320489859578,0.5313008793696761
1667709589976141800,10.673141845703125,8.25412303611338,27.125500507450102,4.228626580303907
1667709589986192600,10.683192626953126,7.1541983856737605,15.510589956128596,7.603334484314918
1667709589996243700,10.69324365234375,4.29997682929039,6.862785582092404,7.522891412812471
1667709590006294800,10.703294677734375,4.227107992434501,2.8810645551234484,4.484357829651236
1667709590016345900,10.713345947265625,6.057953300529718,1.5150930130273104,-0.1864533496554941
1667709590026396700,10.723396728515626,8.680271642398834,2.2506740637093783,-4.078361784556508
1667709590036447700,10.73344775390625,11.54394024156332,2.9646161140352487,-6.628855830186605
1667709590046497800,10.743497802734375,12.292489494889974,2.2679846794724465,-6.154045776584744
1667709590056548900,10.753548828125,11.317480094885825,0.7255664371460676,-3.1705481442078947
1667709590066600000,10.763599853515625,10.95644430450201,-0.26447160516381263,-0.05989800386279821
1667709590076650800,10.773650634765625,11.336456013512612,-0.8043202403873204,1.8858616773962973
1667709590086701800,10.783701904296874,11.804867305988072,-2.0511422559678554,3.428511098130047
1667709590096753000,10.7937529296875,11.549743374884128,-3.292270443820953,5.468650021785497
1667709590106804000,10.803803955078125,10.19009402154684,-4.00508202881217,7.3456030010610815
1667709590116854800,10.813854736328125,8.012600929382444,-4.486951353275775,8.434403615418075
1667709590126904800,10.82390478515625,5.523002374219894,-5.24477112377286,8.434017246448994
1667709590136955600,10.83395556640625,4.3514954196035855,-6.571875467336177,7.779817424902319
1667709590147006700,10.8440068359375,4.4754391946583985,-8.19091751513779,6.993091293394565
1667709590157057800,10.854057861328124,5.938493977412581,-9.475169389924407,5.696274536067247
1667709590167108900,10.86410888671875,7.407707867318392,-10.272170247209072,3.9432933888971804
1667709590177159700,10.87415966796875,7.136804767802357,-9.241591520196199,1.3587347227104007
1667709590187210800,10.884210693359375,4.8313615875512355,-7.64648564377725,-1.1010364110738038
1667709590197261800,10.89426171875,0.9296142610073089,-5.50687716884911,-2.2602128764271736
1667709590207312000,10.904311767578125,-2.611569568839669,-2.331644958478212,-1.9359063957646487
1667709590217363000,10.914363037109375,-2.264988420265913,1.2772966488212347,-1.3141156826525926
1667709590227414000,10.9244140625,0.0008428440323099493,7.741698414388298,-2.245532609167695
1667709590237464800,10.93446484375,-2.2731553601086136,17.055674202793835,-2.5469983124688267
1667709590247516000,10.944515869140625,-4.438586843079328,22.588294300186632,-3.0595307784825563
1667709590257567000,10.95456689453125,-1.3444506151616573,26.226723283255097,-5.653415053027868
1667709590267617800,10.96461767578125,2.092234144812822,21.02596548873186,-5.3058536612451075
1667709590277668600,10.974668701171876,1.0098900131188333,12.531083146953582,-5.154556599840522
1667709590287719700,10.9847197265625,-1.3249275840461254,10.164571457755565,-5.918462996774911
1667709590297769700,10.994769775390624,-1.924380208621919,9.187577021414041,-5.838636011344194
1667709590307820800,11.00482080078125,-2.194816859669983,8.783679409903288,-5.757672715359926
1667709590317871900,11.014871826171875,-3.5038431102290746,8.723449105346202,-5.196580801099539
1667709590327923000,11.0249228515625,-3.92691917720139,7.510027839586138,-3.2231226733148097
1667709590337973800,11.034973876953124,-3.7361192497089504,5.420048195701837,-1.021785983422026
1667709590348024800,11.04502490234375,-4.112575896586478,3.5163802279800174,0.8550995566405355
1667709590358076000,11.055075927734375,-4.706093578155339,1.9417776258856057,2.6034485139653083
1667709590368127000,11.065126953125,-5.580213623216748,0.5275514637082814,3.237810539358854
1667709590378177000,11.075177001953126,-6.224796306112408,-1.0325912358790637,1.8603426207363605
1667709590388227600,11.0852275390625,-6.698813163509964,-2.5000825397759674,0.4283690222812816
1667709590398278700,11.095278564453125,-7.1698103808254,-3.6338971848577257,-0.5204181777622551
1667709590408329700,11.105329833984374,-7.512721316453814,-5.00588170363307,-1.2096931851476431
1667709590418380800,11.115380859375,-7.523283627000451,-7.190528759205341,-1.6799191258296369
1667709590428432000,11.125431884765625,-7.694477229008078,-9.956175375556946,-1.8184762403875587
1667709590438482700,11.135482666015625,-8.006537683820724,-12.689439479219912,-1.075188853111863
1667709590448533800,11.14553369140625,-8.819039477097988,-14.940698649340867,0.5970058159455657
1667709590458583800,11.155583740234375,-10.372554867500066,-16.440355023783443,1.5951476697340607
1667709590468635000,11.165634765625,-10.63808679537177,-16.73395218566656,1.4870891538143156
1667709590478686000,11.17568603515625,-8.96195040295124,-15.286438670915365,2.3015151931524276
1667709590488736800,11.18573681640625,-5.507242495030164,-12.762298963725566,2.135103272463381
1667709590498787800,11.195787841796875,2.164904098095745,-9.573661328336597,1.290560035020113
1667709590508839000,11.2058388671875,19.994889918112754,-3.989757033908367,2.697717866246402
1667709590518890000,11.215889892578126,29.96859393609762,5.600177968358993,4.7822269697651265
1667709590528940800,11.22594091796875,21.998219452548025,10.57439612122774,2.4966227547109128
1667709590538991900,11.235991943359375,17.110882295274735,9.056576898106933,2.5902982327520845
1667709590549041700,11.246041748046874,12.496406970369815,4.801445172715187,5.304249733179807
1667709590559092700,11.2560927734375,2.668186066813767,1.3909949241936206,5.059645442524552
1667709590569143800,11.266143798828125,-19.690559765291212,-1.8856284531623124,0.20936551175266502
1667709590579195000,11.27619482421875,-29.13883004237413,-3.3510908815801144,-8.595989431124925
1667709590589245700,11.28624560546875,-11.835707849931715,5.324374237319827,-13.372495392894743
1667709590599296800,11.296296875,15.681071610474586,8.548184308376907,-21.18616657208204
1667709590609347800,11.306347900390625,5.427831689184904,5.842406762054562,-18.341062388134002
1667709590619399000,11.31639892578125,-11.631112329059839,-1.2567074497789144,-8.345797111204266
1667709590629449000,11.326448974609375,-14.693503173148631,-4.834947044822574,-2.6380428574845194
1667709590639499800,11.336499755859375,-13.7759055131495,-6.016355215728282,1.6715350361049175
1667709590649550800,11.34655078125,-13.583736927652359,-5.574487646785379,4.507644889475405
1667709590659602000,11.356601806640626,-13.534239614033698,-3.77176953202188,5.856449900454282
1667709590669652700,11.36665283203125,-11.917399460190534,0.5745078606724738,4.4784851382255555
1667709590679703800,11.376703857421875,-8.165558032953738,6.818846487122774,1.3444389247238635
1667709590689754600,11.386754638671874,-2.168289795011282,15.142736302423476,-0.3763856274679303
1667709590699805700,11.3968056640625,3.4503625721931455,23.485079473781585,-0.17718765479065476
1667709590709855700,11.406855712890625,3.754651808482408,21.73230174022913,4.279468294268846
1667709590719906800,11.41690673828125,1.1712433352440594,12.476369559991358,7.491917597877979
1667709590729958000,11.4269580078125,-0.8175321886599063,6.413995520409942,6.742961517316102
1667709590740008700,11.4370087890625,0.33756029531545934,3.0977818909436463,4.888587449595332
1667709590750059800,11.447059814453125,4.680823235559464,1.238656829303503,1.3400668471194803
1667709590760110800,11.45711083984375,8.770817005720733,2.0433464875251053,-2.602082194048166
1667709590770162000,11.467161865234376,10.451607945948838,3.445048683694005,-4.992984228137135
1667709590780213000,11.477212890625,11.035880829310416,3.595165010881424,-5.655893425840139
1667709590790263800,11.487263916015625,12.10075579367876,3.4354964269727466,-4.234791240413487
1667709590800313600,11.497313720703126,13.063479712605476,2.9464731391012666,-0.6487701977133751
1667709590810364700,11.50736474609375,12.90108433408141,1.3190402795732021,2.717906960055232
1667709590820415700,11.517415771484375,12.693685446226596,-0.9088128805190324,4.0443911258935925
1667709590830467600,11.527467529296874,13.289151923775671,-2.7920488855868575,4.969537886098027
1667709590840518400,11.537518310546876,12.430131540429592,-4.159436724221706,6.601085195207595
1667709590850569500,11.547569580078125,9.692328624293207,-4.8711178438782685,7.839921472731232
1667709590860620500,11.55762060546875,6.984336324530839,-5.897310318630933,8.386553484484553
1667709590870671600,11.567671630859374,5.600047035455703,-7.085607664528489,8.309264493098855
1667709590880721400,11.577721435546875,6.024563656625151,-8.339848431932925,7.311234867513179
1667709590890772200,11.587772216796875,7.763525046271085,-9.501054357287288,5.773724270972609
1667709590900823300,11.5978232421875,9.5464623557657,-9.732385909393429,3.8050600994661448
1667709590910874400,11.607874267578126,7.468668239715695,-7.550150006616115,1.4482869833417236
1667709590920925400,11.617925537109375,1.9062609068244694,-5.392168839651346,-0.9419653546668588
1667709590930976500,11.6279765625,-2.4625322690606115,-2.6477181560635565,-2.052605021996796
1667709590941027300,11.63802734375,-2.899621371555328,0.49891164467930793,-2.3730083577409387
1667709590951078400,11.648078369140626,-0.20985680240094662,5.297334254702926,-2.662665549826622
1667709590961128400,11.65812841796875,1.4465326870203017,13.813125528997181,-4.284184509135782
1667709590971179500,11.668179443359374,-2.698241890120506,20.744113709700105,-4.150865295231342
1667709590981230600,11.678230712890626,-3.019880905139446,22.241927671146392,-5.271505985963344
1667709590991281400,11.688281494140625,0.5233363302312791,20.859070460700988,-5.921517708170414
1667709591001332500,11.69833251953125,0.624809622541815,13.90209209869504,-4.4499961258441205
1667709591011383600,11.708383544921874,-2.5742928543686867,10.295600222635269,-4.600503205914795
1667709591021434600,11.7184345703125,-3.2550182792693376,10.17922074535489,-5.45245584283173
1667709591031485400,11.7284853515625,-2.658411399513483,10.359596017205714,-5.330388967564701
1667709591041536300,11.738536376953125,-2.2264061761543155,10.021599741625785,-4.031242598246037
1667709591051586300,11.74858642578125,-2.315899107813835,8.713903862887621,-2.488637893436849
1667709591061637400,11.758637451171875,-2.762093892306089,6.654836659139394,-0.5064893864572048
1667709591071688400,11.7686884765625,-3.373689666879177,4.631144135633111,1.8656977180287242
1667709591081739500,11.778739501953124,-4.444871914698183,2.7394670499563216,3.7512311863839622
1667709591091790300,11.788790283203125,-5.429309360522032,1.012780035471916,4.34801809888184
1667709591101841400,11.79884130859375,-6.004547873556613,-0.6586234832078218,3.519407759107649
1667709591111892500,11.808892578125,-6.388694490414857,-2.2978958336114883,2.634996329395473
1667709591121943600,11.818943603515624,-6.535200810411572,-3.6978631688117978,2.0635718216910957
1667709591131993600,11.82899365234375,-6.897188786953687,-4.932677351212501,1.0937265264518559
1667709591142044700,11.839044677734375,-7.605788307207822,-6.433904920494556,-0.48063455850426107
1667709591152095500,11.849095458984374,-8.311739943301678,-8.640262872615455,-2.45333101773411
1667709591162146300,11.859146240234375,-8.484775958305597,-11.196446654319763,-3.5690409740656612
1667709591172197400,11.869197265625,-8.446437167561054,-13.779694384038448,-3.195348238943517
1667709591182248400,11.87924853515625,-9.661562314629554,-16.225051061892508,-1.8321262878164648
1667709591192299300,11.88929931640625,-11.860774486649035,-17.851934470844267,-1.3459125044077633
1667709591202350300,11.899350341796875,-12.087344523441791,-17.704684054481984,-0.5333303393706679
1667709591212401400,11.9094013671875,-9.706409172093867,-15.538927577340601,1.3319140819326043
1667709591222451500,11.919451416015624,-5.574271958208084,-12.37629239821434,1.5971955421745776
1667709591232502500,11.92950244140625,2.1397424765713513,-8.657998435792326,1.7364558365657925
1667709591242553600,11.9395537109375,19.833751261651514,-2.646062790071964,3.965228741851449
1667709591252604400,11.9496044921875,32.95595438138246,6.46345717819333,7.5583490951627486
1667709591262655500,11.959655517578126,24.53521747226715,10.59618008301258,7.321854461205005
1667709591272706600,11.96970654296875,19.32496821129918,8.418805648791789,7.5823647615224115
1667709591282757600,11.979757568359375,10.584378586059808,4.884325115975737,8.583483585295081
1667709591292808400,11.989808349609374,-4.4972854080244895,4.330481857669353,6.112134388050436
1667709591302858200,11.999858154296875,-21.53916401743889,6.511954374858736,-6.152872641152143
1667709591312909300,12.009909423828125,-17.44308478988409,7.145216037794947,-16.05380134578347
1667709591322960400,12.01996044921875,4.595305637271702,7.613406380996108,-22.371495131301877
1667709591333011500,12.030011474609376,-3.2731495637655255,1.710982664874196,-19.74314101639986
1667709591343062500,12.0400625,-10.966415078896283,-5.458437839850783,-11.974160042810439
1667709591353113300,12.05011328125,-15.213011031132936,-9.671250180429219,-5.920878241223097
1667709591363164400,12.060164306640624,-14.99134513299465,-10.18309846357107,-1.2437354477420448
1667709591373215500,12.070215576171876,-15.396677161222696,-7.836856824463605,2.0237362165175377
1667709591383265500,12.080265625,-15.621110185986756,-3.3961171872645615,3.6918250576913354
1667709591393316600,12.090316650390625,-14.618560452628135,4.624624378475547,2.7427172839239238
1667709591403367400,12.100367431640626,-10.457134015893935,16.636984680342675,0.531211082194373
1667709591413418500,12.11041845703125,-1.0434769331611693,30.408479391312596,-1.6203198126524685
1667709591423469600,12.120469482421875,9.806886146843432,33.589223058581354,1.094712614879757
1667709591433520600,12.130520751953124,8.533332191681861,19.573398197722433,6.004931319916248
1667709591443571500,12.140571533203126,2.914814264512062,9.122258453807234,6.870006180995702
1667709591453622300,12.150622314453125,1.308475046417117,4.578874434691667,5.129034620571137
1667709591463673300,12.16067333984375,3.2000358122378585,1.930284756490588,2.052558260245621
1667709591473723400,12.170723388671876,6.809346837371588,1.871462565165758,-1.826614538657665
1667709591483774500,12.1807744140625,10.178910948753357,2.9668408043473957,-5.056639830967784
1667709591493825500,12.190825439453125,11.392441520106791,2.6477280929356812,-5.900499470061064
1667709591503876400,12.20087646484375,10.78402671365738,1.4071078546047209,-4.56318352908492
1667709591513927400,12.210927490234376,10.588301896983385,-0.051823710739612575,-2.668176422202587
1667709591523978500,12.220978515625,10.916033968180418,-0.8303209430843591,-0.3951087403774261
1667709591534029600,12.231029541015625,11.199578522604703,-1.4612030174076556,1.6481098829843104
1667709591544080400,12.241080322265624,10.445597891879082,-2.609896667191386,4.03096816521883
1667709591554130400,12.25113037109375,8.93265065870881,-3.9909406907349823,6.668652418524027
1667709591564181200,12.26118115234375,7.467060219997167,-5.482541769015788,8.449833824262022
1667709591574232300,12.271232421875,6.591707710531353,-7.088395833942294,9.50168213379681
1667709591584283400,12.281283447265626,6.041849137946963,-8.702486396816372,9.841462954705953
1667709591594334500,12.29133447265625,6.348756447780132,-9.299879458513855,9.192676390379667
1667709591604385300,12.30138525390625,8.70043823211491,-10.064147089976071,7.951997115337848
1667709591614436400,12.311436279296874,10.59670264558196,-10.108750786334276,6.366568583324551
1667709591624487400,12.3214873046875,10.423702870935202,-7.532538946601748,3.1293112939342853
1667709591634538500,12.33153857421875,8.453895082351565,-6.434332790517806,-0.12708937960416078
1667709591644588500,12.341588623046874,3.076640318715572,-6.1845578192263835,-2.1612036361426115
1667709591654639400,12.351639404296876,-2.9681442881613966,-4.234329175859689,-2.6125983273655176
1667709591664690400,12.3616904296875,-4.535952992331981,-0.9148650201648473,-1.9860523825503884
1667709591674741500,12.371741455078125,-2.326378416252136,3.58390711928606,-1.6378411485567688
1667709591684792600,12.38179248046875,-0.42443650513794273,12.62312780892253,-2.9593343742400404
1667709591694843600,12.39184375,-3.4338673644661903,23.03778461909294,-3.1003479420393703
1667709591704894500,12.40189453125,-4.014752358955144,27.057501906979084,-3.878421103753149
1667709591714945500,12.411945556640624,-0.5064592835798859,23.08491111192703,-1.9186346507072447
1667709591724995300,12.421995361328126,0.1288446988388896,13.613252944993972,0.9640956456713378
1667709591735046400,12.43204638671875,-3.20833193141818,10.466554170668125,-0.41926403440348803
1667709591745097500,12.442097412109375,-3.8870238046646115,10.66927103818655,-3.480914362323284
1667709591755148300,12.452148193359376,-3.008310586594045,10.829890639209747,-4.59003997182846
1667709591765199400,12.462199462890625,-2.4540745295777917,10.3334749029994,-3.507612984156608
1667709591775250400,12.47225048828125,-2.3377894525825975,9.154766054180264,-2.25665299198851
1667709591785301500,12.482301513671874,-1.9397651170194148,7.33398796659112,-0.9120957015819847
1667709591795352600,12.4923525390625,-2.9578777456909418,5.1346939615070815,0.8570773595195263
1667709591805403400,12.5024033203125,-4.450739345426857,3.254504484528303,2.5401898014977573
1667709591815453400,12.512453369140625,-5.717986017137766,1.5639192955166101,2.2611624322369694
1667709591825504500,12.52250439453125,-6.590899316757917,-0.5348480504572392,1.3548821389354764
1667709591835555000,12.53255517578125,-6.9391843466401095,-2.5159499709933995,1.2195378489442168
1667709591845606100,12.542606201171875,-6.770383777248859,-4.365609869673848,0.8766370693836361
1667709591855657200,12.5526572265625,-6.589259148335456,-6.120777128711342,-0.01878967533968389
1667709591865708000,12.5627080078125,-6.526367515614629,-7.883299426686763,-1.363287417578697
1667709591875759000,12.572759033203125,-6.9255065344214435,-9.867384162425994,-3.054697366976738
1667709591885810200,12.58281005859375,-7.090480823522806,-11.804751570653915,-4.447437381272017
1667709591895861200,12.592861328125,-6.915902839773893,-13.341927236151694,-4.050441219712794
1667709591905911000,12.6029111328125,-7.874283761060237,-14.589801975655554,-3.227458072170615
1667709591915961900,12.6129619140625,-8.829172748577594,-15.606881754148006,-2.948634408788383
1667709591926013000,12.623012939453124,-7.698796261250973,-15.640229896998404,-2.0804075134187934
1667709591936064000,12.63306396484375,-5.879621517205238,-14.437601827931402,-0.9715139591038227
1667709591946115000,12.643114990234375,-2.9186697708964346,-12.218240017330645,-0.30004356154352424
1667709591956166100,12.653166259765625,2.6422867786645887,-9.476110470166802,0.03688566932678222
1667709591966217000,12.663217041015624,12.730616708260774,-5.006798233956098,2.1424492513120175
1667709591976268000,12.67326806640625,28.599592232525346,2.947785390743613,6.712078303274512
1667709591986319000,12.683319091796875,29.16958758420944,8.510012106370926,9.411222695192695
1667709591996369200,12.693369140625,17.379694559991357,6.403157900053262,11.113210737228393
1667709592006420200,12.703420166015626,-2.42747381516099,2.3884680849403144,12.154440622115134
1667709592016471000,12.713470947265625,-17.426659724783896,0.7307002929031848,9.686716045108437
1667709592026522000,12.723522216796875,-18.427187012404204,4.261815148678422,-2.1115033472977576
1667709592036573200,12.7335732421875,2.6148434759438035,12.081186000812053,-13.453961377704143
1667709592046624300,12.743624267578125,17.173227400028704,16.86112661320567,-20.18042885633707
1667709592056675000,12.753675048828125,-16.022667371851206,6.737367642831802,-14.735891531544922
1667709592066726000,12.763725830078124,-14.19116623019576,-1.814406214469671,-9.083637338989973
1667709592076776000,12.77377587890625,-14.29325765440464,-7.973270204991102,-2.925846822918951
1667709592086827000,12.783826904296875,-13.690351382243632,-10.607432129389046,1.7743924762502312
1667709592096878000,12.793878173828125,-11.847629758393763,-11.421384705996513,3.7686364946931596
