time,seconds_elapsed,z,y,x
1667709579352397600,0.0493974609375,-9.664908117926121,-0.3435791902787983,1.6253896632626652
1667709579362448400,0.059448486328125,-9.670254155129193,-0.3620839477298781,1.5891706411510704
1667709579372499500,0.06949951171875,-9.672530867889522,-0.39540786945447326,1.5672199444971977
1667709579382549500,0.079549560546875,-9.671815997618436,-0.4445858514582738,1.5584307811029254
1667709579392600600,0.0896005859375,-9.669320673671365,-0.5115905089884996,1.553351285881549
1667709579402651600,0.099651611328125,-9.664577863058447,-0.6014578634509816,1.5506665768422185
1667709579412702500,0.109702392578125,-9.655887191602588,-0.7213117753762751,1.5536844633586704
1667709579422753500,0.11975341796875,-9.643249828347564,-0.873313770179823,1.5541688858747482
1667709579432804600,0.1298046875,-9.627232759526372,-1.0525148106195032,1.5423976379297673
1667709579442854700,0.139854736328125,-9.606294600915907,-1.251985974214971,1.5238156870566308
1667709579452905700,0.14990576171875,-9.578844283932447,-1.4638622997447848,1.5077243839554488
1667709579462956500,0.15995654296875,-9.545389173576234,-1.6744494622468948,1.5007147974543273
1667709579473007600,0.170007568359375,-9.508915007659793,-1.8663488754138349,1.5058749566964804
1667709579483058400,0.180058349609375,-9.4747163854599,-2.0263379234485326,1.5146265645593404
1667709579493109500,0.190109619140625,-9.447609767347574,-2.14543338168934,1.5199245248369873
1667709579503159600,0.20015966796875,-9.429548040956258,-2.2215337478123605,1.5227609173066914
1667709579513210600,0.210210693359375,-9.42008813869357,-2.2594101817421612,1.5255771437712013
1667709579523261400,0.220261474609375,-9.417961063537001,-2.2657192187584934,1.5293481867425143
1667709579533312500,0.2303125,-9.424688325965404,-2.2444364844940603,1.5192553934037685
1667709579543363600,0.240363525390625,-9.44116249090433,-2.19980706917271,1.4817843254044651
1667709579553414700,0.25041455078125,-9.462513321968913,-2.1460699260272085,1.4232387590639293
1667709579563464700,0.260464599609375,-9.481289918631315,-2.1026171532697973,1.3618101846329866
1667709579573515800,0.270515869140625,-9.492201773267984,-2.079290053696185,1.321001496643573
1667709579583566600,0.280566650390625,-9.494237663009763,-2.079865369366109,1.3053722580961882
1667709579593617700,0.29061767578125,-9.48786578989029,-2.1067378864616155,1.3086032028414307
1667709579603668500,0.30066845703125,-9.471222698125242,-2.162093424589187,1.3385349613770843
1667709579613719600,0.310719482421875,-9.442720826262235,-2.247611022876948,1.3977318312332034
1667709579623769600,0.32076953125,-9.402736021876335,-2.3596131618559357,1.4802572619676588
1667709579633820400,0.3308203125,-9.352810253712533,-2.492278295765817,1.576030150679499
1667709579643871500,0.34087158203125,-9.296880276697873,-2.633296832001209,1.6745606675364075
1667709579653922600,0.350922607421875,-9.240706554055214,-2.7678137312576174,1.7660506182320415
1667709579663973600,0.3609736328125,-9.189598882630467,-2.8824273679092527,1.8475046203427015
1667709579674024700,0.371024658203125,-9.148395934626459,-2.966605534286797,1.9174157764367759
1667709579684074800,0.38107470703125,-9.119027801322936,-3.017857874879241,1.9764222382873295
1667709579694125600,0.39112548828125,-9.099282067367435,-3.0426909951016303,2.0286647589609026
1667709579704176600,0.4011767578125,-9.086750502574443,-3.0491175210177897,2.074664293591678
1667709579714227700,0.411227783203125,-9.081092330682278,-3.0427409717231986,2.108522870182246
1667709579724278500,0.421278564453125,-9.081643534824252,-3.0279055139020086,2.1274210473977027
1667709579734329300,0.431329345703125,-9.085828127032517,-3.0079905608594415,2.1377799443267285
1667709579744379600,0.441379638671875,-9.088332803329825,-2.9911531155660747,2.1507202360510824
1667709579754430500,0.451430419921875,-9.084653238034248,-2.985469809232652,2.174035206795484
1667709579764481500,0.4614814453125,-9.071700817480682,-2.995783697976172,2.213574897762388
1667709579774532600,0.47153271484375,-9.047909607526659,-3.0236627617657184,2.272263671965897
1667709579784583700,0.481583740234375,-9.013523938322066,-3.068684391275048,2.3473270962566137
1667709579794634500,0.491634521484375,-8.96886821951568,-3.127370681260526,2.4391265512928366
1667709579804684500,0.5016845703125,-8.917588698655367,-3.194454797235131,2.538198335419595
1667709579814735600,0.511735595703125,-8.869895804110168,-3.257024358394742,2.62433348108381
1667709579824786700,0.52178662109375,-8.826039711248875,-3.313734672132134,2.7001062226876615
1667709579834837800,0.531837646484375,-8.791264165943861,-3.364420318752527,2.750405792599916
1667709579844888600,0.541888671875,-8.769469682765006,-3.406242859959602,2.768446768464148
1667709579854939400,0.551939453125,-8.755354063650966,-3.440410210238397,2.770873118828237
1667709579864989400,0.561989501953125,-8.746957406705617,-3.4693373217761514,2.761307710364461
1667709579875040500,0.57204052734375,-8.744411813876033,-3.4951632524281737,2.736690863241255
1667709579885091600,0.582091552734375,-8.74463977741301,-3.5194033751934763,2.7047110861346124
1667709579895142700,0.592142578125,-8.744324720114468,-3.543621286126971,2.6739339628159997
1667709579905193500,0.602193359375,-8.745577350524067,-3.565924595610797,2.6399688571110365
1667709579915244500,0.61224462890625,-8.749034212979673,-3.585195697791874,2.602144153368473
1667709579925294600,0.622294677734375,-8.751339567312598,-3.6055186471134424,2.5660624939009544
1667709579935345700,0.632345703125,-8.750145389091967,-3.6312037079900503,2.53371271443814
1667709579945396700,0.642396728515625,-8.744812795892358,-3.664549805013835,2.50393804616034
1667709579955447600,0.652447509765625,-8.736902461159229,-3.703797819557786,2.4736209415689108
1667709579965498600,0.66249853515625,-8.73029853284955,-3.742710903058946,2.4381110906399783
1667709579975549400,0.672549560546875,-8.729065191662311,-3.7750022303327917,2.392313946713507
1667709579985599500,0.682599609375,-8.73455034507513,-3.7969440130278467,2.336927428925782
1667709579995650600,0.692650634765625,-8.745265800356865,-3.8072760219499466,2.279333318091184
1667709580005701600,0.70270166015625,-8.75814164854288,-3.808321439349651,2.227560168495029
1667709580015752400,0.71275244140625,-8.769291988110542,-3.808281107339263,2.1833215060569344
1667709580025803500,0.722803466796875,-8.775999376794696,-3.815436532051861,2.143516588282585
1667709580035854600,0.7328544921875,-8.777479386219381,-3.832844762970507,2.1060725544206798
1667709580045904600,0.742904541015625,-8.775959044784306,-3.8568952083826065,2.068159587872773
1667709580055955700,0.752955810546875,-8.775116164219378,-3.8800864066168663,2.027967278216034
1667709580066006800,0.7630068359375,-8.777403982895612,-3.8960128745451565,1.9871203040428458
1667709580076057600,0.7730576171875,-8.783575949528814,-3.899790931779146,1.9521281933777033
1667709580086108700,0.783108642578125,-8.794294327419996,-3.8873862082362174,1.9284714234583078
1667709580096159500,0.793159423828125,-8.810413687571883,-3.857095407129824,1.915673608944565
1667709580106209500,0.80320947265625,-8.83050487396419,-3.8129923537701367,1.911452776379138
1667709580116260600,0.813260498046875,-8.850669710114598,-3.764846162499487,1.9136261748954653
1667709580126311400,0.8233115234375,-8.866202794811128,-3.726215110810101,1.9173301439799366
1667709580136362500,0.833362548828125,-8.87351282556355,-3.7098742168620227,1.9151979542568325
1667709580146413600,0.84341357421875,-8.871465829905867,-3.721325000680983,1.9024242512710392
1667709580156464600,0.853464599609375,-8.860763818627595,-3.7582659073263405,1.8795444570735096
1667709580166514700,0.8635146484375,-8.84316912522614,-3.8141672427684066,1.8495597993068396
1667709580176565800,0.873565673828125,-8.821399776488542,-3.88012644636631,1.8160152571015058
1667709580186616600,0.883616455078125,-8.798505807635188,-3.9460447334319353,1.7847713930539786
1667709580196667600,0.893667724609375,-8.777289416605234,-4.001663744801283,1.7652954159505665
1667709580206718700,0.90371875,-8.759777725312114,-4.039706767469644,1.765630054732412
1667709580216769500,0.91376953125,-8.747001830369234,-4.058493301004171,1.785769318050146
1667709580226819600,0.923819580078125,-8.739687123441696,-4.059769896811247,1.8183841781899333
1667709580236870400,0.933870361328125,-8.738681745791435,-4.046479330344498,1.8525183568514882
1667709580246921500,0.94392138671875,-8.743157429900766,-4.023426079276204,1.8813889158964157
1667709580256972500,0.95397265625,-8.75144828838408,-3.994807303035259,1.9036931021630763
1667709580267023600,0.964023681640625,-8.761489205405116,-3.96399540066421,1.9218311086609958
1667709580277074700,0.97407470703125,-8.771247213831543,-3.9336403021499513,1.9396072961091995
1667709580287124700,0.984124755859375,-8.779193788921832,-3.90546225541383,1.9604868564002216
1667709580297175600,0.994175537109375,-8.783813265416025,-3.881583074915409,1.987036863543093
1667709580307226600,1.0042265625,-8.784299003106355,-3.8625048649579283,2.021763309009373
1667709580317277700,1.014277587890625,-8.781195776394009,-3.84636972271502,2.06553201584816
1667709580327328800,1.024328857421875,-8.777734822285176,-3.8291546762809157,2.1117130445256826
1667709580337379300,1.03437939453125,-8.77873201662898,-3.805270527346432,2.150386327921599
1667709580347429600,1.0444296875,-8.787949926829338,-3.7709517858982085,2.1730726453736424
1667709580357480400,1.05448046875,-8.807817825859784,-3.7240319215521214,2.1735472771480677
1667709580367531500,1.064531494140625,-8.837660006415843,-3.665038173052668,2.1525899754457174
1667709580377582600,1.07458251953125,-8.872683973523975,-3.5998555067852136,2.118231486508995
1667709580387633700,1.084633544921875,-8.90773482863903,-3.537619999885559,2.075545606470853
1667709580397684500,1.0946845703125,-8.938708059051633,-3.486774194267392,2.027878138627857
1667709580407734500,1.104734619140625,-8.962364828971028,-3.4518490113586187,1.9827100863851606
1667709580417785600,1.11478564453125,-8.976482201650738,-3.433850705592334,1.94982649230659
1667709580427836700,1.124836669921875,-8.980723492482303,-3.432111168448627,1.9332887606121598
1667709580437887700,1.1348876953125,-8.976298661777376,-3.4436075449749826,1.9333926593780517
1667709580447938600,1.1449384765625,-8.964808714991808,-3.465615670904517,1.9473299993157385
1667709580457989400,1.1549892578125,-8.94846782104373,-3.4956156723707914,1.968750973007083
1667709580468039400,1.165039306640625,-8.93067263663411,-3.5290865648180243,1.9897287329755722
1667709580478090500,1.175090576171875,-8.913993889033794,-3.561479306639731,2.0067299905285236
1667709580488141600,1.1851416015625,-8.899816310599446,-3.5881589315116402,2.0220714981757104
1667709580498192600,1.195192626953125,-8.88878521349728,-3.606081833954155,2.0386410863131283
1667709580508243500,1.205243408203125,-8.882437305775284,-3.612342647914588,2.055156752306223
1667709580518294500,1.21529443359375,-8.882044507065414,-3.606378771074116,2.067293326432258
1667709580528344600,1.225344482421875,-8.886744063058496,-3.592414835390448,2.0714047072738406
1667709580538395600,1.235395751953125,-8.894682454842329,-3.5758363332942125,2.0660105931453407
1667709580548446700,1.24544677734375,-8.903000785854458,-3.5622558439701795,2.053604992819577
1667709580558497800,1.255497802734375,-8.908621548345684,-3.556676290272176,2.038847422540188
1667709580568548600,1.265548583984375,-8.908855941623449,-3.5627740226253866,2.027143540742993
1667709580578599400,1.275599365234375,-8.902822506678104,-3.5803178626224397,2.0227344921290875
1667709580588649500,1.2856494140625,-8.891685611113905,-3.605814122928679,2.0264299856461583
1667709580598700500,1.295700439453125,-8.87787452790439,-3.633001697322726,2.0383887189872563
1667709580608751600,1.305751708984375,-8.863305904325843,-3.65567237881422,2.061128958583623
1667709580618802400,1.315802490234375,-8.8490996843189,-3.670719141298532,2.0951455022148786
1667709580628853500,1.325853515625,-8.836057247394322,-3.6788206146895885,2.1355928095459937
1667709580638904600,1.335904541015625,-8.824739734566212,-3.681202833651006,2.177867040043324
1667709580648954600,1.34595458984375,-8.81659266846776,-3.6783223097786304,2.2154064971037206
1667709580659005700,1.356005615234375,-8.813262062740325,-3.6686110631033775,2.2445677096582948
1667709580669056800,1.366056884765625,-8.815145392268896,-3.6511122312918305,2.2656080134689804
1667709580679107600,1.376107666015625,-8.82174055275023,-3.6258670231372117,2.280431780852377
1667709580689158700,1.38615869140625,-8.831656382086873,-3.5945316814139483,2.291629758954048
1667709580699209500,1.39620947265625,-8.843515162184834,-3.558949788162112,2.30141334021315
1667709580709260500,1.406260498046875,-8.854535737892984,-3.5224493187606334,2.3151528194911775
1667709580719310600,1.416310546875,-8.860953203719854,-3.4919258779421445,2.3367373131811617
1667709580729361400,1.426361328125,-8.858748387151955,-3.4759035484239456,2.3687670669093728
1667709580739412500,1.43641259765625,-8.84510856885612,-3.480408750888705,2.412715952620655
1667709580749463600,1.446463623046875,-8.81968829639554,-3.506201948314905,2.4677993958085773
1667709580759514600,1.4565146484375,-8.785443496966362,-3.5468466779142616,2.5310563547104596
1667709580769565700,1.466565673828125,-8.749329396533966,-3.588663666163385,2.596365862227976
1667709580779615700,1.47661572265625,-8.722478214487433,-3.616518180033564,2.647555366717279
1667709580789666600,1.48666650390625,-8.713620369771123,-3.621862463670969,2.6693293916299936
1667709580799717600,1.496717529296875,-8.724327057224512,-3.602701251605153,2.6602713481664657
1667709580809768700,1.506768798828125,-8.749238211119174,-3.5639942120701074,2.630430044393241
1667709580819819300,1.5168193359375,-8.7800571277529,-3.5151880955860015,2.5931515763565898
1667709580829869300,1.526869384765625,-8.808390072789788,-3.4670033258706328,2.5617437539190053
1667709580839920400,1.53692041015625,-8.826954488006233,-3.4303909205272793,2.5470912514492867
1667709580849971200,1.54697119140625,-8.833912636581063,-3.409389341291785,2.551164199976623
1667709580860022300,1.557022216796875,-8.832233305191993,-3.3995492075398563,2.5700404576212166
1667709580870073300,1.5670732421875,-8.827018785414099,-3.3938492423325775,2.595364283969998
1667709580880124400,1.57712451171875,-8.82265123785436,-3.385837785312533,2.6205542548060414
1667709580890175200,1.58717529296875,-8.82095495533049,-3.371425229078531,2.644735340860486
1667709580900225300,1.597225341796875,-8.82254251678288,-3.350080243232846,2.666474878981709
1667709580910276400,1.6072763671875,-8.827690401065349,-3.3240798327967522,2.6819316835716367
1667709580920327400,1.617327392578125,-8.835985351201892,-3.2954555035978554,2.6899294043272732
1667709580930378500,1.62737841796875,-8.847766389888525,-3.2626065424412487,2.6912475011885166
1667709580940429300,1.63742919921875,-8.862651239809393,-3.225135474441945,2.6874337881192565
1667709580950480100,1.647480224609375,-8.87880800936222,-3.185422472734749,2.6814611434504387
1667709580960530200,1.6575302734375,-8.895410769116879,-3.1458129314020273,2.6731846057534216
1667709580970581200,1.667581298828125,-8.911867982921004,-3.10765972635746,2.6629776845157145
1667709580980632300,1.67763232421875,-8.927097116234899,-3.0717408562362194,2.6536267955854536
1667709580990683400,1.687683349609375,-8.938932515457273,-3.0406980677187443,2.649533388791978
1667709581000734200,1.697734130859375,-8.946475770443678,-3.015859686799347,2.6524609666764736
1667709581010785300,1.707785400390625,-8.950347058919071,-2.9952076516538857,2.66278070063889
1667709581020835300,1.71783544921875,-8.953455546328424,-2.9739392381757495,2.676136733557284
1667709581030886400,1.727886474609375,-8.959133591964841,-2.947952856265008,2.6858669771939514
1667709581040937500,1.7379375,-8.967945259451866,-2.9166671989023683,2.690612125894427
1667709581050988500,1.747988525390625,-8.978742547798156,-2.8822277536839245,2.691716287744045
1667709581061039000,1.7580390625,-8.991748744365573,-2.8455449134528634,2.6873256515696644
1667709581071089200,1.768089111328125,-9.007253187489509,-2.8054078411147,2.677584009756148
1667709581081140200,1.77814013671875,-9.024311874318123,-2.76059079426676,2.6667054728671906
1667709581091191300,1.78819140625,-9.039272712084651,-2.7154046218454835,2.66242648037374
1667709581101242400,1.798242431640625,-9.049751436001062,-2.6758275214776397,2.666894857959449
1667709581111293400,1.80829345703125,-9.056341335785389,-2.643625333791971,2.676623055769503
1667709581121344300,1.81834423828125,-9.059804627981782,-2.618321088926494,2.689743234105408
1667709581131395300,1.828395263671875,-9.060500209030508,-2.598305890379846,2.7067551591828463
1667709581141445400,1.8384453125,-9.059214845395088,-2.5821152185574174,2.7264798503503203
1667709581151496400,1.848496337890625,-9.05603679988086,-2.5687477874621747,2.7495661269053815
1667709581161547500,1.858547607421875,-9.04983093097806,-2.559045893137157,2.778890421067178
1667709581171598300,1.868598388671875,-9.038827306404709,-2.5552383175477384,2.8179315148621797
1667709581181649200,1.878649169921875,-9.022885640907287,-2.55570184340626,2.8681548046678302
1667709581191700200,1.8887001953125,-9.005262305933236,-2.5502961849704384,2.9277342441007495
1667709581201750300,1.898750244140625,-8.99052183291912,-2.5268781922429797,2.9926214345529676
1667709581211801300,1.90880126953125,-8.981157207724452,-2.477813424822688,3.0609868225097654
1667709581221852400,1.918852294921875,-8.976001724657415,-2.4027000239104033,3.1350927999451756
1667709581231903200,1.9289033203125,-8.972048603117466,-2.3079231604985893,3.2165538163185117
1667709581241954300,1.938954345703125,-8.966472264289855,-2.2021092086352407,3.3050679660737514
1667709581252005400,1.94900537109375,-8.957547199556231,-2.094860109402239,3.3976901356697082
1667709581262055400,1.959055419921875,-8.946133240616321,-1.993459151675552,3.487577911865711
1667709581272106500,1.9691064453125,-8.936061343935132,-1.8999262969754636,3.56475350600481
1667709581282157300,1.9791572265625,-8.929689470815658,-1.8135614342086015,3.625193069398403
1667709581292208400,1.98920849609375,-8.927716709437966,-1.7340021598033606,3.668718322870135
1667709581302259200,1.99925927734375,-8.931535975465177,-1.660400917019695,3.693388946007192
1667709581312310300,2.009310302734375,-8.939598870411515,-1.5885780820854007,3.7054526010274884
1667709581322360300,2.0193603515625,-8.948685847708582,-1.51591908858791,3.713945996345579
1667709581332411400,2.029411376953125,-8.957402238127589,-1.443186299201846,3.721900754742324
1667709581342462200,2.039462158203125,-8.965987111121416,-1.3749535977140068,3.727058283635974
1667709581352513300,2.04951318359375,-8.975373948147892,-1.315728378546238,3.7258433548882604
1667709581362564400,2.059564453125,-8.985656857231259,-1.265492229259014,3.718451198810339
1667709581372615400,2.069615478515625,-8.995310236239433,-1.2302470206156373,3.7069217967972157
1667709581382665500,2.07966552734375,-9.002633126473427,-1.2138600955687462,3.6945270101264116
1667709581392716300,2.08971630859375,-9.005727585357427,-1.2151118491955102,3.686564360684156
1667709581402767400,2.099767333984375,-9.003771190592646,-1.2286933614328504,3.686840839537978
1667709581412818400,2.109818359375,-8.99815101262331,-1.2497501779869198,3.693478670117259
1667709581422869200,2.119869140625,-8.990551059013605,-1.273865359198302,3.7037343989327547
1667709581432920300,2.12992041015625,-8.981368804648518,-1.2956465445041656,3.7184272334128616
1667709581442970400,2.139970458984375,-8.972940583521128,-1.3100712295673786,3.733689976735413
1667709581453021200,2.150021240234375,-8.967458352717756,-1.3123144784495233,3.746051445658505
1667709581463072300,2.160072265625,-8.9656591943413,-1.2978705041639507,3.7553786614522338
1667709581473123300,2.170123291015625,-8.96763838545978,-1.2659290132410823,3.7615520893901584
1667709581483174400,2.18017431640625,-8.972980331009627,-1.2197764800056814,3.7640608573406933
1667709581493225200,2.19022509765625,-8.979287906721234,-1.1639830619174987,3.766685945147276
1667709581503275500,2.200275634765625,-8.984481383711099,-1.1045771524205803,3.7721860038682817
1667709581513326300,2.210326416015625,-8.988371376886963,-1.0465902428761125,3.779446057999134
1667709581523377400,2.22037744140625,-8.991061931145191,-0.99256310380809,3.7876121210590004
1667709581533428500,2.230428466796875,-8.992642478334902,-0.9443571451742202,3.7961759512647983
1667709581543479300,2.240479248046875,-8.992995529556273,-0.9036386196862906,3.8052401322081684
1667709581553530000,2.250530029296875,-8.991662235125899,-0.8715740138404071,3.8158550497248767
1667709581563580200,2.260580078125,-8.987877455890178,-0.8491663671992719,3.829798527142405
1667709581573631200,2.27063134765625,-8.980740443617105,-0.8360153553336859,3.849384978882968
1667709581583682300,2.280682373046875,-8.969892886388301,-0.8308842029903084,3.875698693051934
1667709581593733400,2.2907333984375,-8.955635812976956,-0.8317613511510192,3.9083427792862055
1667709581603784400,2.300784423828125,-8.938018907743691,-0.8373231499966234,3.9472891805350776
1667709581613835300,2.310835205078125,-8.915780772450566,-0.8471229517381638,3.9951998094841836
1667709581623885300,2.32088525390625,-8.887349043214321,-0.8599809720065444,4.055347988715767
1667709581633936400,2.330936279296875,-8.849729214394092,-0.8739595938026905,4.133867983201146
1667709581643987500,2.340987548828125,-8.797992597416043,-0.8864360674075782,4.240275517043471
1667709581654038500,2.35103857421875,-8.727026963832975,-0.8969963321276009,4.38232573441416
1667709581664089000,2.361089111328125,-8.633955881425738,-0.9052140523094684,4.5613349786087865
1667709581674140200,2.37114013671875,-8.51593389763534,-0.9071445819806307,4.777692248944938
1667709581684190200,2.381190185546875,-8.368143967568875,-0.8978541910659521,5.033727157413959
1667709581694241300,2.3912412109375,-8.186044356143475,-0.8764647084914148,5.328308654159307
1667709581704292400,2.401292236328125,-7.9704206607788795,-0.838291702767834,5.651552766287327
1667709581714343400,2.411343505859375,-7.7412448254019015,-0.7676307512197643,5.971118482163548
1667709581724394200,2.421394287109375,-7.508250308519601,-0.6591724223274738,6.273918356677889
1667709581734445300,2.4314453125,-7.2666481222897765,-0.4897412268824875,6.567066605749726
1667709581744495400,2.441495361328125,-6.997702586582303,-0.26243898509135466,6.865396641373634
1667709581754546400,2.45154638671875,-6.685771895629167,0.006057567593714339,7.174315291029214
1667709581764597500,2.461597412109375,-6.329045200616121,0.3096499961374327,7.484496507966518
1667709581774648300,2.4716484375,-5.939862927678227,0.6624078240521252,7.774935498079657
1667709581784699100,2.48169921875,-5.536130151340365,1.0788055823042988,8.022333803367614
1667709581794750200,2.491750244140625,-5.114875746837258,1.5523267651394008,8.221843983799218
1667709581804800300,2.50180029296875,-4.65227518646717,2.0592666718430817,8.383683482006191
1667709581814851300,2.511851318359375,-4.138482198998331,2.5805466540664432,8.507886784780025
1667709581824902400,2.52190234375,-3.5817411734238265,3.110813514213264,8.58279384946525
1667709581834953200,2.531953125,-2.991633884820342,3.6423254059851167,8.599650291720032
1667709581845004300,2.54200439453125,-2.3727875545971093,4.158718054558337,8.558348559516668
1667709581855055400,2.552055419921875,-1.737922401987016,4.643548566915094,8.460938571122288
1667709581865105400,2.56210546875,-1.111302588218078,5.094355521377921,8.305596033719182
1667709581875156500,2.572156494140625,-0.5326167477412149,5.519885703504086,8.088113558745384
1667709581885207300,2.582207275390625,-0.03938529955621343,5.922521332255005,7.816175270962715
1667709581895258400,2.59225830078125,0.3552670707892626,6.301159414824843,7.505970088627934
1667709581905309200,2.60230908203125,0.6515669888250529,6.656494947740435,7.17195499163866
1667709581915360300,2.6123603515625,0.8561059572041034,6.986768520113825,6.828070827063918
1667709581925411300,2.622411376953125,0.9788181446373462,7.28700877327323,6.489360850256681
1667709581935461400,2.63246142578125,1.0312208973739296,7.555114351025224,6.166620595997571
1667709581945512200,2.64251220703125,1.0259997286595404,7.789069821894168,5.869250345316529
1667709581955563300,2.652563232421875,0.9791454768955707,7.988439717072248,5.603257229673862
1667709581965614300,2.6626142578125,0.9084527419697492,8.158795699211955,5.364620322990417
1667709581975665400,2.67266552734375,0.8248254144079983,8.304801668471097,5.149787485742569
1667709581985715500,2.682715576171875,0.7390717423420399,8.431199850940704,4.953688575059175
1667709581995766500,2.6927666015625,0.6719164608273654,8.540071144548058,4.773478138381242
1667709582005817300,2.7028173828125,0.6499042432446033,8.628845406544208,4.614224857275188
1667709582015868400,2.712868408203125,0.6861450387965887,8.69708015385866,4.478884951198101
1667709582025919500,2.72291943359375,0.7752917873669415,8.748096639868617,4.3634985766083
1667709582035970300,2.73297021484375,0.9036058864604681,8.78421600099802,4.265139909186959
1667709582046021000,2.743021240234375,1.0529803823046386,8.807071975928544,4.182952624365687
1667709582056071200,2.7530712890625,1.2026035191476345,8.820559234011172,4.113616930072009
1667709582066122200,2.763122314453125,1.335606360579282,8.83143543281257,4.048743183623254
1667709582076173300,2.77317333984375,1.440460527499765,8.847144458597898,3.9778795491099355
1667709582086224400,2.783224365234375,1.5103437726736069,8.873105998328327,3.8932305503502485
1667709582096275500,2.793275390625,1.54512954711169,8.911704901313781,3.790053961253166
1667709582106326300,2.803326171875,1.5477786003157497,8.961293984869123,3.6701483556732533
1667709582116376300,2.813376220703125,1.5206281430616975,9.018408787754177,3.539261045090854
1667709582126427400,2.823427490234375,1.4633732010535896,9.081524292358756,3.399241456764936
1667709582136478500,2.833478515625,1.3740947889275847,9.150266404673456,3.2488281924575566
1667709582146529500,2.843529541015625,1.2598137452311813,9.22193112643659,3.0885663188308476
1667709582156580000,2.853580078125,1.139762009178847,9.289311302748322,2.929166614991426
1667709582166631200,2.863631103515625,1.028377782902494,9.346395710495115,2.7852605406209823
1667709582176681200,2.87368115234375,0.9315230903033167,9.390536465516686,2.668418122003972
1667709582186732300,2.883732177734375,0.8463073975715786,9.42195393256545,2.5847487819314003
1667709582196783400,2.893783447265625,0.7407603530161082,9.444155242979527,2.5356641407668588
1667709582206834400,2.90383447265625,0.6070165570240468,9.461619587999582,2.505926589629054
1667709582216885200,2.91388525390625,0.45906957323234526,9.475325457268953,2.4855223917648193
1667709582226936300,2.923936279296875,0.31089769464358685,9.48637058289647,2.4662755472421645
1667709582236986400,2.933986328125,0.17276581976041197,9.496817158108948,2.439469373381138
1667709582247037400,2.944037353515625,0.05117946715247817,9.505942713850736,2.4093146197445687
1667709582257088500,2.954088623046875,-0.05241924264708068,9.5133749096781,2.3797740524835884
1667709582267139300,2.964139404296875,-0.14230257556340656,9.51878699785471,2.3543198777534067
1667709582277190100,2.974190185546875,-0.22081806740360332,9.520255316841602,2.342300500266254
1667709582287241200,2.9842412109375,-0.29452722754115235,9.517766422635317,2.344302049347013
1667709582297291300,2.994291259765625,-0.37543464688602834,9.511542433553933,2.3579580881252884
1667709582307342300,3.00434228515625,-0.46618839226160197,9.502138060870767,2.379586420956999
1667709582317393400,3.014393310546875,-0.5631707663610577,9.492677574086189,2.396306085089594
1667709582327444200,3.0244443359375,-0.6584924041740596,9.48446913318932,2.404504442983866
1667709582337495300,3.034495361328125,-0.747887501482293,9.477116432338953,2.4073449271067977
1667709582347546400,3.04454638671875,-0.8251314846824854,9.471689731115102,2.403465163064003
1667709582357596400,3.054596435546875,-0.8846917810235172,9.47310953478515,2.3765340476490557
1667709582367647500,3.0646474609375,-0.9274771759133785,9.48045989754796,2.3304656855657697
1667709582377698300,3.0746982421875,-0.958681219407171,9.484176872244477,2.302546289765835
1667709582387749400,3.084749267578125,-0.9811173614904284,9.47969534291625,2.3115309757322073
1667709582397800200,3.09480029296875,-1.0006476991295814,9.46772375009358,2.3518710232965647
1667709582407851300,3.104851318359375,-1.024702747651562,9.450090478247404,2.4116718503952024
1667709582417902300,3.11490234375,-1.0547150240775196,9.429628704977034,2.477913962587714
1667709582427952400,3.124952392578125,-1.0907579589698464,9.407693352022767,2.544787358421087
1667709582438003200,3.135003173828125,-1.12958979392834,9.384964218342304,2.610912858496606
1667709582448054300,3.14505419921875,-1.168972759963572,9.363630922934412,2.669519068983197
1667709582458105300,3.155105224609375,-1.2164279732953756,9.34539793162942,2.711867387630045
1667709582468156400,3.165156494140625,-1.2804597890272735,9.330459890216588,2.7337363973498343
1667709582478207200,3.175207275390625,-1.3583309642150998,9.319943172377348,2.7320316392585635
1667709582488257500,3.185257568359375,-1.4397139469161628,9.31641207564175,2.7022312520176173
1667709582498308400,3.195308349609375,-1.5125311997152864,9.321601460978389,2.6439360071763396
1667709582508359400,3.205359375,-1.5747934484913944,9.3281808393687,2.5836910895720124
1667709582518410200,3.21541015625,-1.6469155586332083,9.32480639449954,2.5506933675944805
1667709582528461300,3.22546142578125,-1.7508689773216843,9.30503727966845,2.5536492947906253
1667709582538512100,3.23551220703125,-1.8748542534306645,9.273754837176202,2.5793019147023557
1667709582548562200,3.245562255859375,-2.0058890096597373,9.241381092315912,2.596857152876258
1667709582558613200,3.25561328125,-2.127974443496764,9.219013193163276,2.5791300652667877
1667709582568664300,3.265664306640625,-2.2390048148341477,9.208511088371276,2.5220184772521255
1667709582578715400,3.27571533203125,-2.3537575676955282,9.200977185735105,2.4438157320223746
1667709582588766500,3.285766357421875,-2.477168404917419,9.182066733559965,2.3924233984373506
1667709582598817300,3.2958173828125,-2.6255475330486893,9.149103206112981,2.36025847402215
1667709582608867300,3.305867431640625,-2.789253117388487,9.107826023828983,2.3319407265543934
1667709582618918400,3.31591845703125,-2.9361054743438957,9.065895930594206,2.314995290841907
1667709582628969500,3.325969482421875,-3.056593555986881,9.029539253577589,2.3010917070433496
1667709582639020300,3.336020263671875,-3.149646518215537,9.001454730343818,2.285590332659334
1667709582649071000,3.346071044921875,-3.2136516651362177,8.978248042279482,2.2877727912649513
1667709582659122200,3.3561220703125,-3.248151900631189,8.956516102942825,2.3239469513215125
1667709582669173200,3.36617333984375,-3.264088597692549,8.93231514314413,2.3937093465946613
1667709582679223300,3.376223388671875,-3.2720997624516484,8.9026810523808,2.4911890392243863
1667709582689274400,3.3862744140625,-3.2689480204224584,8.869525217232107,2.610723473404348
1667709582699325400,3.396325439453125,-3.2509339325651525,8.835761479318142,2.7442931549385188
1667709582709376300,3.406376220703125,-3.2250442890271542,8.801728861334919,2.880807365491986
1667709582719427300,3.41642724609375,-3.2092557682648297,8.759554437950253,3.0234535029292107
1667709582729478400,3.426478515625,-3.215391202279925,8.707170170718431,3.164940825720131
1667709582739528400,3.436528564453125,-3.239038327588141,8.655726983729004,3.2798473078384993
1667709582749579500,3.44657958984375,-3.2613892756059766,8.609239957842231,3.378566040743887
1667709582759630000,3.456630126953125,-3.278574219162762,8.56041776700616,3.484332354073226
1667709582769681200,3.46668115234375,-3.2900077595859765,8.507674018812178,3.600793372157216
1667709582779732200,3.476732177734375,-3.2940847997665403,8.454503569638728,3.7203164081603286
1667709582789783300,3.486783203125,-3.28929288931489,8.397705577617883,3.850905028057098
1667709582799833300,3.496833251953125,-3.2810198587492105,8.333321075990796,3.9951293745964764
1667709582809884400,3.506884521484375,-3.279556800459325,8.264349831095338,4.137078469680249
1667709582819935200,3.516935302734375,-3.3080677324116228,8.194400681078433,4.251925915087759
1667709582829985500,3.526985595703125,-3.345231634157896,8.132474093997478,4.3408138665914535
1667709582840036600,3.53703662109375,-3.373736136369407,8.07879686434567,4.418293704374134
1667709582850087700,3.547087646484375,-3.3909786553323267,8.032212807825207,4.489453691485524
1667709582860137700,3.5571376953125,-3.39116774816364,7.992379394608736,4.559850293008983
1667709582870188800,3.567188720703125,-3.382078140518069,7.954256292441487,4.632680259159207
1667709582880239600,3.577239501953125,-3.366954805666208,7.918693396151065,4.7040705478951335
1667709582890290700,3.587290771484375,-3.342282721224427,7.892846422711014,4.7647155707329505
1667709582900341800,3.597341796875,-3.2958643766596913,7.882767511767148,4.813483693294227
1667709582910392800,3.607392822265625,-3.235755360394716,7.8782754610449075,4.861384677632152
1667709582920443600,3.617443603515625,-3.179661717250943,7.86146694958508,4.925188456761837
1667709582930493700,3.62749365234375,-3.147823978963494,7.812776276174187,5.02216356087029
1667709582940544500,3.63754443359375,-3.134498925705254,7.733145690098405,5.152065367546677
1667709582950595600,3.647595703125,-3.1241713006973266,7.642963314869999,5.291033693253993
1667709582960646700,3.657646728515625,-3.1173116440609094,7.56742964271903,5.402477467697858
1667709582970697700,3.66769775390625,-3.1113477672204373,7.5302739242792125,5.457553458231687
1667709582980748500,3.67774853515625,-3.0881334803715346,7.541497329083085,5.4552405051141974
1667709582990798600,3.687798583984375,-3.0512548253074288,7.5891417083114385,5.40972846173942
1667709583000849700,3.697849609375,-3.0496254705399273,7.66336488238573,5.3049979211986065
1667709583010900700,3.707900634765625,-3.067028440761566,7.745642183578014,5.173854005506635
1667709583020951800,3.717951904296875,-3.0821865546658636,7.8221888321638104,5.048154911217093
1667709583031003000,3.7280029296875,-3.0926731696277856,7.886558720743656,4.940441555473208
1667709583041053700,3.7380537109375,-3.0908442006349564,7.936539433965087,4.860907123248279
1667709583051103500,3.748103515625,-3.0666657449290153,7.974474320083856,4.8139065948814155
1667709583061154600,3.758154541015625,-3.0192575125440952,8.001978413081169,4.798210720838606
1667709583071205600,3.76820556640625,-2.960379791639745,8.01516055073738,4.812874621485173
1667709583081256700,3.778256591796875,-2.8992218508437273,8.011147807964683,4.856585168395936
1667709583091307500,3.7883076171875,-2.8360616303145885,7.991492090380191,4.925769471520185
1667709583101358600,3.798358642578125,-2.766555547890067,7.957661716970801,5.019181914710998
1667709583111408600,3.80840869140625,-2.690106806720793,7.908857646313309,5.13650539484322
1667709583121459700,3.818459716796875,-2.607507141706347,7.8497735891819,5.268049123507738
1667709583131510800,3.8285107421875,-2.5168077568665144,7.79570765247345,5.391012655353546
1667709583141561900,3.838561767578125,-2.4052250123433767,7.760511835929751,5.4917877362668515
1667709583151612700,3.84861279296875,-2.2620580659024414,7.745329464367032,5.573450120431184
1667709583161663700,3.858663818359375,-2.076411721780896,7.74479170422852,5.6459816881567235
1667709583171714800,3.86871484375,-1.8494056316584349,7.751707767227292,5.714991511496901
1667709583181764600,3.8787646484375,-1.60344364278391,7.755846766728162,5.7832683443874116
1667709583191815700,3.888815673828125,-1.3647279717758296,7.754248683881759,5.846324812281131
1667709583201866800,3.89886669921875,-1.151160405223444,7.748014757928252,5.9002948873996734
1667709583211917600,3.90891748046875,-0.9731816000550985,7.739152821558713,5.943804358780384
1667709583221968600,3.91896875,-0.8263605880860239,7.7312547617852685,5.976221358260512
1667709583232019700,3.929019775390625,-0.7116092234641314,7.726167083257437,5.997528350183368
1667709583242069800,3.93906982421875,-0.6252017636645585,7.725666147997975,6.007793723610043
1667709583252120800,3.949120849609375,-0.5551090769911184,7.725089809414744,6.015417058095336
1667709583262171600,3.959171630859375,-0.49156365653667594,7.7104738395631305,6.039647828510403
1667709583272222700,3.96922265625,-0.4257488298455253,7.67241094315052,6.0928825750917195
1667709583282273800,3.979273681640625,-0.35403310854751613,7.609533923476934,6.17576310287416
1667709583292324900,3.989324951171875,-0.27801521480986846,7.518928354400396,6.289579451668262
1667709583302374700,3.999374755859375,-0.1942507620660588,7.401055423691869,6.430943732601404
1667709583312425700,4.00942578125,-0.10499331966284661,7.260036010673642,6.591756225848197
1667709583322476500,4.0194765625,-0.017056242568133165,7.1041463607817885,6.760267456904053
1667709583332527600,4.029527587890625,0.05530532404398545,6.947492740780115,6.920958369597792
1667709583342578700,4.03957861328125,0.12321580784013494,6.801905873715877,7.063233335635066
1667709583352629800,4.049629638671875,0.19065065521486102,6.667291067042947,7.1889692548036574
1667709583362679800,4.0596796875,0.2529278823643923,6.535254586425423,7.307314479199052
1667709583372730600,4.069730712890625,0.3075637644479051,6.399719742298126,7.4242422380119555
1667709583382781700,4.07978173828125,0.3509244750076905,6.25957535854876,7.5408865037083626
1667709583392832800,4.089832763671875,0.3795624308731407,6.112492699968814,7.65922588288486
1667709583402883800,4.0998837890625,0.3936632542768493,5.949552547043561,7.785773702958226
1667709583412934700,4.1099345703125,0.39856308208238334,5.757657517790794,7.928488813978433
1667709583422984700,4.119984619140625,0.3937421281993389,5.533254303643107,8.086930486440657
1667709583433035500,4.130035400390625,0.3713925684209913,5.282073557206988,8.254220066747068
1667709583443086600,4.140086669921875,0.3255728838691488,5.009508661958575,8.424321197342872
1667709583453137700,4.1501376953125,0.2754616578695364,4.725545297600329,8.588580616173148
1667709583463188700,4.160188720703125,0.2565424926649779,4.434226894304156,8.743124112153053
1667709583473239600,4.170239501953125,0.3021641886929981,4.130418719530105,8.889246401268244
1667709583483289600,4.18028955078125,0.4150201862886548,3.798459678287804,9.031601446804403
1667709583493340700,4.190340576171875,0.567438908666931,3.418371689170599,9.174047677755356
1667709583503391700,4.200391845703125,0.7117712090928107,2.9933000644668937,9.311493323940038
1667709583513442800,4.21044287109375,0.788953452168405,2.5378026141002774,9.439677805304527
1667709583523494000,4.220493896484375,0.7447831787914038,2.067157132831961,9.557328617694973
1667709583533544700,4.230544677734375,0.556253643916361,1.6041471148781477,9.658555534029006
1667709583543594500,4.240594482421875,0.2516252022679895,1.1596984434008597,9.734587803351879
1667709583553645600,4.2506455078125,-0.14455577958398497,0.7420566764369606,9.777465991091727
1667709583563696600,4.260696533203125,-0.6079346217170357,0.35770003355722874,9.78125018580556
1667709583573747700,4.270747802734375,-1.0845430299777536,0.008729678588020033,9.746489253547788
1667709583583798500,4.280798583984375,-1.5191012257553635,-0.30927089715935285,9.683340431195496
1667709583593849600,4.290849609375,-1.8968106491729615,-0.6130787796724587,9.601907764133811
1667709583603900700,4.300900634765625,-2.2363203980557618,-0.912750146902725,9.504532847052811
1667709583613950700,4.31095068359375,-2.556441848118603,-1.193213394185528,9.392082525914907
1667709583624001800,4.321001708984375,-2.885787199731171,-1.432969002700597,9.262246770212053
1667709583634052900,4.331052978515625,-3.2291993628799913,-1.6293175042308865,9.115261726787686
1667709583644103700,4.341103759765625,-3.5709485612526533,-1.7923912204079329,8.955781943449377
1667709583654154800,4.35115478515625,-3.8945506930381057,-1.9331404381826518,8.790099213817715
1667709583664204500,4.36120458984375,-4.194791822980344,-2.064252935823053,8.620496095871925
1667709583674255600,4.371255615234375,-4.467651317261159,-2.1949939698025585,8.449405954238772
1667709583684305700,4.3813056640625,-4.709051843439043,-2.3327291004531086,8.27971048183441
1667709583694356700,4.391356689453125,-4.936192081335187,-2.4760183580994606,8.103932474645973
1667709583704407800,4.40140771484375,-5.165903923285007,-2.6118694285690784,7.915930361178517
1667709583714458600,4.411458740234375,-5.4037698455959555,-2.725866394627094,7.716171174421906
1667709583724509700,4.421509765625,-5.640390736281871,-2.8138606121614576,7.512559988412261
1667709583734560800,4.431560791015625,-5.864273725947737,-2.8754274260193107,7.3152306591510765
1667709583744611800,4.44161181640625,-6.069034081992506,-2.915361961522698,7.130068737545609
1667709583754662000,4.451661865234375,-6.248130419948697,-2.9402742844611405,6.963192414215206
1667709583764712700,4.461712646484375,-6.396807069721818,-2.950198881626129,6.822578074866533
1667709583774763500,4.471763427734375,-6.518212266209721,-2.9447523066580295,6.70907795241475
1667709583784814600,4.481814697265625,-6.615221857109665,-2.928410535927117,6.620697658172249
1667709583794865700,4.49186572265625,-6.6968859948396675,-2.9016102072849868,6.550019609358906
1667709583804916700,4.501916748046875,-6.779041130957007,-2.859093546333909,6.4838698516249655
1667709583814966800,4.511966796875,-6.867856309485435,-2.801322909888625,6.415256918647885
1667709583825018400,4.522018310546875,-6.959640274691582,-2.7362796520918606,6.344018313342333
1667709583835069400,4.5320693359375,-7.050815752610564,-2.672905788812041,6.2699243186056615
1667709583845120500,4.54212060546875,-7.136836331984401,-2.6191201303496956,6.194848327094316
1667709583855171300,4.55217138671875,-7.216954993838072,-2.579472887355089,6.118191203871369
1667709583865222100,4.56222216796875,-7.2935595100909465,-2.550575001911819,6.038952247461676
1667709583875272200,4.572272216796875,-7.367737091457843,-2.5247601771757004,5.959229891449213
1667709583885323300,4.5823232421875,-7.439726222869753,-2.4919480408981443,5.883115789061784
1667709583895374300,4.592374267578125,-7.5126879987061015,-2.441223815833032,5.811224272805452
1667709583905425400,4.60242529296875,-7.601653399360179,-2.368125700265914,5.72513998054564
1667709583915476200,4.612476318359375,-7.708887447154521,-2.2775335751928387,5.617497936472296
1667709583925527300,4.62252734375,-7.823527971813082,-2.180130747191608,5.496346422484517
1667709583935577300,4.632577392578125,-7.934978175997734,-2.0880112664207813,5.370913870176673
1667709583945628400,4.64262841796875,-8.037026345586776,-2.0134926165312526,5.246182744136452
1667709583955679500,4.652679443359375,-8.125752676787972,-1.9642675439827142,5.126809930258989
1667709583965730300,4.662730224609375,-8.19787566371262,-1.9423884512603282,5.019198281323909
1667709583975781000,4.672781005859375,-8.249971761652827,-1.9446460209287701,4.932210902744531
1667709583985832200,4.682832275390625,-8.283433886271714,-1.9653047780759632,4.867513681906462
1667709583995882200,4.69288232421875,-8.305719952359794,-1.9961190185345707,4.816732465957105
1667709584005933300,4.702933349609375,-8.325026125854253,-2.0268989183321593,4.770325519569218
1667709584015984400,4.712984375,-8.343689325270056,-2.0507991416186093,4.727309676924348
1667709584026035200,4.72303515625,-8.359287876418232,-2.069073341716826,4.691655010697246
1667709584036086300,4.733086181640625,-8.371053717535734,-2.0922532879047093,4.660291611923277
1667709584046137300,4.743137451171875,-8.382450140818953,-2.129707843160629,4.622689611020684
1667709584056188400,4.7531884765625,-8.394851357230543,-2.17856013687402,4.577195980085432
1667709584066238500,4.763238525390625,-8.409281449121236,-2.231187272951007,4.525061011439561
1667709584076289500,4.77328955078125,-8.42633955142796,-2.281168424563855,4.4680476231023665
1667709584086340400,4.78334033203125,-8.449734455540776,-2.3228036265052854,4.401926214680075
1667709584096391200,4.79339111328125,-8.479669575077295,-2.3545485719427464,4.326856652909517
1667709584106442200,4.803442138671875,-8.5096111243546,-2.38289452259168,4.251906918126345
1667709584116493300,4.813493408203125,-8.534895787736772,-2.4177090847328304,4.180983954641222
1667709584126543400,4.82354345703125,-8.55530495403707,-2.463740183545649,4.111828293089569
1667709584136594200,4.83359423828125,-8.573591721355914,-2.517191495487094,4.040748969998956
1667709584146645200,4.843645263671875,-8.591389243853092,-2.574392515350878,3.9662215522810813
1667709584156696300,4.8536962890625,-8.608300631165504,-2.6333929858520624,3.8900881606712936
1667709584166747400,4.863747314453125,-8.62212691194415,-2.6925299422144886,3.8183231934040784
1667709584176798500,4.873798583984375,-8.63059371151626,-2.750820218619704,3.7571559002578256
1667709584186848500,4.8838486328125,-8.633893337583542,-2.809125984854996,3.706087099538743
1667709584196899300,4.8938994140625,-8.634608792376518,-2.8710595861986277,3.656629241147637
1667709584206950400,4.903950439453125,-8.636604350107907,-2.9367887804329396,3.5992668932422993
1667709584217001500,4.91400146484375,-8.64430191887319,-3.0001632282346486,3.527809969010949
1667709584227052300,4.92405224609375,-8.65946558573544,-3.054900196072459,3.4426197029814123
1667709584237103000,4.93410302734375,-8.680643982842565,-3.10082461964041,3.346892845368385
1667709584247153400,4.9441533203125,-8.70263954155147,-3.142055624695122,3.2499133573457595
1667709584257204200,4.954204345703125,-8.71899738663435,-3.1854943689271806,3.1626091679021715
1667709584267255300,4.96425537109375,-8.726689110180734,-3.2339103170499204,3.091457948619127
1667709584277306400,4.974306396484375,-8.724419996204972,-3.285542012348771,3.043040246930718
1667709584287357400,4.984357421875,-8.710390886330604,-3.3413325808927414,3.022410423617065
1667709584297408300,4.994408203125,-8.685902341762185,-3.400091059331596,3.0273531407162544
1667709584307459300,5.004459228515625,-8.654161049586534,-3.4570655769631267,3.0536177550464867
1667709584317509400,5.01450927734375,-8.619411807766555,-3.5097090796530246,3.0916122623980042
1667709584327560400,5.024560546875,-8.590327752101421,-3.5534810013622042,3.1224072136342524
1667709584337611500,5.034611572265625,-8.573314657980204,-3.580082300300896,3.138737293927371
1667709584347662300,5.044662353515625,-8.569705235311389,-3.585637596340477,3.1422505627453323
1667709584357713200,5.054713134765625,-8.57576380469799,-3.572924537500739,3.1402026903048155
1667709584367764200,5.06476416015625,-8.584542154437303,-3.5478166919901963,3.144681297023594
1667709584377814300,5.074814208984375,-8.594167476394771,-3.515365205718577,3.154817783373594
1667709584387865300,5.084865234375,-8.601850432112812,-3.481391916707158,3.1715085136726495
1667709584397916400,5.09491650390625,-8.604304255005717,-3.451078319247067,3.1978724967241283
1667709584407967200,5.10496728515625,-8.599016669991611,-3.425898285283148,3.2389065179020164
1667709584418018300,5.115018310546875,-8.584916832968592,-3.409247594733536,3.2934201983779667
1667709584428069400,5.1250693359375,-8.568947110420465,-3.401189083701372,3.3429692421838637
1667709584438120400,5.135120361328125,-8.558152744683623,-3.39020767095983,3.3815514862954617
1667709584448170500,5.14517041015625,-8.553837219572067,-3.368378116467595,3.4141289370343086
1667709584458221300,5.15522119140625,-8.552140352526306,-3.3410096325486895,3.44513227032423
1667709584468272000,5.165272216796875,-8.54696791832447,-3.3151588597163557,3.482734271226823
1667709584478323200,5.1753232421875,-8.533699855950474,-3.296330825127661,3.532783665770292
1667709584488374300,5.185374267578125,-8.513990362352132,-3.285617123411596,3.5898563830792902
1667709584498425300,5.19542529296875,-8.493083767923713,-3.273706613126397,3.6497614012047648
1667709584508475400,5.205475341796875,-8.473925478467345,-3.2495497847303745,3.715292734779417
1667709584518526200,5.215526123046875,-8.453865271735191,-3.2057290554434057,3.7981364376828073
1667709584528577300,5.225577392578125,-8.424296062901616,-3.1422321503058073,3.9150983910262585
1667709584538628400,5.23562841796875,-8.375514204075932,-3.064488108628988,4.077996458375454
1667709584548679400,5.245679443359375,-8.301130286481976,-2.9739471292212603,4.291532826071977
1667709584558730200,5.255730224609375,-8.196845151621103,-2.8690535070732235,4.555288391920924
1667709584568781300,5.26578125,-8.057546571046114,-2.750652460837364,4.866234455750883
1667709584578831400,5.275831298828125,-7.87539844430387,-2.6250942363232372,5.220858333265781
1667709584588882200,5.285882080078125,-7.641947415825724,-2.5003897060289977,5.614185450923443
1667709584598933200,5.295933349609375,-7.35196435278654,-2.3758606784321366,6.039395315054058
1667709584608984300,5.305984375,-7.004953580623865,-2.2407082577511668,6.4869286546736955
1667709584619035100,5.31603515625,-6.615926205986738,-2.080860225622356,6.933247357806563
1667709584629086200,5.326086181640625,-6.205968856045604,-1.8791962281577288,7.356966691118479
1667709584639136300,5.33613623046875,-5.792806572583317,-1.6177340339429676,7.745754411780834
1667709584649187300,5.346187255859375,-5.3733606788069,-1.2909838133901357,8.101281083354353
1667709584659238400,5.35623828125,-4.937092245045304,-0.8908282379519193,8.42626414810419
1667709584669289500,5.36628955078125,-4.4844364478453995,-0.4012776017380878,8.712013519096374
1667709584679340300,5.37634033203125,-4.007155620215833,0.18390229519950224,8.948701629799604
1667709584689391400,5.386391357421875,-3.4879406076982615,0.8591900408245623,9.12504486965537
1667709584699442400,5.3964423828125,-2.917760547097027,1.5978705188266933,9.22517697649002
1667709584709492200,5.4064921875,-2.311764492227137,2.3503924751766023,9.235897107946872
1667709584719543300,5.416543212890625,-1.6868454179614782,3.0626608932018278,9.162153826344012
1667709584729594000,5.426593994140625,-1.0512953518271446,3.682169048334658,9.028111851122976
1667709584739645200,5.436645263671875,-0.42546475220713764,4.180647854554653,8.860673802256583
1667709584749696300,5.4466962890625,0.14033852721513249,4.5691436065331095,8.676036781308055
1667709584759747300,5.456747314453125,0.5756400065075605,4.889193598794937,8.481438338315487
1667709584769798400,5.46679833984375,0.880190451016277,5.195236400753259,8.27074040891528
1667709584779848400,5.476848388671875,1.0965328891094774,5.529341514113545,8.024609931606054
1667709584789899300,5.486899169921875,1.232595629568398,5.904346793138981,7.732386980685591
1667709584799950300,5.496950439453125,1.2859016878202556,6.316826355034112,7.390166365408897
1667709584810001400,5.50700146484375,1.255659255900234,6.756122612184286,6.996320776835083
1667709584820052500,5.517052490234375,1.1388399989631026,7.20554512655139,6.5538944049656385
1667709584830103300,5.527103271484375,0.9304520270057022,7.646518961524963,6.069215283778309
1667709584840153300,5.5371533203125,0.6339213689539581,8.056804228246211,5.554857648164034
1667709584850204400,5.547204345703125,0.269817258774396,8.410310792168975,5.036293208509683
1667709584860255500,5.55725537109375,-0.1452117136089131,8.691172391119599,4.540132031582296
1667709584870306600,5.567306640625,-0.5934987576726823,8.894888791069388,4.0864530288144945
1667709584880357400,5.577357421875,-1.0597940078422428,9.023408203476667,3.6912507649347184
1667709584890408400,5.587408447265625,-1.5275615955866872,9.084308954641223,3.363372271004319
1667709584900459500,5.59745947265625,-1.9613938882425426,9.091481622749566,3.1093866962805388
1667709584910509300,5.60750927734375,-2.3231600387275217,9.065795977351069,2.929960395717621
1667709584920560400,5.617560302734375,-2.5893364019826053,9.029770724245905,2.8158389264971015
1667709584930611500,5.627611572265625,-2.770671458776295,8.99662248788178,2.748554319514334
1667709584940662300,5.637662353515625,-2.8963366507962345,8.973764174863696,2.693172916293144
1667709584950713300,5.64771337890625,-2.9917893676429985,8.9652342469275,2.6161349770590663
1667709584960764400,5.657764404296875,-3.074640961591899,8.971263590219616,2.4966791610732675
1667709584970815500,5.6678154296875,-3.1585733365148303,8.98420139772594,2.3404991499327124
1667709584980865500,5.677865478515625,-3.2543244517862795,8.991429010891913,2.1757661222413183
1667709584990916600,5.68791650390625,-3.370845091103017,8.980685498559474,2.03840040942505
1667709585000967400,5.697967529296875,-3.515062423379719,8.94661839378476,1.9423549873821435
1667709585011018500,5.7080185546875,-3.675225220546126,8.894524049410224,1.8842915054701268
1667709585021069600,5.718069580078125,-3.809946702463925,8.842447240692376,1.861674015470594
1667709585031120600,5.72812060546875,-3.8858100449606776,8.807726055923103,1.8694421652540563
1667709585041170400,5.73817041015625,-3.9040702165335412,8.791248383852839,1.9085532555453477
1667709585051221200,5.74822119140625,-3.9040029965162275,8.772953433227539,1.9910854082815348
1667709585061272300,5.758272216796875,-3.920367271339893,8.737557125675679,2.1109743549875915
1667709585071323400,5.768323486328125,-3.9360590537294744,8.696371713328361,2.2474325975701213
1667709585081374500,5.77837451171875,-3.9603675655558703,8.633349732226133,2.4394972843013703
1667709585091425500,5.788425537109375,-4.024275097320974,8.5398250608325,2.6546169756665825
1667709585101476400,5.798476318359375,-4.091070459482074,8.458844229191541,2.807395507800579
1667709585111526400,5.8085263671875,-4.149177196013928,8.399954817849396,2.8974945886597037
1667709585121577500,5.818577392578125,-4.207505466341972,8.351827623540162,2.9519907334789632
1667709585131628500,5.828628662109375,-4.254616761606932,8.314239943423866,2.9903216331779956
1667709585141679600,5.8386796875,-4.274345544427633,8.289668981269001,3.0301413101300594
1667709585151730400,5.84873046875,-4.264268679310381,8.276769167685508,3.07919994007051
1667709585161781500,5.858781494140625,-4.2435491318866605,8.265343518307805,3.137956080421805
1667709585171831300,5.868831298828125,-4.254474138265848,8.229678915208577,3.2159348076373337
1667709585181882400,5.87888232421875,-4.286936730453371,8.186333694478868,3.2827588113710284
1667709585191933400,5.888933349609375,-4.308017512404918,8.166868531030415,3.303579773342609
1667709585201984500,5.898984619140625,-4.309416857808828,8.169449195173382,3.295361103312671
1667709585212035300,5.909035400390625,-4.306349286931753,8.176733506962657,3.281274418032169
1667709585222086400,5.91908642578125,-4.304402536778151,8.180748587822913,3.2738153341978786
1667709585232137500,5.929137451171875,-4.290085549873114,8.185290907427667,3.2812443151548503
1667709585242187500,5.9391875,-4.2601571523383255,8.188173769387602,3.3128909147843717
1667709585252238600,5.949238525390625,-4.216902532501519,8.182871571326256,3.3806402166694403
1667709585262289400,5.959289306640625,-4.156917434877157,8.166584453392028,3.492468314255774
1667709585272340500,5.969340576171875,-4.073882593315839,8.138640799933672,3.651903673930466
1667709585282391600,5.9793916015625,-3.9604324474856254,8.093903832584619,3.8696366165339944
1667709585292442600,5.989442626953125,-3.8130554821342226,8.031539438608288,4.138280246685445
1667709585302493400,5.999493408203125,-3.622143618699908,7.974865365228056,4.4104397760033605
1667709585312543500,6.00954345703125,-3.399217783628404,7.920085142770409,4.678457383210957
1667709585322594300,6.01959423828125,-3.1654028902739286,7.850415394216776,4.9519268260836595
1667709585332645400,6.029645263671875,-2.9544018862739203,7.783065028521418,5.183222722354531
1667709585342696400,6.039696533203125,-2.75906226952523,7.737135636517405,5.356741552439332
1667709585352747500,6.04974755859375,-2.570211138013005,7.715159367030859,5.480942517125606
1667709585362798300,6.05979833984375,-2.3804544359631836,7.717239680436253,5.563094730633497
1667709585372848400,6.069848388671875,-2.1926390772394835,7.7274273124516,5.625796978262066
1667709585382899500,6.0798994140625,-2.0015546337172387,7.726510782128572,5.6978229345530265
1667709585392950500,6.089950439453125,-1.8098707629971205,7.701918777185678,5.794408747082948
1667709585403001600,6.100001708984375,-1.6211869508758185,7.650841500899195,5.916651563438773
1667709585413052700,6.110052734375,-1.418370422375202,7.575489615055918,6.063873338228464
1667709585423103200,6.120103271484375,-1.1803394456956535,7.475044789010286,6.237057821792364
1667709585433154300,6.130154296875,-0.9123491648864,7.3450593957036725,6.433358977049589
1667709585443204400,6.140204345703125,-0.6378990404132753,7.1895333184272046,6.638831280755996
1667709585453255400,6.15025537109375,-0.3626511531585827,7.024938384032249,6.832943986058234
1667709585463306500,6.160306396484375,-0.06559107353840954,6.869191357481479,6.998593397942185
1667709585473357300,6.170357421875,0.26997630352731794,6.710994015169144,7.145633386424183
1667709585483408400,6.180408447265625,0.6266882758952677,6.522360033538937,7.29633248193562
1667709585493459500,6.19045947265625,0.9770051769312471,6.297970263394713,7.453283039057254
1667709585503510500,6.200510498046875,1.2988260513231158,6.072513156279921,7.589993941226601
1667709585513560600,6.210560546875,1.5744024033471942,5.883561779263616,7.686049007880687
1667709585523611600,6.220611572265625,1.8052927875570952,5.749463105419278,7.736599045422673
1667709585533662500,6.230662353515625,1.9850658557310699,5.6807449585020535,7.7433216316759585
1667709585543713300,6.24071337890625,2.1384886771179734,5.657918794187903,7.719144637274741
1667709585553764400,6.250764404296875,2.294389579056203,5.661906402519345,7.67131028843224
1667709585563815400,6.2608154296875,2.4620567605033514,5.6662190050214525,7.615944959563016
1667709585573865500,6.270865478515625,2.6629621946856377,5.617310304945707,7.5845134639889
1667709585583916500,6.28091650390625,2.8534581707954403,5.500273825061321,7.600996981278062
1667709585593967400,6.29096728515625,2.9941937984362244,5.345867691725492,7.6568205753087994
1667709585604018400,6.301018310546875,3.078004008284211,5.191847342836857,7.729230562481284
1667709585614069500,6.311069580078125,3.123086720331013,5.062698984876275,7.7965242295533415
1667709585624120600,6.32112060546875,3.160106829692423,4.970704591789842,7.840678428578376
1667709585634170600,6.331170654296875,3.2016657515272495,4.912896545943617,7.860227178657055
1667709585644221400,6.341221435546875,3.237617062613368,4.874152389268577,7.869614015683531
1667709585654272500,6.3512724609375,3.2537831845164296,4.837529462531209,7.885531131261587
1667709585664323300,6.3613232421875,3.2669916256576776,4.7983919226244085,7.903960521921515
1667709585674374400,6.37137451171875,3.3168808612033724,4.771773964811861,7.899293114632368
1667709585684425500,6.381425537109375,3.42514892822057,4.768969428785145,7.854660776701569
1667709585694476300,6.391476318359375,3.583336918182671,4.798674246697128,7.765489039820432
1667709585704526300,6.4015263671875,3.7715395226582884,4.858850775240361,7.6378960946083065
1667709585714577400,6.411577392578125,3.9765424552872775,4.936608845442533,7.482472308662533
1667709585724628500,6.42162841796875,4.176832095658779,5.015462601926923,7.3191247439801685
1667709585734679600,6.431679443359375,4.348954502949119,5.092383344522118,7.164118891185522
1667709585744730400,6.44173046875,4.464615895088016,5.168263638153672,7.037517879620194
1667709585754781400,6.451781494140625,4.488892550471425,5.252504348373413,6.95926910329163
1667709585764832500,6.46183251953125,4.431398685140907,5.363928833594918,6.910962460762262
1667709585774882600,6.471882568359375,4.291494832149148,5.514117641496658,6.880988178259134
1667709585784933400,6.481933349609375,4.035076185059547,5.7119362155795095,6.874763604655861
1667709585794984400,6.491984375,3.6581273707509037,5.97049947348237,6.865974149000644
1667709585805035300,6.50203515625,3.3725171159684657,6.263382934138178,6.750301943206787
1667709585815086300,6.51208642578125,3.4444770212858913,6.490639784151315,6.494423394343257
1667709585825137200,6.52213720703125,3.6750434342384337,6.6126768488019705,6.239947698014975
1667709585835187000,6.53218701171875,3.9018253602162,6.630320642042159,6.081528237384557
1667709585845238000,6.542238037109375,4.094474422706663,6.572620148223638,6.017168870198726
1667709585855289000,6.5522890625,4.266834145884215,6.489550819870829,5.9875078914284705
1667709585865340000,6.56233984375,4.41350822366327,6.433294679641723,5.941720538243651
1667709585875391000,6.572390869140625,4.527450829185545,6.425609970358014,5.8637973406076425
1667709585885442000,6.582442138671875,4.592167923767865,6.467216238465904,5.7669350492239
1667709585895493000,6.5924931640625,4.584606548602879,6.55758507617712,5.6700850327998396
1667709585905543200,6.602543212890625,4.5119463860616085,6.690169838327169,5.572642895701527
1667709585915594000,6.612593994140625,4.417701291438937,6.845342279860377,5.458531363353133
1667709585925645000,6.62264501953125,4.3644373187631365,6.993602750048041,5.31146273329854
1667709585935696100,6.632696044921875,4.401495129786431,7.109619239234924,5.123529593414068
1667709585945747200,6.642747314453125,4.496352803349494,7.190619944620132,4.924246207475662
1667709585955798300,6.65279833984375,4.54393697682321,7.259166242101788,4.777815875324607
1667709585965848000,6.66284814453125,4.4909971215352416,7.340818104872107,4.702523902975022
1667709585975899000,6.67289892578125,4.344216660772264,7.44816321182549,4.671512970900535
1667709585985950000,6.682949951171875,4.118049944083392,7.587053796121477,4.652814992432296
1667709585996001000,6.6930009765625,3.8393098673313855,7.756374589994549,4.611804352129996
1667709586006052000,6.703052001953125,3.5345512599647044,7.952920659923553,4.519778979383409
1667709586016103000,6.71310302734375,3.218684983128309,8.171008699575067,4.3640646860584615
1667709586026154000,6.723154052734375,2.9006574366047975,8.400972470459342,4.144901126129925
1667709586036204000,6.7332041015625,2.5882088592573997,8.633886323320866,3.8636218862891196
1667709586046255000,6.743255126953125,2.2835597036145625,8.858036439490318,3.5342546151056884
1667709586056306200,6.75330615234375,1.9854118926897644,9.061982556542754,3.1794600571990013
1667709586066357200,6.763357177734375,1.7098801104597747,9.236151959490776,2.8178385758817193
1667709586076408000,6.773407958984375,1.4801909187331794,9.379696507072449,2.449633039999008
1667709586086459100,6.783459228515625,1.2751922238878906,9.498619239094852,2.078581174774468
1667709586096510200,6.79351025390625,1.0512093540441245,9.597289456683397,1.7197141067318618
1667709586106560000,6.80356005859375,0.7786095336128026,9.676219785535334,1.3910161131121217
1667709586116611000,6.813611083984375,0.4533114115644246,9.733122406974434,1.109610324282199
1667709586126662000,6.823661865234375,0.10758636836335063,9.765746911725401,0.8882559032458811
1667709586136713000,6.833712890625,-0.20649030337622387,9.776708450722694,0.7373877347778528
1667709586146764000,6.843763916015625,-0.4412369428891688,9.775046070468425,0.6512685173351317
1667709586156815000,6.853815185546875,-0.5924607198618352,9.772675249683857,0.5605268277235329
1667709586166865200,6.863865234375,-0.6742902042213827,9.775218504425883,0.40104171062298116
1667709586176916200,6.873916259765625,-0.760013700344786,9.77585680232942,0.159360449541267
1667709586186967000,6.883967041015625,-0.9062767131049185,9.764206696546077,-0.09646560195004567
1667709586197018000,6.89401806640625,-1.1001996679887176,9.739016725710034,-0.33389669477399436
1667709586207069200,6.904069091796875,-1.3146047813437878,9.702149176561832,-0.5572274208519608
1667709586217120300,6.914120361328125,-1.5348770331665873,9.654504797333479,-0.7778687982480973
1667709586227171000,6.924171142578125,-1.750337646923959,9.59519628379643,-1.019267059403658
1667709586237221000,6.93422119140625,-1.9522122183993458,9.520924009883403,-1.308152682594955
1667709586247272000,6.94427197265625,-2.127898017259687,9.432953465485573,-1.6315126761876046
1667709586257323000,6.954322998046875,-2.270038689392805,9.337254957184195,-1.9577998092733322
1667709586267374000,6.9643740234375,-2.376938975188136,9.244698254039884,-2.248576945299655
1667709586277425200,6.974425048828125,-2.440222968227416,9.166604960533975,-2.4877821533903477
1667709586287476000,6.98447607421875,-2.462516194708645,9.105117349392176,-2.683885447987914
1667709586297527000,6.994527099609375,-2.4766285989522934,9.056502663826942,-2.831334601792693
1667709586307577000,7.0045771484375,-2.532495739863813,9.011929947128891,-2.922662347663939
1667709586317628200,7.014628173828125,-2.648358499793708,8.962050940716265,-2.972914863564074
1667709586327679200,7.02467919921875,-2.804685664319992,8.903663633677363,-3.0048125153452157
1667709586337730000,7.03472998046875,-2.957189178904891,8.84917274955511,-3.0195290229618545
1667709586347781000,7.044781005859375,-3.0743481161251665,8.808653692162036,-3.020992958034575
1667709586357832000,7.05483203125,-3.1472067238479853,8.783512821164727,-3.0191683729559182
1667709586367882000,7.064882080078125,-3.1819056967854498,8.770325422811508,-3.0211347045928236
1667709586377933000,7.07493310546875,-3.2084879987627266,8.760053619644045,-3.0228198812007903
1667709586387984100,7.084984130859375,-3.2484535139262674,8.743999725943803,-3.0266160586133597
1667709586398035000,7.095034912109375,-3.301135595060885,8.720379196381568,-3.037742432783544
1667709586408086000,7.1050859375,-3.346102864034474,8.695660934710503,-3.059322396428883
1667709586418137000,7.11513720703125,-3.355462813054025,8.676990721032023,-3.101788203975558
1667709586428188200,7.125188232421875,-3.308011618310213,8.668972834271193,-3.174327662746608
1667709586438238200,7.13523828125,-3.2206314410209655,8.669535144329071,-3.261455034318566
1667709586448289300,7.145289306640625,-3.1142569326654073,8.682270707261562,-3.3301614907979964
1667709586458340000,7.155340087890625,-2.983589694574475,8.71030437709093,-3.37626711615175
1667709586468391200,7.16539111328125,-2.828296549271047,8.752512702745198,-3.400681718701124
1667709586478442000,7.17544189453125,-2.653161516161263,8.8073408559978,-3.4002745992049572
1667709586488493000,7.1854931640625,-2.4558970688298345,8.870311399173737,-3.384748821032047
1667709586498543900,7.1955439453125,-2.230912547662854,8.936948648163677,-3.365165876422822
1667709586508594000,7.205593994140625,-1.9716152763970196,9.002239158719778,-3.353030909731984
1667709586518645000,7.21564501953125,-1.6648887299582362,9.061684450379014,-3.359226257240772
1667709586528696000,7.225696044921875,-1.3067485148854554,9.108167969134449,-3.3917639604911205
1667709586538747100,7.2357470703125,-0.9079864396322518,9.140638160106539,-3.4343422885015604
1667709586548798200,7.245798095703125,-0.48888972461968655,9.161437202507257,-3.464023141016066
1667709586558849000,7.25584912109375,-0.07736924441452138,9.1598081400007,-3.501758997431397
1667709586568900000,7.265900146484375,0.26756195412827655,9.125297967633605,-3.5815810144260523
1667709586578950100,7.2759501953125,0.5566339119382202,9.095487351259589,-3.6239015682831406
1667709586589001200,7.286001220703125,0.8306536821700632,9.090757400128245,-3.583092295771837
1667709586599052000,7.296052001953125,1.0726636454831808,9.087835375201701,-3.525770864398777
1667709586609102800,7.306102783203125,1.2631973963201044,9.080294458302856,-3.481811018902063
1667709586619154000,7.31615380859375,1.4320220772393046,9.068090810289979,-3.448104564133286
1667709586629205000,7.326205078125,1.632221555109322,9.051264178651572,-3.403067737054825
1667709586639255000,7.336255126953125,1.881513419058919,9.031716013094782,-3.3254224795773624
1667709586649306000,7.34630615234375,2.1677534961774945,9.009761370918154,-3.208645527411997
1667709586659357200,7.356357177734375,2.4634669195622205,8.985631138268113,-3.0594311175003646
1667709586669408000,7.366407958984375,2.734310105584562,8.962498684483766,-2.8926772515058516
1667709586679459000,7.376458984375,2.949016393843293,8.946206305852533,-2.727469153648615
1667709586689510100,7.38651025390625,3.088382778957486,8.940582620751858,-2.588102476273477
1667709586699561200,7.396561279296875,3.15916224231869,8.943938360920548,-2.4891782839238643
1667709586709611300,7.406611328125,3.194813693675399,8.950638150820135,-2.4186101252257823
1667709586719661800,7.416661865234375,3.235964034709334,8.953867634260654,-2.3509940943315626
1667709586729713000,7.426712890625,3.3062484080299734,8.948480096003413,-2.272399573305249
1667709586739764000,7.436763916015625,3.4102146862000224,8.931372893857956,-2.1843599091939625
1667709586749815000,7.44681494140625,3.551164833374321,8.898912055236101,-2.090214621683955
1667709586759866000,7.4568662109375,3.7325545429646967,8.847051519617438,-1.9920150903470812
1667709586769917000,7.4669169921875,3.9407694233775135,8.776518432232738,-1.9009043482273815
1667709586779967000,7.476967041015625,4.151643293866515,8.693602248615026,-1.8318167834758758
1667709586790018000,7.48701806640625,4.338100515979528,8.609768950152397,-1.7953154372915625
1667709586800069000,7.497069091796875,4.483108998633921,8.535999365064502,-1.7913085397377608
1667709586810120200,7.5071201171875,4.578082407531142,8.480794779714941,-1.8131996151588856
1667709586820171000,7.5171708984375,4.622859122368693,8.446949793258309,-1.8570298429265617
1667709586830222300,7.527222412109375,4.625863564881682,8.43131733984053,-1.9195432899847626
1667709586840272400,7.5372724609375,4.598299850651622,8.427728375437855,-1.9998538211487233
1667709586850323200,7.5473232421875,4.544671136316657,8.433922553902864,-2.0941101678177714
1667709586860374300,7.557374267578125,4.462188375680149,8.45269096725881,-2.1934642760172487
1667709586870425300,7.56742529296875,4.344651837319136,8.489075116804242,-2.2869171973489224
1667709586880476200,7.57747607421875,4.182918722096085,8.548444420617818,-2.3659480639658867
1667709586890527200,7.58752734375,3.968992478299141,8.633099556857347,-2.4263268370829523
1667709586900578300,7.597578369140625,3.7338565654739737,8.72951585803926,-2.454434010539949
1667709586910628400,7.60762841796875,3.587232756577432,8.804839686831832,-2.403526976253837
1667709586920679400,7.617679443359375,3.648729720069468,8.822586940446495,-2.240332264045626
1667709586930730200,7.627730224609375,3.862347628569603,8.775905853292345,-2.058178876606375
1667709586940781300,7.63778125,4.061458872811496,8.71019390245378,-1.951278590811044
1667709586950832400,7.647832275390625,4.202121727477014,8.657702083194255,-1.8859300664573906
1667709586960883500,7.657883544921875,4.301543640215694,8.622126327422261,-1.823753888529539
1667709586970934300,7.667934326171875,4.365676505169272,8.600869604381918,-1.7709559259302914
1667709586980984300,7.677984375,4.394959882798791,8.590469206398724,-1.7488586604125798
1667709586991035100,7.68803515625,4.393796684238314,8.583996795514226,-1.783232346918434
1667709587001086200,7.698086181640625,4.379904060225188,8.571652862247824,-1.8744595550246537
1667709587011137300,7.70813720703125,4.385403826685249,8.540561558413504,-1.9993512784540652
1667709587021188400,7.718188232421875,4.439054460591078,8.487033381843567,-2.106050488719344
1667709587031239200,7.7282392578125,4.515066563908755,8.43840525227487,-2.139593131228536
1667709587041290200,7.738290283203125,4.5816275327920915,8.407096506297588,-2.121278745250404
1667709587051340300,7.74834033203125,4.617276646061241,8.371662789344787,-2.1832051862008868
1667709587061391400,7.758391357421875,4.5883869439244265,8.333922549015282,-2.3796729301966724
1667709587071442400,7.7684423828125,4.513530732643604,8.315012681362033,-2.5805016458809376
1667709587081493500,7.778493408203125,4.408820650368929,8.337966271448135,-2.6853388616666196
1667709587091544300,7.78854443359375,4.277112671053409,8.410677871915697,-2.6715470676794646
1667709587101595400,7.798595458984375,4.121343724931776,8.522944653180241,-2.558181677523255
1667709587111646500,7.808646484375,3.9312677277997135,8.661109845811128,-2.3876114681109786
1667709587121696300,7.8186962890625,3.6958702414289113,8.813876979768276,-2.1969389663904906
1667709587131747300,7.828747314453125,3.414563236798346,8.968394756785035,-2.0196632679902016
1667709587141798100,7.838798095703125,3.1100732172399757,9.108203040447831,-1.8810814573824404
1667709587151849200,7.84884912109375,2.8129434973165393,9.224587778425215,-1.7789711823426186
1667709587161900300,7.858900390625,2.5360721370458603,9.319503611916303,-1.6986907540559768
1667709587171951400,7.868951416015625,2.286459370578825,9.39651261731684,-1.6272855600118636
1667709587182001400,7.87900146484375,2.066327550140023,9.458910913562773,-1.558742477400601
1667709587192052500,7.889052490234375,1.8720144999600945,9.50899274907112,-1.4983325784929096
1667709587202103300,7.899103271484375,1.696294652699679,9.548379587563872,-1.456508868242055
1667709587212154400,7.909154296875,1.5289900209546088,9.579438158172369,-1.4376837562628089
1667709587222205400,7.919205322265625,1.3619196363568304,9.604560324469208,-1.4380495208352804
1667709587232256500,7.929256591796875,1.1907133940633385,9.625517187780142,-1.4498394734807312
1667709587242307300,7.939307373046875,1.0126008795127273,9.643279638963937,-1.4670333309963344
1667709587252357000,7.949357177734375,0.8246271884221583,9.658253920733928,-1.4861062802568077
1667709587262408200,7.959408203125,0.6233253753334284,9.670759182041882,-1.5027549249798058
1667709587272459300,7.969459228515625,0.40806214731168,9.680492056027054,-1.51391388624534
1667709587282510300,7.97951025390625,0.18296925213309004,9.686587450292706,-1.518859525953978
1667709587292561400,7.9895615234375,-0.045559019755083134,9.688146954694389,-1.519237565486133
1667709587302612200,7.9996123046875,-0.2717626572211273,9.68420903072357,-1.5207251736953853
1667709587312663300,8.009663330078125,-0.4921635221259668,9.67397405243516,-1.5304950186900794
1667709587322713300,8.01971337890625,-0.7038871778447181,9.657165540975331,-1.5537372164592147
1667709587332764400,8.029764404296875,-0.9020753158923238,9.63417220340073,-1.5935409651897847
1667709587342815500,8.0398154296875,-1.0793399814419449,9.606548867937923,-1.6491329424217342
1667709587352866300,8.0498662109375,-1.23209732465744,9.576202244991064,-1.7171723132945595
1667709587362917400,8.05991748046875,-1.3619237280100582,9.543963524687289,-1.7967489772260188
1667709587372968400,8.069968505859375,-1.4755232191830872,9.509287348103523,-1.888564798875153
1667709587383019300,8.080019287109375,-1.5827628199353814,9.470915239611267,-1.9917317433610557
1667709587393069300,8.0900693359375,-1.6903971190936862,9.427833053731918,-2.1044944914489983
1667709587403120400,8.100120361328125,-1.799715718077123,9.37999344419241,-2.2242117348499595
1667709587413171200,8.110171142578125,-1.9086185758665204,9.328286053308844,-2.34747410351187
1667709587423222300,8.12022216796875,-2.020308580156416,9.273407631173729,-2.468325465509295
1667709587433273300,8.1302734375,-2.1468903024993837,9.21542364423871,-2.57628198235929
1667709587443324400,8.140324462890625,-2.299139696192741,9.15460706422627,-2.660363118103146
1667709587453375200,8.150375244140625,-2.473829615883529,9.091966191396116,-2.7178473388224837
1667709587463425300,8.16042529296875,-2.6499410928100344,9.030699529528617,-2.755843015217781
1667709587473476400,8.170476318359375,-2.8008579227253794,8.976578647762537,-2.7832760888054966
1667709587483527400,8.18052734375,-2.910291234129667,8.934437542125583,-2.806496220873296
1667709587493578500,8.19057861328125,-2.9809502859815953,8.904274459052086,-2.8281109635710715
1667709587503629300,8.20062939453125,-3.0294755396977067,8.881559353896975,-2.8479057973653075
1667709587513680100,8.21068017578125,-3.072727821446955,8.861513760212063,-2.8639664130672813
1667709587523731200,8.220731201171875,-3.1173288874566554,8.841859211671352,-2.876484533856809
1667709587533781200,8.23078125,-3.1550635748282074,8.822460683718322,-2.8948487503260374
1667709587543832300,8.240832275390625,-3.168518684206903,8.806162459868192,-2.9295711041390895
1667709587553883400,8.25088330078125,-3.1454066886886953,8.798566013389825,-2.976920007552206
1667709587563934200,8.260934326171874,-3.084067546106875,8.806142586123944,-3.018406156411767
1667709587573985300,8.2709853515625,-2.986153699843585,8.833235175710916,-3.03763780336529
1667709587584036400,8.281036376953125,-2.8553008760526777,8.87852685433328,-3.0314000780194994
1667709587594087400,8.29108740234375,-2.6947040713831782,8.937506866568327,-3.0049875796511767
1667709587604137500,8.301137451171876,-2.504695294268429,9.006065439009665,-2.9643983796313402
1667709587614188500,8.3111884765625,-2.285684002292156,9.080811760175228,-2.9128827119275926
1667709587624239000,8.321239013671875,-2.039145090312511,9.157803814440966,-2.854276209180057
1667709587634290200,8.331290283203124,-1.7623912189416586,9.23353096333742,-2.7939696245163677
1667709587644341200,8.34134130859375,-1.4533590259090066,9.304737419939041,-2.734956586794555
1667709587654392300,8.351392333984375,-1.1299043397702275,9.367592227780818,-2.6724375867784023
1667709587664443100,8.361443115234374,-0.8177843367900699,9.420804178008437,-2.5980919553682207
1667709587674493400,8.371493408203126,-0.5298828292652964,9.464013789659738,-2.514367670238018
1667709587684544300,8.381544189453125,-0.26269418369513003,9.496837616375089,-2.4313481723763046
1667709587694595300,8.39159521484375,-0.0027664108147902877,9.520054825833439,-2.3534929254099723
1667709587704646400,8.401646484375,0.26974075947208326,9.534297870719433,-2.2792073536239563
1667709587714697500,8.411697509765625,0.5685644420981407,9.538857141458987,-2.203936131801456
1667709587724748300,8.421748291015625,0.8846792138028889,9.53265887134075,-2.1251256299369037
1667709587734799400,8.43179931640625,1.190402647613734,9.517762915503978,-2.04095477008298
1667709587744850400,8.441850341796876,1.4666634747706353,9.49873672799468,-1.9476270825661717
1667709587754900200,8.451900146484375,1.7093121013134718,9.479888819661737,-1.8385710800416766
1667709587764951300,8.461951416015625,1.9197626318238674,9.463779396381973,-1.7093192617066204
1667709587775002400,8.47200244140625,2.101801891364157,9.450478016260266,-1.562464712794125
1667709587785053200,8.48205322265625,2.25834021442309,9.438522790050506,-1.40874612333104
1667709587795104300,8.492104248046875,2.392079553435743,9.42693230549991,-1.2574934855900703
1667709587805155300,8.5021552734375,2.508494394290447,9.414459777417779,-1.1161541199024767
1667709587815205400,8.512205322265626,2.619516143929958,9.397995549350977,-0.9930785790495574
1667709587825256400,8.52225634765625,2.740243879547715,9.374086850497125,-0.8876669243767857
1667709587835307800,8.532307861328125,2.878205658560991,9.340765595653652,-0.7977730107009411
1667709587845358800,8.54235888671875,3.0338956942275166,9.297356662037968,-0.7246038757242262
1667709587855410000,8.552409912109376,3.2068922540038822,9.242978006118536,-0.6735006612788885
1667709587865461000,8.5624609375,3.392817268936336,9.178266756755113,-0.6469876251455396
1667709587875511800,8.57251171875,3.5856574700847266,9.104891139420866,-0.6437497392028569
1667709587885563000,8.58256298828125,3.77770973572582,9.02591872499287,-0.6573005640409887
1667709587895613000,8.592613037109375,3.9581592418566345,8.946614886653423,-0.6792933462709188
1667709587905664000,8.6026640625,4.11974184269309,8.87134775648415,-0.7051953378338366
1667709587915715000,8.612715087890624,4.2547450641617175,8.80405993463099,-0.7456921103298664
1667709587925765600,8.622765625,4.358304515096545,8.74809079464972,-0.8040338246613741
1667709587935816700,8.632816650390625,4.428334913656116,8.705170521333812,-0.8832881978359073
1667709587945867800,8.64286767578125,4.466282951517403,8.67500100851953,-0.9833923937503248
1667709587955918800,8.6529189453125,4.478026580803096,8.65532424814701,-1.0968342101436108
1667709587965969000,8.662968994140625,4.466757875552773,8.64405992681086,-1.2242026258848606
1667709587976020000,8.67302001953125,4.430375187312066,8.642115807005762,-1.3623412227697669
1667709587986070800,8.68307080078125,4.361267164294421,8.654507671067119,-1.4997424452908337
1667709587996121900,8.693121826171875,4.25197004649043,8.68529619256258,-1.6299520027421415
1667709588006173000,8.7031728515625,4.111704666709899,8.729713426437973,-1.74823775203526
1667709588016224000,8.71322412109375,3.99195132908225,8.769476697027683,-1.8251105638355016
1667709588026274800,8.72327490234375,3.965193086016178,8.79005069850087,-1.784006253900379
1667709588036324900,8.733324951171875,4.094268671001494,8.758511650899052,-1.6418987533845006
1667709588046375700,8.743375732421875,4.286528734174371,8.68840818710327,-1.5190886585347354
1667709588056426800,8.7534267578125,4.439840642532706,8.626475170281529,-1.4290259641632437
1667709588066477800,8.763477783203125,4.548941068720818,8.582503342086076,-1.3483974530912934
1667709588076529000,8.77352880859375,4.626830656348169,8.55246885382831,-1.272065616299957
1667709588086579700,8.783579833984374,4.675241928295791,8.534961838710307,-1.2111767017036676
1667709588096630800,8.793630859375,4.702851235233247,8.523165017932653,-1.1871100358091293
1667709588106681900,8.803681884765625,4.72539332190901,8.506730600482225,-1.2151355223320424
1667709588116732000,8.81373193359375,4.751763442440331,8.479499479207396,-1.2996917282417415
1667709588126783000,8.823782958984374,4.800147241859138,8.43283066701293,-1.4199737659186125
1667709588136833800,8.833833740234375,4.854892685264349,8.380970715916156,-1.5361518754079937
1667709588146884900,8.843884765625,4.862052786152065,8.366109831392764,-1.593430198291689
1667709588156936000,8.85393603515625,4.830004035462439,8.385727555054427,-1.5877788945317268
1667709588166987000,8.863987060546876,4.793106091175973,8.4044831089288,-1.6003690576441585
1667709588177038000,8.8740380859375,4.75958814471662,8.408010114011168,-1.679907289261371
1667709588187088000,8.884087890625,4.701773376868665,8.417910745778679,-1.7895482520669697
1667709588197138700,8.894138671875,4.602896238531172,8.455421853527426,-1.8680374130226671
1667709588207189800,8.904189697265625,4.462325738324225,8.528961721512674,-1.8747892253704368
1667709588217240800,8.91424072265625,4.281921240378916,8.633194249403477,-1.8175614636301993
1667709588227292000,8.9242919921875,4.058147556306421,8.760012118589877,-1.721634845661372
1667709588237342700,8.9343427734375,3.7812951929971574,8.905211447641253,-1.60294942952618
1667709588247393800,8.944393798828125,3.448183474588394,9.061509678333998,-1.4729232658177613
1667709588257443800,8.95444384765625,3.0877070716530084,9.20947613401115,-1.3498042511492967
1667709588267495000,8.964494873046876,2.7391914478853345,9.333417570978403,-1.2467976117916404
1667709588277546000,8.9745458984375,2.4263047713816164,9.429607662189007,-1.168730475640297
1667709588287597000,8.98459716796875,2.1559724574908614,9.502232753416894,-1.10893271728158
1667709588297647900,8.99464794921875,1.9227834409497677,9.557936520460247,-1.0579037371162325
1667709588307699000,9.004698974609376,1.7156790059968827,9.601261867445707,-1.0210799540445208
1667709588317750000,9.01475,1.5227145939469338,9.635075289720296,-1.0084965129338204
1667709588327800800,9.02480078125,1.333874568350613,9.6613273368299,-1.024661538858339
1667709588337851000,9.034850830078126,1.1441559332888573,9.681087099310755,-1.0667042986873536
1667709588347901700,9.044901611328125,0.9499678977280854,9.695198042249679,-1.1274148610420525
1667709588357952800,9.054952880859375,0.7471549494240433,9.704096803498267,-1.2011032706525175
1667709588368003800,9.06500390625,0.5351458643600344,9.707955817013978,-1.2804676800727843
1667709588378055000,9.075054931640626,0.3122913409590721,9.70651789316535,-1.3624765395872294
1667709588388106000,9.08510595703125,0.07807233291626907,9.69965326809287,-1.4425716744348407
1667709588398156800,9.09515673828125,-0.16463815248217434,9.6881633213073,-1.5108897161185741
1667709588408206800,9.105206787109376,-0.41272802023086697,9.673015436536073,-1.5597459553547202
1667709588418258000,9.1152578125,-0.6614851562492549,9.654379125127196,-1.5892722018294037
1667709588428309000,9.12530908203125,-0.9071792149025947,9.629767830961942,-1.6170876988634466
1667709588438360000,9.135360107421874,-1.1468581049196422,9.596803134471177,-1.6602686689421533
1667709588448410600,9.14541064453125,-1.3777587182626128,9.555165302181244,-1.723646039353311
1667709588458461700,9.155461669921875,-1.5916295786105095,9.506635372290015,-1.8058211953453718
1667709588468512800,9.1655126953125,-1.7777353569373486,9.45504079413116,-1.900588414146006
1667709588478562800,9.175562744140626,-1.9322284379042685,9.40307913622558,-2.0047382321894167
1667709588488614000,9.18561376953125,-2.060543559911102,9.350604852622746,-2.119135595741868
1667709588498665000,9.1956650390625,-2.1725138424471018,9.295815862336754,-2.244634199023247
1667709588508715800,9.2057158203125,-2.277524661234021,9.237259043949843,-2.378300034408271
1667709588518766800,9.215766845703126,-2.3834537639096376,9.175039611402154,-2.5116046352654693
1667709588528818000,9.22581787109375,-2.495508363728225,9.11048033773005,-2.6347601825520393
1667709588538869000,9.235868896484375,-2.615069101393223,9.045785454979539,-2.739626624432206
1667709588548919800,9.245919921875,-2.744740606445074,8.98242562022507,-2.8200743721097705
1667709588558969900,9.255969970703125,-2.8882684951528903,8.921225593852997,-2.8705425765872
1667709588569020700,9.266020751953125,-3.0432658723801373,8.86349645846188,-2.8891785957351326
1667709588579071700,9.27607177734375,-3.196469059666991,8.811046724778413,-2.8841677818357945
1667709588589122800,9.286122802734376,-3.32323607544899,8.766580975586175,-2.876376105046272
1667709588599174000,9.296173828125,-3.4036592732071873,8.733235170823335,-2.8837644617319107
1667709588609224700,9.306224609375,-3.439742686240375,8.712646556302905,-2.9031603593364355
1667709588619275800,9.31627587890625,-3.445369586211443,8.703644334679842,-2.9234225183814764
1667709588629325800,9.326325927734375,-3.43679523461163,8.702748262622952,-2.9361525283560157
1667709588639377000,9.336376953125,-3.417177803210914,8.709978213876486,-2.937611494992673
1667709588649428000,9.346427978515624,-3.3695965523466467,8.73145588619113,-2.9288024578541516
1667709588659478800,9.356478759765626,-3.276310073623061,8.773452030399442,-2.9090765976428985
1667709588669529900,9.36652978515625,-3.130046914732456,8.837805552366376,-2.87513048889935
1667709588679581000,9.376580810546875,-2.934600038217008,8.921066019377111,-2.823667428165674
1667709588689632000,9.386632080078124,-2.7012363957613705,9.016149610650539,-2.753679991964996
1667709588699683000,9.39668310546875,-2.4407664274543523,9.113262661924958,-2.6760984473735094
1667709588709732900,9.40673291015625,-2.152138870677352,9.204470873069763,-2.610825764735043
1667709588719783700,9.41678369140625,-1.8293357803151011,9.289330591970682,-2.5558269310906527
1667709588729834800,9.426834716796876,-1.4894826248221098,9.366484558799863,-2.4941511039003728
1667709588739885800,9.4368857421875,-1.1692287074860184,9.433120638746022,-2.412361732355505
1667709588749937000,9.44693701171875,-0.8870946043815463,9.489532846319674,-2.3091613239914177
1667709588759987700,9.45698779296875,-0.6357680197339505,9.53599941394031,-2.1979326536029578
1667709588770038800,9.467038818359375,-0.392615462256968,9.571962707725167,-2.0961304215990006
1667709588780088800,9.4770888671875,-0.13194372430015355,9.597231004494429,-2.011502465627342
1667709588790140000,9.487139892578124,0.15499719456415623,9.61166168090701,-1.9396641408629713
1667709588800191000,9.49719091796875,0.45975740936603393,9.615364042556285,-1.8718356362618505
1667709588810242000,9.507241943359375,0.769577647503838,9.609914544978738,-1.7965734745286404
1667709588820292900,9.51729296875,1.0682486055199056,9.597558921274542,-1.7076592195399105
1667709588830342700,9.5273427734375,1.3424378140345214,9.580971943610907,-1.6041216881759464
1667709588840393700,9.537393798828125,1.588510569807142,9.561873275387287,-1.4891658139578998
1667709588850444800,9.54744482421875,1.8102384272657335,9.541712530890107,-1.359829239948839
1667709588860494600,9.55749462890625,2.011089208651334,9.52137818339169,-1.212131591275707
1667709588870545700,9.567545654296875,2.1891179173760116,9.501165416446328,-1.0516615547910333
1667709588880596700,9.5775966796875,2.342237079641223,9.48066389568746,-0.895159545154497
1667709588890647600,9.5876474609375,2.471485975366831,9.45973918108046,-0.7585909740652889
1667709588900698600,9.59769873046875,2.587610016581416,9.43648163961172,-0.6538480854995549
1667709588910749700,9.607749755859375,2.706067761440575,9.408027698543668,-0.5801890481140464
1667709588920800800,9.61780078125,2.8270015410244462,9.375005718907714,-0.536361487227492
1667709588930851600,9.6278515625,2.9371824559256434,9.342063234248757,-0.5188491018146276
1667709588940901600,9.637901611328125,3.0262326122537253,9.313588250392675,-0.5189977530376986
1667709588950952700,9.64795263671875,3.0906536464989185,9.291821239742637,-0.5294700106807053
1667709588961003800,9.658003662109374,3.1286952078625556,9.278228183197974,-0.5442080360094085
1667709588971054800,9.668054931640626,3.1375413621410724,9.27433819002211,-0.5593165020857006
1667709588981106000,9.67810595703125,3.1114702245563266,9.282383549311756,-0.5714159956043586
1667709588991156500,9.688156494140625,3.0442490381985903,9.30417920153439,-0.5789163978297263
1667709589001207600,9.69820751953125,2.9292481557950376,9.340865548896788,-0.5814998749842867
1667709589011257600,9.708257568359375,2.763937474346161,9.39116365750432,-0.5806181967789307
1667709589021308700,9.71830859375,2.5542013757154343,9.450199199318885,-0.5832589570786804
1667709589031359700,9.72835986328125,2.306933711069822,9.512261980000138,-0.6044049497535452
1667709589041410600,9.73841064453125,2.0251522207953037,9.573209492915868,-0.6502013995602727
1667709589051461600,9.748461669921875,1.7218020189218222,9.628311786934733,-0.7080869676221162
1667709589061512700,9.7585126953125,1.4275478544346987,9.672888595286011,-0.7534575566995888
1667709589071563800,9.768563720703124,1.1791769777875394,9.704954297110438,-0.7705711155205964
1667709589081614800,9.77861474609375,1.0307402011848985,9.722980952188372,-0.7560474270623176
1667709589091665000,9.788664794921875,1.1503179630499332,9.714793554079533,-0.6855203310269862
1667709589101715700,9.7987158203125,1.6461822759225964,9.654131287845969,-0.5081646992582828
1667709589111766500,9.8087666015625,2.0789279423855245,9.58087140584588,-0.2352702615282498
1667709589121817600,9.818817626953125,2.072127322459966,9.584778934678434,0.09318758492637425
1667709589131868700,9.82886865234375,1.7073602365933358,9.65198492346704,0.3074120444849133
1667709589141919500,9.83891943359375,1.230676644204557,9.72356255146861,0.3288453662011772
1667709589151970600,9.848970458984375,0.8426325815163552,9.768075646933912,0.21233650865377857
1667709589162021600,9.859021728515625,0.6870293473504483,9.782530288743972,0.02136851741832215
1667709589172071700,9.86907177734375,0.71799468671754,9.77867127522826,-0.1801854666334577
1667709589182122800,9.879122802734376,0.7918045307505875,9.767824302521348,-0.36474622574169185
1667709589192173800,9.889173828125,0.8183481812179089,9.757122875764965,-0.5470072382738813
1667709589202224600,9.899224609375,0.7555639543943107,9.749307818099856,-0.7419686328273266
1667709589212275700,9.909275634765624,0.6013586408602073,9.741193485227226,-0.958069882575795
1667709589222326800,9.919326904296875,0.3724147510755807,9.727520933705568,-1.1861740701332688
1667709589232377900,9.9293779296875,0.06714574193477164,9.704139473596214,-1.4126416694648563
1667709589242428700,9.9394287109375,-0.3425339190095663,9.663925536629558,-1.6314435564741492
1667709589252478700,9.949478759765626,-0.8089299992050976,9.607378889021277,-1.7928418867848812
1667709589262529500,9.959529541015625,-1.1987191519949585,9.559567921054363,-1.8297884925186634
1667709589272580600,9.96958056640625,-1.4495907594166695,9.53622211678028,-1.7690522842660545
1667709589282631700,9.979631591796876,-1.6477916108153758,9.520182251605391,-1.6796721653312443
1667709589292682800,9.989682861328125,-1.8829433057315645,9.490215567886828,-1.6002248268678783
1667709589302733600,9.999733642578125,-2.1741246386446056,9.434518230584263,-1.5599468847543
1667709589312784600,10.00978466796875,-2.463219374541938,9.361074808710812,-1.5726481070257723
1667709589322834700,10.019834716796876,-2.686086172902584,9.28881212105453,-1.6350206843085586
1667709589332885800,10.0298857421875,-2.82258343232125,9.2323589969486,-1.7224816717490552
1667709589342936800,10.039936767578125,-2.8858719554051757,9.197395235595106,-1.802789134173095
1667709589352987600,10.049987548828126,-2.900753590455651,9.178969936588405,-1.871502458784729
1667709589363038700,10.060038818359375,-2.8847169401511548,9.17120280971825,-1.9333488202363251
1667709589373089800,10.07008984375,-2.8363661662191153,9.175302646252513,-1.9847496293887494
1667709589383140900,10.080140869140624,-2.747483183151483,9.196334328365326,-2.012253722386062
1667709589393191700,10.090191650390626,-2.6219422020331025,9.23621742594242,-1.9970237122893333
1667709589403241700,10.10024169921875,-2.47468594045192,9.291235548809171,-1.92854215060696
1667709589413292500,10.11029248046875,-2.3133101142339405,9.355096318823099,-1.816905337809026
1667709589423343600,10.120343505859376,-2.127847894507646,9.423992160394787,-1.6825668638594447
1667709589433394700,10.130394775390625,-1.906744598688185,9.493228778228163,-1.5534806113496422
1667709589443445800,10.14044580078125,-1.6622949140727519,9.55577145138085,-1.4471969961479305
1667709589453496600,10.15049658203125,-1.4104494201175868,9.608280221775173,-1.3645393173359335
1667709589463547600,10.160547607421876,-1.1462346392590552,9.651863342913984,-1.3030876542903482
1667709589473598700,10.1705986328125,-0.8613328980721533,9.68818377957344,-1.2520337588794528
1667709589483648800,10.180648681640625,-0.5335714181175455,9.718672441339493,-1.1971272066283971
1667709589493699800,10.190699951171876,-0.14810599201200528,9.738771811038255,-1.1422617901053278
1667709589503751000,10.2007509765625,0.2526570843326859,9.742356099265812,-1.0922736972950398
1667709589513801700,10.2108017578125,0.6354348422568291,9.728581840935348,-1.0589119643107057
1667709589523852500,10.2208525390625,0.998701241236925,9.699568512418866,-1.0446958074316381
1667709589533903600,10.230903564453126,1.3509845469750463,9.65992974499166,-1.0153665448337792
1667709589543954700,10.24095458984375,1.6843378190547227,9.615770869791508,-0.9329310574050992
1667709589554005500,10.251005615234375,1.982965668581426,9.57286813213229,-0.7735988658439368
1667709589564055800,10.261055908203126,2.230298069026321,9.534109654670953,-0.5448886386847123
1667709589574106600,10.271106689453125,2.4192443314760923,9.498860646635293,-0.29884563872953873
1667709589584157700,10.28115771484375,2.571570443667471,9.463070371329783,-0.08796238849083893
1667709589594208800,10.291208740234374,2.7252915173485874,9.420155358710884,0.06217646105564199
1667709589604259800,10.301259765625,2.8987624166384336,9.367195337417721,0.15239711333466693
1667709589614310700,10.311310546875,3.0907556455686684,9.304704686713219,0.2002574003360234
1667709589624361700,10.32136181640625,3.2802816076025363,9.238874077931046,0.23098301266310736
1667709589634412800,10.331412841796874,3.4445948024466633,9.178215318828821,0.25593784130271524
1667709589644462600,10.341462646484375,3.5720655825838445,9.129159319236875,0.26309156724857163
1667709589654513700,10.351513671875,3.657916358348727,9.095665630435944,0.24271007440648973
1667709589664564700,10.361564697265624,3.701686526492238,9.079056440940498,0.1966263686235994
1667709589674615600,10.371615478515626,3.7045562367096543,9.079028968411684,0.13360868010399862
1667709589684666600,10.38166650390625,3.6681633193358776,9.094569067370891,0.0617536644997308
1667709589694717700,10.3917177734375,3.59210416200608,9.125080525490642,-0.010075845628877868
1667709589704768800,10.401768798828124,3.4691903145208953,9.17220935641229,-0.07533013980234973
1667709589714819600,10.411819580078125,3.2809716356933114,9.240610692465305,-0.12939258764577097
1667709589724869600,10.42186962890625,3.011081512612104,9.331286404168605,-0.17573820490101352
1667709589734920700,10.431920654296874,2.667775440186262,9.43413244613707,-0.2247405198106542
1667709589744971800,10.4419716796875,2.281310171122104,9.533694644129275,-0.27327771969288583
1667709589755022800,10.45202294921875,1.9005103804737329,9.615767362660169,-0.30896610552649945
1667709589765073700,10.46207373046875,1.5927350556343793,9.67098948366642,-0.3248257187636569
1667709589775124700,10.472124755859374,1.4962790069639682,9.68725146715939,-0.29779275040943176
1667709589785175800,10.48217578125,1.710620553563535,9.654358666861057,-0.19370582326808944
1667709589795227000,10.492226806640625,2.068850785007328,9.585821137207747,-0.04802736893026158
1667709589805276700,10.502276611328124,2.3608329129092396,9.517781620204449,0.09322544185188598
1667709589815327700,10.51232763671875,2.4331186891801653,9.497233922216296,0.22991300881141796
1667709589825378600,10.522378662109375,2.2902526253819464,9.524702943900227,0.45296336531173437
1667709589835430000,10.532429931640625,1.9978730225950478,9.572529693958163,0.7386106276363134
1667709589845481000,10.54248095703125,1.6472035817943513,9.624158758908509,0.9125159728206693
1667709589855532000,10.552531982421876,1.4389328795410692,9.65558265569806,0.9325115898840128
1667709589865582600,10.56258251953125,1.5275887758545577,9.65162953415811,0.8263827268525957
1667709589875633700,10.572633544921874,1.8080023387767374,9.617346156284212,0.6388931660171597
1667709589885683700,10.58268359375,2.0861324669368564,9.572667056602238,0.42722065596375614
1667709589895734800,10.59273486328125,2.265457499082386,9.539046526551246,0.21139783956417812
1667709589905785900,10.602785888671875,2.3172436542905865,9.528940727600455,-0.004443668121549126
1667709589915837000,10.6128369140625,2.225130018738657,9.54845615993142,-0.2149138665948063
1667709589925887700,10.6228876953125,1.982191030947119,9.595570962327718,-0.40782424690257757
1667709589935938800,10.632938720703125,1.6117621199265122,9.656203417944907,-0.574750144995749
1667709589945990000,10.642989990234375,1.1341442423623054,9.713839614355564,-0.7248555123977363
1667709589956041000,10.653041015625,0.598083747375384,9.750025026458502,-0.8658510330837219
1667709589966091000,10.663091064453125,0.12443958661458454,9.756655842775105,-0.9811118085324764
1667709589976141800,10.673141845703125,-0.2140946774327196,9.748197811031341,-1.0474809811707586
1667709589986192600,10.683192626953126,-0.4549223904250189,9.738511698797344,-1.0605796783272177
1667709589996243700,10.69324365234375,-0.6709653706476092,9.728733816626667,-1.0353533940687776
1667709590006294800,10.703294677734375,-0.9301429610565304,9.71034125084579,-1.0072291964117437
1667709590016345900,10.713345947265625,-1.2554837532028555,9.674357498794793,-1.0004719041712582
1667709590026396700,10.723396728515626,-1.594482337693125,9.621423780986666,-1.027722387733683
1667709590036447700,10.73344775390625,-1.8792967659227549,9.562595159921049,-1.0933427147660404
1667709590046497800,10.743497802734375,-2.0839124527998267,9.509840890333056,-1.179244124739617
1667709590056548900,10.753548828125,-2.222655445318669,9.467148580554127,-1.2662069533996283
1667709590066600000,10.763599853515625,-2.3163697940655052,9.432917225128412,-1.350885324384272
1667709590076650800,10.773650634765625,-2.3769049267880615,9.405190429291128,-1.4363503157019615
1667709590086701800,10.783701904296874,-2.4041839788578447,9.385180491441488,-1.51943469549343
1667709590096753000,10.7937529296875,-2.3887803657598794,9.377133963108061,-1.5916896382346748
1667709590106804000,10.803803955078125,-2.327086710651964,9.384254608768224,-1.6403700825124978
1667709590116854800,10.813854736328125,-2.2283592099182306,9.406137939274311,-1.6520792250066996
1667709590126904800,10.82390478515625,-2.104680515540391,9.439712292096019,-1.6225136694349347
1667709590136955600,10.83395556640625,-1.960735862725228,9.48142903484106,-1.5583350656434893
1667709590147006700,10.8440068359375,-1.7892947156973182,9.528976967957615,-1.4722119026780127
1667709590157057800,10.854057861328124,-1.5795502876296639,9.579914543512462,-1.3786306787915528
1667709590167108900,10.86410888671875,-1.3370600665189325,9.62887760412395,-1.291265699071437
1667709590177159700,10.87415966796875,-1.0817193508591503,9.670452308049798,-1.2176263892997055
1667709590187210800,10.884210693359375,-0.8242164887294173,9.70280559464395,-1.1604365484170616
1667709590197261800,10.89426171875,-0.5661441926812752,9.72710592316389,-1.110523858930543
1667709590207312000,10.904311767578125,-0.2952904852649197,9.745888949567078,-1.049214015508443
1667709590217363000,10.914363037109375,0.022668583149241747,9.75877648819089,-0.9675587186720221
1667709590227414000,10.9244140625,0.395696477137506,9.7591669488132,-0.8789002650752663
1667709590237464800,10.93446484375,0.7742354832470416,9.743671858039498,-0.7948584384284914
1667709590247516000,10.944515869140625,1.1265082675911486,9.7150221021384,-0.7209136429041624
1667709590257567000,10.95456689453125,1.4575767897345124,9.677023503133654,-0.6333098129268735
1667709590267617800,10.96461767578125,1.7727559610895811,9.632385319983959,-0.49484841382838785
1667709590277668600,10.974668701171876,2.055137316953391,9.584456863117218,-0.29150411686031147
1667709590287719700,10.9847197265625,2.2902397659003735,9.535368130299448,-0.044146166415628976
1667709590297769700,10.994769775390624,2.486268826217949,9.484204344773293,0.19684960118653252
1667709590307820800,11.00482080078125,2.662135388472676,9.430657463502884,0.38224089283477514
1667709590317871900,11.014871826171875,2.835560695055127,9.37476898754239,0.4936208447948098
1667709590327923000,11.0249228515625,3.0220617563098666,9.31343101400435,0.5455076108332723
1667709590337973800,11.034973876953124,3.223160959498584,9.245034354126453,0.5576102461570873
1667709590348024800,11.04502490234375,3.4245416099771857,9.172887986326216,0.5486507311645895
1667709590358076000,11.055075927734375,3.601917700012028,9.10536694023907,0.5374446793543175
1667709590368127000,11.065126953125,3.740869366845488,9.050004533979296,0.5231810666043311
1667709590378177000,11.075177001953126,3.838226748269796,9.011269437393546,0.4852267816653475
1667709590388227600,11.0852275390625,3.896400120297074,8.989714608189463,0.41648496161159126
1667709590398278700,11.095278564453125,3.9172865487203,8.984337591326236,0.3269366465030238
1667709590408329700,11.105329833984374,3.9028640556141734,8.993572452661395,0.23166189830536021
1667709590418380800,11.115380859375,3.8543180513709783,9.016406215760112,0.13790371954995206
1667709590428432000,11.125431884765625,3.7691838994428513,9.05326265899241,0.045719525812729256
1667709590438482700,11.135482666015625,3.6360721908092497,9.107565327066183,-0.0406586622265866
1667709590448533800,11.14553369140625,3.4326842921614644,9.185487940180302,-0.1178662543725688
1667709590458583800,11.155583740234375,3.1438615050733087,9.287079013651608,-0.1915468368696049
1667709590468635000,11.165634765625,2.781514339829981,9.400063003274798,-0.2690389861445874
1667709590478686000,11.17568603515625,2.3761004785373805,9.508332239335775,-0.3408138537513092
1667709590488736800,11.18573681640625,1.9831267043620346,9.596116905772686,-0.3900296470148489
1667709590498787800,11.195787841796875,1.7356990268491208,9.643242229562997,-0.4069501674817875
1667709590508839000,11.2058388671875,1.815838877621293,9.630494391670823,-0.35588944047130644
1667709590518890000,11.215889892578126,2.1198421365760267,9.571577507799864,-0.24805795650677753
1667709590528940800,11.22594091796875,2.422935879470408,9.501731818157435,-0.12980479430900885
1667709590538991900,11.235991943359375,2.5565865172863007,9.467510399603842,-0.022068222086317837
1667709590549041700,11.246041748046874,2.4678026106789708,9.49014133360684,0.1323839971472509
1667709590559092700,11.2560927734375,2.2509999346628784,9.536292259407043,0.40317481366153807
1667709590569143800,11.266143798828125,2.082553877797723,9.56158685966134,0.6398277434535324
1667709590579195000,11.27619482421875,1.9372567874602973,9.581250760552287,0.7855049191497265
1667709590589245700,11.28624560546875,1.9617203437179327,9.578033552071451,0.763732063280791
1667709590599296800,11.296296875,2.2702038168266414,9.528637945261597,0.4707866433046758
1667709590609347800,11.306347900390625,2.5061045765444634,9.480334225341677,0.11445413524098694
1667709590619399000,11.31639892578125,2.5757918607547876,9.461037404197453,-0.1563121496202424
1667709590629449000,11.326448974609375,2.5203341774269936,9.472217554381489,-0.3089205128191039
1667709590639499800,11.336499755859375,2.3690306862816213,9.508449143713712,-0.38405305682327595
1667709590649550800,11.34655078125,2.12912799744606,9.563528641378879,-0.4196954480906948
1667709590659602000,11.356601806640626,1.8170158124461768,9.627089551663397,-0.43358368818964804
1667709590669652700,11.36665283203125,1.4673087869368493,9.685694885367155,-0.4524857013300061
1667709590679703800,11.376703857421875,1.1134376274853943,9.729575528147816,-0.5157459847001359
1667709590689754600,11.386754638671874,0.7684299387734382,9.755016258874535,-0.6477340595986694
1667709590699805700,11.3968056640625,0.45128776024971157,9.76140274504125,-0.8256838578682393
1667709590709855700,11.406855712890625,0.16630215843794866,9.75638637818396,-0.977564856640622
1667709590719906800,11.41690673828125,-0.1122581778329797,9.74795698801279,-1.0654317214682698
1667709590729958000,11.4269580078125,-0.40994485578574236,9.736390468859671,-1.0977329856142402
1667709590740008700,11.4370087890625,-0.7348480602324009,9.716582775583863,-1.1038030262429266
1667709590750059800,11.447059814453125,-1.078148579700291,9.68294237178862,-1.1174058004640042
1667709590760110800,11.45711083984375,-1.4158295057207344,9.635119713383913,-1.1533727475106716
1667709590770162000,11.467161865234376,-1.7214510135270653,9.577462474185229,-1.2162282860048115
1667709590780213000,11.477212890625,-1.9813091335460542,9.51578255534172,-1.3018060900472104
1667709590790263800,11.487263916015625,-2.1881623702168462,9.45683001563549,-1.3966701933510601
1667709590800313600,11.497313720703126,-2.3464352619834243,9.405063588041067,-1.4864090625956654
1667709590810364700,11.50736474609375,-2.4695471162587403,9.360146587949991,-1.5682411042384803
1667709590820415700,11.517415771484375,-2.5584309761092063,9.322187151911853,-1.6497405529260634
1667709590830467600,11.527467529296874,-2.5941028857320547,9.297992621853947,-1.7286866638690233
1667709590840518400,11.537518310546876,-2.5636267911866306,9.294999285256862,-1.7891892094962298
1667709590850569500,11.547569580078125,-2.4736609813183543,9.31445743444264,-1.8144640821367501
1667709590860620500,11.55762060546875,-2.3380888739205896,9.353190192940831,-1.7948671090021728
1667709590870671600,11.567671630859374,-2.1634696813784537,9.406037401509284,-1.736731877028197
1667709590880721400,11.577721435546875,-1.9493328635707496,9.46721755413711,-1.6559812008813022
1667709590890772200,11.587772216796875,-1.6901837686039507,9.532477669554948,-1.5638196345344184
1667709590900823300,11.5978232421875,-1.4033334506325423,9.595018589141965,-1.4617353707186878
1667709590910874400,11.607874267578126,-1.1304681111328303,9.646125091522931,-1.3582054381392896
1667709590920925400,11.617925537109375,-0.8867799854744225,9.684372696852684,-1.2636927786216139
1667709590930976500,11.6279765625,-0.6491817011237144,9.714054133889078,-1.1773225090272723
1667709590941027300,11.63802734375,-0.3745994016382843,9.738694654148816,-1.0899049954023212
1667709590951078400,11.648078369140626,-0.028815374241990502,9.755609548592567,-0.998816611244902
1667709590961128400,11.65812841796875,0.3542056155702099,9.758089090448617,-0.9080907767895608
1667709590971179500,11.668179443359374,0.715544078695029,9.746344876641034,-0.8168037282548845
1667709590981230600,11.678230712890626,1.0522962724979967,9.723210669291019,-0.7226772915758192
1667709590991281400,11.688281494140625,1.3827473203301428,9.690044312748313,-0.6011854031851515
1667709591001332500,11.69833251953125,1.6969671451337633,9.6492213039726,-0.4280400825878605
1667709591011383600,11.708383544921874,1.9746949761033057,9.603656653627752,-0.20181622888427225
1667709591021434600,11.7184345703125,2.214138522994518,9.553338671275974,0.040811930259270594
1667709591031485400,11.7284853515625,2.4257246334061024,9.49866074014902,0.24839670520815996
1667709591041536300,11.738536376953125,2.628183434510231,9.439669621998071,0.39459973140936344
1667709591051586300,11.74858642578125,2.832298770649731,9.376384606045484,0.48154860460925847
1667709591061637400,11.758637451171875,3.037876580557227,9.308802185159921,0.5365664717476815
1667709591071688400,11.7686884765625,3.2303368424773216,9.240710645708441,0.587012208664976
1667709591081739500,11.778739501953124,3.391272377581894,9.17916750498712,0.6422784245412796
1667709591091790300,11.788790283203125,3.5137989793151614,9.129656747364997,0.6877361804455518
1667709591101841400,11.79884130859375,3.6046599844574927,9.09324570981264,0.6997741165027022
1667709591111892500,11.808892578125,3.6723224848419425,9.068400022369623,0.6697501496389507
1667709591121943600,11.818943603515624,3.7209661042407154,9.05309256312251,0.6052146952338516
1667709591131993600,11.82899365234375,3.7495617918670177,9.046813628983497,0.5160749609261751
1667709591142044700,11.839044677734375,3.7529207469061014,9.050919310736656,0.40850919695943594
1667709591152095500,11.849095458984374,3.7263948512911793,9.066430183601378,0.2901699639134109
1667709591162146300,11.859146240234375,3.664350483049452,9.094636287388205,0.17466146078128367
1667709591172197400,11.869197265625,3.5519407861828802,9.140479170152544,0.07570354882515966
1667709591182248400,11.87924853515625,3.3625673843622206,9.212135708609223,-0.010361506727931555
1667709591192299300,11.88929931640625,3.0822850466042757,9.309123672199249,-0.10063436640151775
1667709591202350300,11.899350341796875,2.7305004841685294,9.416705510517954,-0.20094118134910238
1667709591212401400,11.9094013671875,2.348279282414913,9.516911851632594,-0.2904362684330903
1667709591222451500,11.919451416015624,1.9943414874680339,9.595277532339095,-0.3516120554130524
1667709591232502500,11.92950244140625,1.786597585567832,9.635129650256037,-0.37774639442712066
1667709591242553600,11.9395537109375,1.896621556341648,9.616032735598086,-0.3242466767666861
1667709591252604400,11.9496044921875,2.2154667028583583,9.551359480157494,-0.18346004959102719
1667709591262655500,11.959655517578126,2.4857424642562864,9.486383442378044,-0.002779933877121948
1667709591272706600,11.96970654296875,2.5312504159778353,9.471568150562048,0.22931670515239239
1667709591282757600,11.979757568359375,2.348200956481695,9.503328731960057,0.5857104053514078
1667709591292808400,11.989808349609374,2.0715106518663466,9.537333877414465,0.9583918810717761
1667709591302858200,11.999858154296875,1.8357824722364544,9.56600818323493,1.1365713233787567
1667709591312909300,12.009909423828125,1.878529873203486,9.56466495193243,1.0764238747995347
1667709591322960400,12.01996044921875,2.236997274404019,9.515611290428042,0.787017880995944
1667709591333011500,12.030011474609376,2.597386145186424,9.446745259472728,0.4277686452353373
1667709591343062500,12.0400625,2.79694951710999,9.39869522205293,0.10954451669380068
1667709591353113300,12.05011328125,2.842770480303466,9.384545700669289,-0.13914579203291796
1667709591363164400,12.060164306640624,2.7589196461841463,9.404085682919622,-0.3491566250849515
1667709591373215500,12.070215576171876,2.5437048238813875,9.455336562207341,-0.544568320689164
1667709591383265500,12.080265625,2.199664884223044,9.529311899000406,-0.723912751654908
1667709591393316600,12.090316650390625,1.7435909491427242,9.609353988486529,-0.8891565053474157
1667709591403367400,12.100367431640626,1.1953145311832427,9.675290395730734,-1.0631723251689225
1667709591413418500,12.11041845703125,0.6741708156254143,9.70487246404588,-1.2374587055601178
1667709591423469600,12.120469482421875,0.30532382176769896,9.705272861540317,-1.3728889202691614
1667709591433520600,12.130520751953124,0.057662235034210606,9.698559627637266,-1.4508604870915411
1667709591443571500,12.140571533203126,-0.15669371455004438,9.693622171235084,-1.4763187534749507
1667709591453622300,12.150622314453125,-0.4082552587309852,9.686826519745587,-1.4727894103050232
1667709591463673300,12.16067333984375,-0.7296689040288329,9.668874098947644,-1.466577403922379
1667709591473723400,12.170723388671876,-1.0890006669737398,9.6338735127151,-1.4740917250752448
1667709591483774500,12.1807744140625,-1.4210703289836644,9.585059505185484,-1.5091586545422673
1667709591493825500,12.190825439453125,-1.6905378427386284,9.531125670424103,-1.5716542736828327
1667709591503876400,12.20087646484375,-1.9072243450291453,9.47708194554746,-1.6485725320599973
1667709591513927400,12.210927490234376,-2.0909813682727516,9.423028283798693,-1.7334136923909187
1667709591523978500,12.220978515625,-2.2440856252297756,9.369540439239143,-1.8292540933810173
1667709591534029600,12.231029541015625,-2.359137945559621,9.318822643914817,-1.9402021932624278
1667709591544080400,12.241080322265624,-2.4274169704072177,9.275952639481424,-2.057846868173033
1667709591554130400,12.25113037109375,-2.4389770598195493,9.248907980689406,-2.163213953051716
1667709591564181200,12.26118115234375,-2.3900062542930245,9.245179900076986,-2.2326912477731704
1667709591574232300,12.271232421875,-2.2879805887967346,9.266819484955072,-2.2497945043958723
1667709591584283400,12.281283447265626,-2.1472310787610707,9.308817967250942,-2.2148830577515066
1667709591594334500,12.29133447265625,-1.9696118276201187,9.364522903338074,-2.1439973575368523
1667709591604385300,12.30138525390625,-1.7482751614362,9.428636186808347,-2.0529836460508406
1667709591614436400,12.311436279296874,-1.5012801762521266,9.49299204686284,-1.9492663742057978
1667709591624487400,12.3214873046875,-1.249421384423971,9.550700139465928,-1.8421281880013645
1667709591634538500,12.33153857421875,-0.9990993006438016,9.597522096395492,-1.7492166800700126
1667709591644588500,12.341588623046874,-0.7593522407613694,9.632207625329494,-1.677599158449471
1667709591654639400,12.351639404296876,-0.5205069885568693,9.658094346258043,-1.618853977883607
1667709591664690400,12.3616904296875,-0.24990619645565748,9.67854150648117,-1.5600596974790095
1667709591674741500,12.371741455078125,0.0824131842653267,9.690893623054027,-1.5000594022855163
1667709591684792600,12.38179248046875,0.4585546825127676,9.689036597010492,-1.4431541504979133
1667709591694843600,12.39184375,0.8262825544137508,9.673144031351804,-1.3848893007948995
1667709591704894500,12.40189453125,1.176575490052253,9.647404609939455,-1.3090657057866453
1667709591714945500,12.411945556640624,1.5178597012616692,9.617488779625296,-1.1706330943912266
1667709591724995300,12.421995361328126,1.8373934145644306,9.585960837939382,-0.9506279690720141
1667709591735046400,12.43204638671875,2.1155283650301397,9.55211351339519,-0.672342211958766
1667709591745097500,12.442097412109375,2.3462051064893603,9.513848372408747,-0.3903598288172856
1667709591755148300,12.452148193359376,2.536654028587043,9.471742922607064,-0.14793565868008882
1667709591765199400,12.462199462890625,2.702173384350538,9.426918276974558,0.04290390213641804
1667709591775250400,12.47225048828125,2.8567329546824096,9.379347547504306,0.19315038134241475
1667709591785301500,12.482301513671874,3.0036884797513483,9.32965558809638,0.32521698310356584
1667709591795352600,12.4923525390625,3.1384888721242543,9.2797456020236,0.4544962009022012
1667709591805403400,12.5024033203125,3.254836492961645,9.232304051890969,0.5839438340703025
1667709591815453400,12.512453369140625,3.3475767359793185,9.191431943276523,0.6940305313494056
1667709591825504500,12.52250439453125,3.4172350863561034,9.159959531170129,0.7668295178394764
1667709591835555000,12.53255517578125,3.465347083096206,9.139209588608145,0.7978761057492345
1667709591845606100,12.542606201171875,3.4919729319542645,9.129620507007838,0.7915230103954672
1667709591855657200,12.5526572265625,3.4947532103225587,9.131935798212885,0.7515650940164923
1667709591865708000,12.5627080078125,3.4710666297867894,9.147137458997964,0.6722609634160995
1667709591875759000,12.572759033203125,3.419198203122616,9.174562641540168,0.5539539521392435
1667709591885810200,12.58281005859375,3.338467546850443,9.211382844415306,0.4188939955146983
1667709591895861200,12.592861328125,3.2292811959445475,9.255175224390625,0.2895991234892048
1667709591905911000,12.6029111328125,3.084833562043309,9.307445509853958,0.1601864703029394
1667709591915961900,12.6129619140625,2.9096584891840815,9.365047803995013,0.011397748732269973
1667709591926013000,12.623012939453124,2.7181086201071736,9.420991809535026,-0.16490498672481627
1667709591936064000,12.63306396484375,2.522801152062416,9.469931489270925,-0.355322636901401
1667709591946115000,12.643114990234375,2.3467554338485,9.506956859329343,-0.5299962265118956
1667709591956166100,12.653166259765625,2.238592142380029,9.525640517011285,-0.6490532524384558
1667709591966217000,12.663217041015624,2.299582471524179,9.510739884999394,-0.6543032819211483
1667709591976268000,12.67326806640625,2.511261813177168,9.465700719833373,-0.514238429681398
1667709591986319000,12.683319091796875,2.6438153034061194,9.43991512119174,-0.2619307433082722
1667709591996369200,12.693369140625,2.5225559451296924,9.475786645039916,0.1287632950325962
1667709592006420200,12.703420166015626,2.145555839025229,9.548273789101838,0.6304468247111886
1667709592016471000,12.713470947265625,1.7127653105072675,9.597137480992078,1.0638481786038725
1667709592026522000,12.723522216796875,1.5325031436420977,9.60330535597205,1.2642552348099647
1667709592036573200,12.7335732421875,1.935336633052677,9.548330487725138,1.1199317387450485
1667709592046624300,12.743624267578125,2.5011256190881133,9.457585217916964,0.6847432822398841
1667709592056675000,12.753675048828125,2.8422870807006952,9.383988651308417,0.18034257515762
1667709592066726000,12.763725830078124,2.9080422861590978,9.363024773734807,-0.21783643951062112
1667709592076776000,12.77377587890625,2.7870249199450012,9.39063875684738,-0.4677846119444817
1667709592086827000,12.783826904296875,2.5583602489605544,9.446991927710174,-0.6160476394154131
1667709592096878000,12.793878173828125,2.2584031966567037,9.516497425612807,-0.7115402498811483
1667709592106929200,12.80392919921875,1.9111447333432734,9.586724223527312,-0.782707543516159
1667709592116980000,12.81397998046875,1.5573307109065353,9.64542074264586,-0.8431719490900635
1667709592127031000,12.824031005859375,1.2168889418706297,9.68747241643369,-0.9178418440185486
1667709592137082000,12.83408203125,0.8733877852641045,9.708658996847271,-1.0721629294194281
1667709592147133200,12.84413330078125,0.524848013435863,9.704887077093124,-1.3076971939124167
1667709592157184000,12.85418408203125,0.19690489330403504,9.68611223399639,-1.520145912502706
1667709592167234300,12.864234375,-0.1195275477814488,9.667102997621893,-1.6441421483971177
1667709592177284900,12.874284912109376,-0.4427607914555818,9.651542440396547,-1.679909773479402
1667709592187336000,12.8843359375,-0.7743210426386445,9.631555298900604,-1.6745054302178322
1667709592197387000,12.894386962890625,-1.1085573080979287,9.598753099495172,-1.6749370996333657
1667709592207438000,12.90443798828125,-1.423136467733234,9.552546644115447,-1.7011556828647851
1667709592217489000,12.914489013671876,-1.6868958329744637,9.499517649239301,-1.7561086315408347
1667709592227540000,12.9245400390625,-1.8968132795214652,9.445216734731197,-1.833127573813498
