sep=;
ACCELEROMETER X (m/s²);ACCELEROMETER Y (m/s²);ACCELEROMETER Z (m/s²);GRAVITY X (m/s²);GRAVITY Y (m/s²);GRAVITY Z (m/s²);LINEAR ACCELERATION X (m/s²);LINEAR ACCELERATION Y (m/s²);LINEAR ACCELERATION Z (m/s²);GYROSCOPE X (rad/s);GYROSCOPE Y (rad/s);GYROSCOPE Z (rad/s);LIGHT (lux);MAGNETIC FIELD X (μT);MAGNETIC FIELD Y (μT);MAGNETIC FIELD Z (μT);ORIENTATION Z (azimuth °);ORIENTATION X (pitch °);ORIENTATION Y (roll °);PROXIMITY (i);LOCATION Latitude : ;LOCATION Longitude : ;LOCATION Altitude ( m);LOCATION Altitude-google ( m);LOCATION Speed ( Kmh);LOCATION Accuracy ( m);LOCATION ORIENTATION (°);Satellites in range;Time since start in ms ;YYYY-MO-DD HH-MI-SS_SSS
-0.6652;4.6092;8.5875;-0.8869;4.7002;8.5611;-0.2968;0.1158;0.3393;0.0111;0.362;0.7245;527.3;-50.36;12.51;-28.26;67.35;-29.98;6.95;5.0;35.958035;-83.924446;;NaN;;269.77515;;0 / 1;13;2022-09-09 16:25:52:223
-1.0337;4.3519;9.1669;-0.9573;4.5788;8.6191;-0.2377;0.1632;-0.0138;0.0524;0.1589;0.0473;892.4;-54.82;17.21;-30.81;64.36;-28.02;4.52;5.0;35.958313;-83.92441;801.33;NaN;0.0;31.321762;;0 / 18;511;2022-09-09 16:25:52:721
0.4385;5.6782;7.6717;0.3841;5.7535;7.9322;-0.3387;0.0514;-0.5679;-0.0137;0.4859;0.4736;892.4;-56.01;17.33;-27.81;61.16;-36.67;-0.56;5.0;35.958313;-83.92441;801.33;NaN;0.0;31.321762;;0 / 18;1010;2022-09-09 16:25:53:220
-0.5309;5.8508;6.4256;-0.19;6.4437;7.3901;-0.2415;-0.3732;0.2526;0.4391;-0.0283;0.0192;892.4;-58.48;15.45;-21.47;67.6;-41.08;1.47;5.0;35.958305;-83.924416;802.62;NaN;0.0;24.585688;;6 / 19;1511;2022-09-09 16:25:53:721
-0.4735;5.8232;9.3715;-0.1687;5.5312;8.0962;-0.7184;0.5972;0.2734;-0.6194;-0.5298;-0.2403;892.4;-57.9;14.72;-20.68;69.27;-38.45;3.75;5.0;35.958305;-83.924416;802.62;NaN;0.0;24.585688;;6 / 19;2010;2022-09-09 16:25:54:220
-0.0066;6.2276;7.8667;-0.449;5.9813;7.7584;-0.1127;-0.422;-0.3289;-0.1299;-0.3768;-0.1256;892.4;-55.78;12.69;-22.07;70.15;-37.6;4.82;5.0;35.958305;-83.924416;802.62;NaN;0.0;24.585688;;9 / 20;2510;2022-09-09 16:25:54:720
-0.8447;6.3332;7.3089;-0.616;6.1403;7.6215;-0.1973;0.0848;-0.6444;-0.1934;-0.0949;0.0327;992.1;-55.44;11.64;-20.03;71.35;-38.94;4.67;5.0;35.958305;-83.924416;802.62;NaN;0.0;24.585688;;9 / 20;3011;2022-09-09 16:25:55:221
-0.0906;3.6936;7.2802;-0.6781;5.1218;8.3353;-1.3441;0.2079;-1.1567;-0.4839;0.4197;0.7103;992.1;-54.73;13.48;-22.86;69.91;-31.49;4.65;5.0;35.958313;-83.92442;799.93;NaN;0.0;16.864265;;8 / 20;3511;2022-09-09 16:25:55:721
-0.7322;3.1478;7.7818;-0.8098;2.0179;9.5626;0.4388;0.609;-0.8454;0.1487;0.3299;0.1442;609.4;-52.18;24.83;-37.09;60.45;-11.87;4.84;5.0;35.958313;-83.92442;799.93;NaN;0.0;16.864265;;8 / 20;4011;2022-09-09 16:25:56:221
-2.9216;2.0584;9.9676;0.8204;1.1314;9.7066;0.6835;-0.8639;2.8533;-1.3472;-0.2175;-1.7409;609.4;-51.75;24.36;-38.21;56.96;-18.76;1.57;5.0;35.958313;-83.92443;801.13;NaN;0.0;15.534678;;6 / 21;4511;2022-09-09 16:25:56:721
0.5273;0.8578;12.0003;-1.1263;2.5526;9.4014;-0.3689;0.6085;2.3715;-0.6431;0.1238;0.93;537.0;-42.56;15.84;-34.99;63.7;-15.09;6.83;5.0;35.958313;-83.92443;801.13;NaN;0.0;15.534678;;6 / 21;5011;2022-09-09 16:25:57:221
-2.8316;4.4166;5.9731;-1.8839;3.3731;9.0135;-0.5782;-0.5442;-0.1706;0.1522;-0.0577;0.073;537.0;-36.94;13.78;-31.46;63.76;-20.12;11.81;5.0;35.95831;-83.92443;802.9;NaN;0.0;14.493212;;8 / 22;5511;2022-09-09 16:25:57:721
0.4026;2.0357;10.0406;0.6913;3.178;9.2517;-3.0108;0.7078;-0.3474;0.2704;-0.5415;1.5002;423.6;-46.59;11.96;-19.84;67.33;-18.91;-4.27;5.0;35.95831;-83.92443;802.9;NaN;0.0;14.493212;;8 / 22;6010;2022-09-09 16:25:58:220
0.3416;1.7578;7.6908;0.3274;3.9831;8.9554;-0.4714;-0.9863;-0.1853;-0.514;-0.0595;-0.0727;253.1;-71.81;19.99;-17.74;69.5;-23.96;-2.09;5.0;35.95831;-83.92443;802.9;NaN;0.0;14.493212;;8 / 23;6512;2022-09-09 16:25:58:722
-0.3706;2.9659;7.7327;-0.5006;3.4924;9.15;0.6562;-0.7695;0.4044;-0.2181;0.8169;0.9315;110.1;-80.38;27.75;-25.35;65.33;-21.08;-2.29;5.0;35.95831;-83.92443;802.9;NaN;0.0;14.493212;;8 / 23;7011;2022-09-09 16:25:59:221
-0.4795;3.4445;8.3623;0.132;4.7187;8.5957;-1.6092;-1.5728;2.594;1.1999;-0.4145;0.3173;98.2;-83.25;44.25;-36.07;55.57;-28.76;-0.88;5.0;35.95831;-83.92443;802.9;NaN;0.0;14.493212;;7 / 23;7511;2022-09-09 16:25:59:721
-0.5405;4.7243;11.2017;-1.9265;3.7386;8.859;0.1386;1.8813;2.7186;-0.7526;0.799;0.3895;98.2;-79.39;51.04;-41.44;56.89;-22.41;12.27;5.0;35.95831;-83.92443;802.9;NaN;0.0;14.493212;;7 / 23;8011;2022-09-09 16:26:00:221
-1.745;3.5752;7.1904;-1.5479;3.1202;9.1673;-0.6636;2.0448;3.3701;-1.6617;0.1034;-0.554;87.3;-62.38;54.86;-51.73;46.96;-18.55;9.58;5.0;35.958313;-83.92442;808.57;NaN;0.0;12.329834;;8 / 23;8511;2022-09-09 16:26:00:721
4.7743;0.2689;11.4257;1.8633;0.1769;9.6264;-1.7512;0.9119;2.8509;-0.7207;-0.6906;0.1008;48.0;-65.91;64.74;-41.85;39.62;-7.53;-8.65;5.0;35.958313;-83.92442;808.57;NaN;0.0;12.329834;;8 / 23;9011;2022-09-09 16:26:01:221
12.0643;2.007;-3.4801;9.1802;1.0553;-3.2832;8.4215;-2.7863;2.0915;2.0342;-2.8883;0.3826;34.2;-68.89;60.54;-13.39;358.67;-24.31;-80.93;5.0;35.958313;-83.924416;812.94;NaN;1.73;12.226105;197.4;9 / 23;9510;2022-09-09 16:26:01:720
5.4769;2.0824;-9.7561;9.0109;-0.9436;-3.7529;2.1292;-3.6566;-5.3841;-0.3505;0.7988;0.3964;42.2;-51.19;61.14;15.99;355.03;5.52;-112.61;5.0;35.958313;-83.924416;812.94;NaN;1.73;12.226105;197.4;9 / 23;10011;2022-09-09 16:26:02:221
2.4305;-3.2614;-2.744;9.2058;-3.3446;0.4876;-5.3245;-0.3758;-2.4264;1.1447;-1.493;-2.0627;42.2;-12.97;36.68;29.38;55.41;41.46;-85.57;0.0;35.958313;-83.92441;817.29;NaN;0.0;12.226105;;8 / 23;10511;2022-09-09 16:26:02:721
8.6671;-2.1254;-1.6451;9.6952;-0.9605;-1.1185;-3.5562;-3.1232;3.7473;0.0142;0.0222;-0.1842;43.8;-37.84;42.32;-6.69;340.5;4.56;-100.51;0.0;35.958313;-83.92441;817.29;NaN;0.0;12.226105;;8 / 23;11011;2022-09-09 16:26:03:221
9.888;2.1709;-0.4373;9.7555;-0.1634;-0.9872;-1.2352;1.493;-0.0455;-0.5287;0.0773;0.0228;34.1;-50.72;42.6;-13.48;339.48;2.38;-92.6;0.0;35.958313;-83.92441;817.29;NaN;0.0;12.226105;;8 / 23;11546;2022-09-09 16:26:03:756
14.9659;6.7125;0.2728;9.4146;0.7651;-2.6365;4.2744;-0.2477;3.0468;1.1961;-1.4222;-0.7927;34.1;-54.38;40.44;-17.4;332.09;3.22;-92.76;0.0;35.958313;-83.92441;817.29;NaN;0.0;12.226105;;8 / 23;12010;2022-09-09 16:26:04:220
16.1462;1.8212;-2.6949;9.396;-0.2176;-2.7998;4.6238;0.7873;3.2677;0.9419;-3.0319;-0.5214;34.1;-56.04;32.14;-13.74;316.41;1.27;-106.59;0.0;35.958313;-83.92441;817.29;NaN;0.0;12.226105;;9 / 23;12510;2022-09-09 16:26:04:720
13.5284;3.1274;-3.4214;9.4461;0.6472;-2.5538;3.179;3.5322;2.1189;0.8358;-1.7456;-0.3162;34.1;-57.09;24.56;-16.8;317.62;-2.93;-98.56;0.0;35.958313;-83.92441;817.29;NaN;0.0;12.226105;;9 / 23;13107;2022-09-09 16:26:05:317
15.0054;-3.0637;5.4296;9.3875;0.9295;-2.6797;-0.3438;2.373;-0.112;-0.0972;-2.1277;0.6022;34.1;-57.34;-8.92;-7.27;260.0;-5.44;-105.93;0.0;35.958313;-83.92441;817.29;NaN;0.0;12.226105;;8 / 23;13511;2022-09-09 16:26:05:721
13.2015;4.5302;11.7272;9.6518;0.6787;1.5978;-0.6356;-0.6815;-4.1336;-0.2037;0.1059;-0.157;41.5;-54.9;-2.51;-6.54;185.81;-1.68;-82.89;0.0;35.958313;-83.92441;817.29;NaN;0.0;12.226105;;8 / 23;14011;2022-09-09 16:26:06:221
9.4403;1.5341;-4.2772;9.7464;1.0848;0.0444;-0.8472;2.7169;-0.3958;0.2565;-0.0371;0.1432;70.6;-41.18;0.09;-2.57;336.19;-8.79;-89.68;0.0;35.958313;-83.92441;817.29;NaN;0.0;12.226105;;7 / 23;14511;2022-09-09 16:26:06:721
7.3516;0.2198;-1.9896;9.7504;-0.1148;1.0428;0.1048;1.3902;-2.766;1.0749;1.0239;0.5483;86.4;-35.61;-1.88;-5.17;205.24;0.67;-83.9;0.0;35.958313;-83.92441;817.29;NaN;0.0;12.226105;;7 / 23;15010;2022-09-09 16:26:07:220
9.268;3.7738;1.9762;9.585;1.784;1.0564;-0.6012;0.6336;1.2169;1.0062;-0.2864;-0.2889;72.5;-20.68;-0.58;13.99;81.12;-10.48;-83.71;0.0;35.958313;-83.92441;817.29;NaN;0.0;12.226105;;6 / 23;15511;2022-09-09 16:26:07:721
10.4925;1.5676;0.3135;9.6569;0.9965;1.386;0.0916;-1.0011;4.1414;0.1881;-0.3267;0.2452;38.4;-14.31;6.15;11.03;56.39;-8.5;-86.31;0.0;35.958313;-83.92441;817.29;NaN;0.0;12.226105;;6 / 23;16011;2022-09-09 16:26:08:221
12.0452;1.6119;3.4352;9.5536;1.0524;1.9473;-0.9781;0.7998;-1.2042;0.1071;-1.2335;-0.3943;20.9;-14.4;3.6;4.71;55.23;-6.16;-78.48;0.0;35.958313;-83.92441;817.29;NaN;0.0;12.226105;;6 / 23;16510;2022-09-09 16:26:08:720
4.809;1.2562;1.5727;9.5338;0.38;2.2654;-3.8608;-0.1245;-2.2828;-0.2043;-0.6198;0.8246;20.9;-15.94;2.57;-0.9;37.06;-2.22;-76.63;0.0;35.958313;-83.92441;817.29;NaN;0.0;12.226105;;6 / 23;17011;2022-09-09 16:26:09:221
8.7209;-1.5915;1.0531;9.5427;1.7044;1.4843;-0.5432;-3.5355;-0.5579;1.2605;-0.1488;-0.7016;21.1;-17.25;13.29;-5.53;348.21;-10.01;-81.16;0.0;35.958313;-83.92441;817.29;NaN;0.0;12.226105;;5 / 23;17511;2022-09-09 16:26:09:721
6.9685;2.7754;0.5815;9.5369;1.6811;1.5463;-2.4761;-1.0551;-2.3653;0.6583;-0.4742;-0.0048;19.0;-13.91;16.56;-12.02;334.31;-8.7;-79.49;0.0;35.958313;-83.92441;817.29;NaN;0.0;12.226105;;5 / 23;18011;2022-09-09 16:26:10:221
7.0546;0.7681;-1.7312;9.5641;1.7391;1.2941;-2.9198;-0.6974;-2.6159;-0.3515;0.1269;0.3451;24.9;-8.34;4.46;-17.64;289.74;-11.14;-81.54;0.0;35.958313;-83.92441;817.29;NaN;0.0;12.226105;;5 / 23;18511;2022-09-09 16:26:10:721
5.3094;1.5377;0.3182;9.5909;1.484;1.4078;-2.471;-1.0185;-0.8547;-0.0215;-0.6153;-0.0764;26.2;-3.15;-10.67;-12.32;228.38;-8.7;-81.65;0.0;35.958313;-83.92441;817.29;NaN;0.0;12.226105;;5 / 23;19011;2022-09-09 16:26:11:221
4.5254;1.0277;-0.8082;9.6991;0.9788;1.0675;-5.051;0.3723;-1.6614;-0.4361;0.2657;0.4616;24.4;-0.86;-14.89;-6.39;202.17;-9.88;-86.32;0.0;35.958313;-83.92441;817.29;NaN;0.0;12.226105;;6 / 23;19511;2022-09-09 16:26:11:721
3.1822;0.288;-1.6044;9.7378;1.0418;0.5104;-5.418;-1.2776;-2.299;-0.0543;-0.2215;0.1016;17.5;1.59;-11.21;-13.01;229.38;-7.03;-89.8;2.0;35.958313;-83.92441;817.29;NaN;0.0;12.226105;;6 / 23;20010;2022-09-09 16:26:12:220
5.9462;-0.0497;-0.4899;9.685;0.9973;1.1729;-5.4064;0.4347;-3.117;-0.9847;1.0332;-0.0313;24.9;7.37;-8.51;-12.17;232.65;-4.43;-86.6;2.0;35.958313;-83.92441;817.29;NaN;0.0;12.226105;;3 / 23;20511;2022-09-09 16:26:12:721
10.7142;3.1011;-3.492;9.5554;2.0672;0.7692;-1.3441;-1.6555;-2.9785;-0.3264;1.8647;-0.2465;26.3;9.08;9.08;-1.72;347.41;-9.0;-92.1;2.0;35.958313;-83.92441;817.29;NaN;0.0;12.226105;;3 / 23;21011;2022-09-09 16:26:13:221
7.3696;-3.9879;0.4343;9.4731;-0.2117;2.5269;-2.8548;-0.3453;-4.7554;1.7268;1.3557;0.8424;31.4;-1.22;16.63;18.68;47.46;1.24;-75.06;0.0;35.958313;-83.92441;817.29;NaN;0.0;12.226105;;2 / 23;21511;2022-09-09 16:26:13:721
11.2086;-5.5107;0.8629;7.5302;-5.1427;-3.6082;2.6291;0.4498;8.1007;0.0367;-0.8307;-2.8904;59.9;-15.71;24.04;1.33;334.57;31.63;-115.6;2.0;35.958313;-83.92441;817.29;NaN;0.0;12.226105;;2 / 23;22010;2022-09-09 16:26:14:220
6.1029;1.6298;-5.0447;7.7676;1.6958;-5.741;-1.1696;-2.6518;0.5893;0.2717;-0.5188;-0.3963;43.5;-49.65;10.37;22.43;332.05;-9.54;-124.25;2.0;35.958313;-83.92441;817.29;NaN;0.0;12.226105;;2 / 23;22511;2022-09-09 16:26:14:721
7.0798;1.3905;-4.8601;6.8432;1.6454;-6.8289;2.8787;1.1758;2.4191;1.9959;-0.3418;-2.0539;199.8;-34.95;-9.04;33.02;239.46;-9.66;-134.94;2.0;35.958313;-83.92441;817.29;NaN;0.0;12.226105;;2 / 23;23011;2022-09-09 16:26:15:221
5.8528;-0.0772;-6.0933;6.5933;0.8101;-7.214;2.3792;-2.2533;-0.7297;1.1543;0.2454;0.4624;188.2;-20.55;29.59;57.99;34.33;-4.74;-137.57;2.0;35.958313;-83.92441;817.29;NaN;0.0;12.226105;;1 / 23;23511;2022-09-09 16:26:15:721
9.7863;0.8339;-4.0319;7.8973;0.4874;-5.7935;1.2745;2.6825;-1.0413;0.6254;-0.4142;-0.4791;392.4;-36.56;36.06;51.81;27.22;-2.85;-126.26;0.0;35.958313;-83.92441;817.29;NaN;0.0;12.226105;;1 / 23;24011;2022-09-09 16:26:16:221
7.6639;-3.8779;-4.9442;6.42;-0.09;-7.4125;1.188;-0.4203;3.2501;1.0733;0.2708;-0.5127;130.1;-47.04;35.7;43.44;348.24;0.53;-139.1;2.0;35.958313;-83.92441;817.29;NaN;0.0;12.226105;;3 / 23;24511;2022-09-09 16:26:16:721
5.7751;-1.9098;-1.7587;7.6049;-6.1912;0.0643;0.7091;2.8389;-2.9581;2.5595;-0.1359;-0.4303;83.8;-41.49;56.34;11.31;32.8;39.15;-89.52;0.0;35.958313;-83.92441;817.29;NaN;0.0;12.226105;;3 / 23;25011;2022-09-09 16:26:17:221
2.9764;1.879;-0.2539;9.6742;0.8049;1.3903;-4.5235;-0.4181;1.0611;1.0564;0.384;-2.2149;49.1;-40.57;26.85;-12.79;346.97;-4.71;-81.82;2.0;35.958313;-83.92441;817.29;NaN;0.0;12.226105;;1 / 23;25510;2022-09-09 16:26:17:720
13.2625;-1.6131;0.4582;9.7389;0.9534;-0.6444;-4.6659;-1.2923;-0.0787;-0.3119;-0.982;-0.4016;411.0;-36.53;-5.4;-2.76;255.5;-5.58;-93.79;2.0;35.958313;-83.92441;817.29;NaN;0.0;12.226105;;1 / 23;26011;2022-09-09 16:26:18:221
13.7545;1.2036;0.548;9.4145;0.4742;-2.7041;-7.1904;-2.6236;3.8881;0.6173;-0.0221;0.7248;293.3;-26.61;-10.95;12.99;138.55;-6.77;-102.98;2.0;35.958313;-83.92441;817.29;NaN;0.0;12.226105;;4 / 23;26510;2022-09-09 16:26:18:720
7.6041;2.3121;9.2507;9.3481;0.7672;-2.8628;-3.8885;-1.2833;-0.1653;-0.0402;0.1177;-0.0518;239.3;-24.51;-2.51;10.78;93.92;-5.37;-97.01;2.0;35.958313;-83.92441;817.29;NaN;0.0;12.226105;;4 / 23;27011;2022-09-09 16:26:19:221
22.2428;-6.0781;-1.6295;9.7817;0.373;0.5908;0.4585;3.5275;-0.4582;-1.2501;-0.5276;1.3523;98.8;-25.91;12.43;0.64;11.18;-2.18;-86.54;2.0;35.958313;-83.92441;817.29;NaN;0.0;12.226105;;5 / 23;27511;2022-09-09 16:26:19:721
5.5056;-2.3815;3.9344;9.5739;0.7315;1.9939;-2.6964;-2.3407;2.0425;2.31;0.227;-0.7745;110.5;-23.23;21.21;-12.45;335.61;-1.21;-84.52;2.0;35.958313;-83.92441;817.29;NaN;0.0;12.226105;;5 / 23;28010;2022-09-09 16:26:20:220
4.0023;1.7064;-3.3293;9.581;1.0875;1.7864;-3.7127;-1.0411;0.6941;0.3616;0.5617;-0.3858;73.6;-20.72;22.99;-16.82;327.33;-3.79;-86.4;2.0;35.958313;-83.92441;817.29;NaN;0.0;12.226105;;4 / 23;28511;2022-09-09 16:26:20:721
8.3306;1.5628;-0.0075;9.4573;1.1528;2.324;-1.6562;-0.4052;-1.328;-0.047;-0.1999;0.7857;62.7;-19.18;25.8;-18.37;338.59;-9.07;-72.67;0.0;35.958313;-83.92441;817.29;NaN;0.0;12.226105;;4 / 23;29010;2022-09-09 16:26:21:220
8.7257;0.8554;-3.146;9.717;0.899;0.9711;-5.0071;0.3276;-1.1728;0.4699;1.0336;-0.2951;40.2;-24.24;36.49;-20.04;335.38;-5.26;-84.29;0.0;35.958313;-83.92441;817.29;NaN;0.0;12.226105;;5 / 23;29511;2022-09-09 16:26:21:721
12.2187;7.9813;-10.3618;9.3391;0.9228;-2.8462;0.4666;5.5355;-5.1331;-2.8036;-1.2651;3.0739;25.6;-32.7;30.79;-30.56;318.45;-18.59;-96.17;0.0;35.958313;-83.92441;817.29;NaN;0.0;12.226105;;5 / 23;30011;2022-09-09 16:26:22:221
10.3645;4.049;-2.0471;9.5293;2.3156;0.0034;-1.6947;1.1727;-1.712;2.202;-0.1881;-0.4951;19.4;-33.9;26.57;-27.04;321.57;-8.38;-87.16;0.0;35.958313;-83.92441;817.29;NaN;0.0;12.226105;;5 / 22;30510;2022-09-09 16:26:22:720
6.6751;3.7032;1.3777;9.2222;3.3333;-0.1064;-1.4714;-0.6092;1.6067;1.4944;-1.2474;-0.4115;17.9;-25.13;1.05;-26.78;291.48;-17.87;-83.72;0.0;35.958313;-83.92441;817.29;NaN;0.0;12.226105;;5 / 22;31011;2022-09-09 16:26:23:221
15.9978;2.6833;0.2166;9.4042;2.3812;-1.4357;-2.978;-0.9496;0.508;0.9095;0.0579;-0.2663;20.3;-22.5;-8.1;-22.2;262.53;-14.05;-98.68;0.0;35.958313;-83.92441;817.29;NaN;0.0;12.226105;;4 / 22;31511;2022-09-09 16:26:23:721
3.964;-0.2518;-1.9334;9.7456;1.0865;0.1171;-4.4051;0.7362;-3.4115;-2.1369;1.6549;0.8789;20.3;-30.97;-13.56;-8.14;238.64;-13.48;-95.27;0.0;35.958313;-83.92441;817.29;NaN;0.0;12.226105;;4 / 22;32010;2022-09-09 16:26:24:220
3.0685;-0.9389;-2.9103;9.6889;1.3546;-0.6787;-4.5431;-1.4192;-4.9317;0.8963;1.729;0.3907;17.1;-38.42;-10.84;5.68;218.02;-12.85;-101.51;2.0;35.958313;-83.92441;817.29;NaN;0.0;12.226105;;2 / 22;32511;2022-09-09 16:26:24:721
8.4517;3.4768;-4.1109;9.6924;1.3935;0.5353;0.0365;-3.276;-3.2475;2.9086;-0.576;-0.6111;17.1;-46.05;-3.71;13.39;68.98;-12.03;-88.08;2.0;35.958313;-83.92441;817.29;NaN;0.0;12.226105;;2 / 22;33011;2022-09-09 16:26:25:221
8.4517;4.643;0.8019;9.4669;2.5523;0.1846;-0.7272;0.4601;-0.3374;-1.1506;-0.2275;0.3816;23.4;-47.87;-2.89;26.51;70.6;-17.53;-85.25;2.0;35.958313;-83.92441;817.29;NaN;0.0;12.226105;;2 / 20;33512;2022-09-09 16:26:25:722
6.9613;-0.1143;-0.5509;9.6447;0.0831;1.7728;-0.2746;0.8708;-0.3425;0.498;0.7529;0.2793;24.1;-55.09;14.34;22.26;65.45;-0.49;-79.58;2.0;35.958313;-83.92441;817.29;NaN;0.0;12.226105;;2 / 20;34011;2022-09-09 16:26:26:221
2.9489;-0.4795;0.3541;9.7569;0.8441;0.51;-2.6371;1.8959;-4.3894;-1.5902;-0.5224;0.7623;27.7;-52.13;12.92;14.06;40.77;-8.37;-86.12;2.0;35.958313;-83.92441;817.29;NaN;0.0;12.226105;;3 / 19;34513;2022-09-09 16:26:26:723
6.6787;-1.4524;-0.3497;9.7132;1.1317;0.7366;-2.6203;-1.1305;-0.5901;-0.6098;-0.017;0.2928;23.4;-40.69;-0.79;16.65;79.89;-6.63;-85.66;2.0;35.958313;-83.92441;817.29;NaN;0.0;12.226105;;3 / 19;35011;2022-09-09 16:26:27:221
3.6323;2.1386;-0.4035;9.6886;1.4385;-0.4811;-1.6826;-0.3872;1.1566;0.8523;0.1711;-0.2236;23.4;-30.39;-0.56;20.44;79.13;-8.43;-92.84;2.0;35.958313;-83.92441;817.29;NaN;0.0;12.226105;;3 / 19;35510;2022-09-09 16:26:27:720
16.2625;2.706;0.0141;9.5664;1.7822;-1.2155;-3.2178;-0.4562;1.9371;-0.3774;-0.3247;0.2604;23.4;-28.42;13.11;19.71;41.73;-10.47;-97.24;2.0;35.958313;-83.92441;817.29;NaN;0.0;12.226105;;3 / 19;36011;2022-09-09 16:26:28:221
22.1782;2.6306;-3.3616;9.6376;1.5672;-0.9115;-1.167;0.5886;1.5556;0.0664;0.091;0.2851;20.9;-30.81;18.62;12.23;20.01;-10.29;-95.65;2.0;35.958313;-83.92441;817.29;NaN;0.0;12.226105;;4 / 18;36511;2022-09-09 16:26:28:721
16.2853;4.8212;-3.6655;9.5826;1.5195;-1.4268;-5.3772;-2.4671;-1.2687;0.6161;-1.3332;-0.3647;20.9;-37.44;12.43;6.04;24.8;-6.49;-87.78;2.0;35.958313;-83.92441;817.29;NaN;0.0;12.226105;;4 / 18;37011;2022-09-09 16:26:29:221
15.8794;4.1641;-6.1472;9.6071;1.9156;-0.4514;5.2669;0.0154;4.1737;0.5257;0.1118;0.0057;26.5;-40.56;0.11;10.24;44.9;-11.26;-92.69;2.0;35.958313;-83.92441;817.29;NaN;0.0;12.226105;;3 / 17;37511;2022-09-09 16:26:29:721
10.0929;5.3264;-0.856;9.5667;1.9414;-0.9377;1.6865;3.7208;-0.4469;-0.3348;0.6802;0.3275;31.8;-42.77;10.58;25.93;47.66;-11.42;-95.6;2.0;35.958313;-83.92441;817.29;NaN;0.0;12.226105;;3 / 17;38013;2022-09-09 16:26:30:223
3.4062;2.7646;2.4754;9.6762;1.5539;0.3571;12.7967;-0.6123;7.8108;-0.6873;2.5411;0.0254;36.3;-46.26;23.61;23.57;10.51;-6.96;-111.38;2.0;35.958313;-83.92441;817.29;NaN;0.0;12.226105;;2 / 16;38511;2022-09-09 16:26:30:721
5.8337;1.2275;-6.4271;9.632;1.8276;-0.2328;-0.2151;0.3125;0.3625;2.0593;1.7647;0.2537;53.7;-57.69;27.06;-2.89;351.75;-11.79;-92.52;2.0;35.958313;-83.92441;817.29;NaN;0.0;12.226105;;2 / 16;39011;2022-09-09 16:26:31:221
13.046;2.6151;2.5998;9.5512;0.958;-2.0068;4.5633;-0.7826;-0.3982;1.3565;1.4747;-0.8767;77.6;-70.46;-9.96;-15.56;263.2;-5.61;-101.87;2.0;35.958313;-83.92441;817.29;NaN;0.0;12.226105;;1 / 16;39510;2022-09-09 16:26:31:720
11.7604;5.0928;2.6058;9.4316;2.0258;-1.7642;4.3829;2.1145;-0.6639;0.6202;-0.2711;-0.0628;89.2;-80.12;-25.86;28.93;118.56;-10.69;-97.27;2.0;35.958313;-83.92441;817.29;NaN;0.0;12.226105;;1 / 16;40011;2022-09-09 16:26:32:221
10.1312;3.7008;-1.6223;9.5822;2.0725;0.2396;-1.94;3.853;-0.9923;-0.6821;-0.0844;0.7079;76.4;-95.1;2.16;40.65;63.3;-12.2;-88.57;2.0;35.958313;-83.92441;817.29;NaN;0.0;12.226105;;0 / 15;40511;2022-09-09 16:26:32:721
9.9897;-0.3595;1.4638;9.7393;1.1296;0.1984;-0.8197;-2.513;-0.3482;2.2874;-0.4054;0.0791;99.4;-77.27;28.74;24.38;44.5;-3.35;-83.41;2.0;35.958313;-83.92441;817.29;NaN;0.0;12.226105;;0 / 15;41011;2022-09-09 16:26:33:221
5.8672;2.0333;-0.5438;9.5554;2.0791;0.7368;-1.6865;1.6839;1.7077;0.3252;-0.121;0.0265;155.1;-68.46;28.29;1.46;11.0;-11.68;-84.1;2.0;35.958313;-83.92441;817.29;NaN;0.0;12.226105;;1 / 15;41511;2022-09-09 16:26:33:721
4.3193;-0.3296;-1.086;9.6435;0.4087;-1.7339;-1.014;-1.999;-1.3324;-0.585;0.0959;-1.5001;308.6;-57.92;21.47;4.56;347.14;-2.39;-100.19;2.0;35.958313;-83.92441;817.29;NaN;0.0;12.226105;;1 / 15;42011;2022-09-09 16:26:34:221
8.2732;1.5173;-7.1644;9.6449;1.5451;-0.8711;-2.1393;-1.2008;-3.7985;-1.1449;0.9579;-0.3561;267.6;-49.76;16.05;13.44;0.47;-5.39;-104.39;2.0;35.958313;-83.92441;817.29;NaN;0.0;12.226105;;1 / 14;42511;2022-09-09 16:26:34:721
5.7631;-0.2112;-2.9019;9.44;2.244;-1.422;-3.0743;0.0583;1.3231;0.2884;0.0205;0.1961;319.1;-43.65;14.76;16.86;16.84;-13.14;-101.82;2.0;35.958313;-83.92441;817.29;NaN;0.0;12.226105;;1 / 14;43011;2022-09-09 16:26:35:221
2.385;0.9882;-2.6719;9.5269;2.1407;-0.9085;-3.9337;-3.2278;0.8181;0.086;-0.7221;-0.7467;174.4;-41.51;20.23;13.86;18.98;-12.61;-95.45;2.0;35.958313;-83.92441;817.29;NaN;0.0;12.226105;;1 / 12;43513;2022-09-09 16:26:35:723
14.9839;8.9749;-6.2931;9.1136;3.1275;-1.825;-1.8905;-3.0619;2.3645;0.5196;0.4984;-0.7646;132.8;-43.31;22.74;4.43;352.74;-18.6;-101.32;2.0;35.958313;-83.92441;817.29;NaN;0.0;12.226105;;1 / 12;44011;2022-09-09 16:26:36:221
17.2259;2.3755;-3.7086;9.3976;1.7047;-2.2248;2.5951;1.9157;5.8661;2.5094;0.3193;0.0699;59.5;-47.31;21.84;1.37;346.86;-16.38;-100.99;2.0;35.958313;-83.92441;817.29;NaN;0.0;12.226105;;1 / 11;44513;2022-09-09 16:26:36:723
11.1185;5.5023;-17.592;8.3096;2.7112;-4.4465;-1.7348;-3.8781;7.6876;6.6348;-4.8367;-1.4682;59.5;-54.73;24.24;-6.17;318.8;-16.05;-118.15;2.0;35.958313;-83.92441;817.29;NaN;0.0;12.226105;;1 / 11;45012;2022-09-09 16:26:37:222
8.0495;0.137;-0.7412;9.422;0.6428;-2.6425;8.3042;-0.0099;-7.2243;-1.9368;0.7315;0.0032;31.1;-59.7;24.19;-8.61;319.27;-6.09;-106.4;2.0;35.958313;-83.92441;817.29;NaN;0.0;12.226105;;3 / 11;45511;2022-09-09 16:26:37:721
3.7735;-0.5979;-2.5403;9.1276;1.03;-3.4346;-4.5054;-1.4976;-4.6979;-2.6252;0.7563;0.5271;25.7;-63.07;32.91;-6.86;320.62;-4.63;-112.6;2.0;35.958313;-83.92441;817.29;NaN;0.0;12.226105;;3 / 11;46011;2022-09-09 16:26:38:221
3.4122;2.0548;-10.0244;8.1074;1.2071;-5.3836;8.1629;4.0863;-8.1358;-2.2463;1.1496;-1.2557;20.5;-58.59;35.87;9.3;329.33;-7.07;-123.59;2.0;35.958313;-83.92441;817.29;NaN;0.0;12.226105;;4 / 11;46510;2022-09-09 16:26:38:720
2.482;0.4244;-5.7221;8.2798;3.3315;-4.064;-2.7683;-2.2017;-3.4904;0.1323;1.3919;-0.8488;15.1;-51.43;24.15;1.41;330.59;-19.86;-116.14;2.0;35.958313;-83.92441;817.29;NaN;0.0;12.226105;;4 / 11;47011;2022-09-09 16:26:39:221
7.433;0.7585;-2.8158;8.5438;3.1154;-3.6699;-0.5015;-1.1109;-2.3845;-1.4835;0.6592;0.796;11.1;-44.1;7.31;-9.99;296.94;-16.73;-121.46;2.0;35.958313;-83.92441;817.29;NaN;0.0;12.226105;;3 / 10;47511;2022-09-09 16:26:39:721
4.8389;-0.0688;-2.9988;9.1385;3.2427;-1.4642;-3.0921;-1.9539;-2.6086;0.7216;1.1083;-0.2094;11.2;-30.82;9.02;-25.91;295.07;-18.31;-105.91;2.0;35.958313;-83.92441;817.29;NaN;0.0;12.226105;;3 / 10;48010;2022-09-09 16:26:40:220
7.8676;-1.8488;1.9367;9.4166;2.6992;-0.4604;0.1587;3.0292;-6.8544;-3.5102;1.7139;1.3371;20.0;-9.11;-22.61;-23.55;230.04;-14.71;-101.26;2.0;35.958313;-83.92441;817.29;NaN;0.0;12.226105;;3 / 9;48511;2022-09-09 16:26:40:721
6.1184;1.2538;-0.6479;8.7005;2.0937;-4.0109;-0.9093;2.0783;-1.8679;-1.6016;1.5332;0.3016;20.7;12.68;-25.26;-2.46;172.38;-12.33;-114.75;2.0;35.958313;-83.92441;817.29;NaN;0.0;12.226105;;3 / 9;49013;2022-09-09 16:26:41:223
5.2448;3.3081;-1.0597;8.4276;3.7517;-3.3273;3.8018;-0.0158;-5.0313;0.349;1.1443;-1.188;18.0;19.78;-9.83;12.81;138.1;-18.5;-115.71;2.0;35.958313;-83.92441;817.29;NaN;0.0;12.226105;;3 / 9;49511;2022-09-09 16:26:41:721
9.6033;0.5847;-1.675;8.9485;3.1685;-2.4607;-3.7289;-0.459;0.36;0.6344;0.1457;0.2353;18.0;15.88;5.18;17.72;80.9;-12.67;-119.53;2.0;35.958313;-83.92441;817.29;NaN;0.0;12.226105;;3 / 9;50011;2022-09-09 16:26:42:221
9.1651;1.6657;-5.2828;8.7407;3.4457;-2.8103;2.8656;5.3605;6.1642;0.8566;2.689;-1.2771;18.0;4.78;13.05;16.01;53.91;-20.57;-107.82;2.0;35.958313;-83.92441;817.29;NaN;0.0;12.226105;;3 / 9;50511;2022-09-09 16:26:42:721
7.1264;0.3969;-2.8134;9.1724;2.5714;-2.3292;-0.7644;-1.8328;-0.8296;-0.1862;0.2501;-0.0221;14.9;-1.31;26.29;22.13;35.85;-11.93;-113.27;2.0;35.958313;-83.92441;817.29;NaN;0.0;12.226105;;3 / 9;51011;2022-09-09 16:26:43:221
6.0814;6.9018;-17.1993;8.1172;2.1481;-5.0663;7.1072;3.3802;5.696;2.7351;0.1415;-1.2225;17.7;-10.67;32.23;21.15;25.79;-16.76;-106.21;2.0;35.958313;-83.92441;817.29;NaN;0.0;12.226105;;2 / 9;51513;2022-09-09 16:26:43:723
6.0706;5.3109;-2.1275;9.4572;1.6821;-1.9753;2.4415;-3.7168;-1.1796;0.5886;-0.461;-0.7054;13.6;-21.24;33.88;14.94;17.0;-14.89;-98.22;2.0;35.958313;-83.92441;817.29;NaN;0.0;12.226105;;2 / 9;52011;2022-09-09 16:26:44:221
6.9494;1.7686;0.0476;9.0903;2.3966;-2.7916;2.9748;3.2304;-4.3152;-0.8214;0.853;0.5935;18.4;-20.76;30.19;8.79;4.03;-14.15;-107.07;2.0;35.958313;-83.92441;817.29;NaN;0.0;12.226105;;1 / 9;52511;2022-09-09 16:26:44:721
3.5426;0.7056;-2.4111;9.2448;1.8218;-2.7177;-1.1309;0.4497;2.1562;0.8609;0.7465;-0.3983;18.4;-23.08;20.79;2.89;351.75;-10.71;-106.38;2.0;35.958313;-83.92441;817.29;NaN;0.0;12.226105;;1 / 9;53010;2022-09-09 16:26:45:220
4.1459;1.0169;-0.4334;9.4294;2.2781;-1.4381;-1.9494;-0.3121;-0.7716;-0.3767;1.3787;0.1009;16.5;-26.32;18.08;6.39;4.85;-13.43;-98.67;2.0;35.958313;-83.92441;817.29;NaN;0.0;12.226105;;1 / 9;53511;2022-09-09 16:26:45:721
7.0056;-1.0193;-3.2671;9.403;2.768;0.3019;-5.2135;-1.7192;1.4709;0.5275;-0.8036;0.2295;19.3;-29.76;21.39;8.06;17.43;-16.4;-88.16;2.0;35.958313;-83.92441;817.29;NaN;0.0;12.226105;;1 / 9;54010;2022-09-09 16:26:46:220
7.3887;3.21;4.7581;9.1125;3.5481;-0.7376;-2.0534;-1.1756;-1.171;-0.6487;0.9145;-0.0637;20.5;-33.99;24.92;11.01;12.9;-21.21;-94.63;2.0;35.958313;-83.92441;817.29;NaN;0.0;12.226105;;1 / 9;54510;2022-09-09 16:26:46:720
13.4288;6.4624;5.7589;9.3172;3.0594;0.0153;-2.7122;-2.3686;-2.9906;1.4137;0.3299;-0.4368;24.3;-29.92;19.18;6.83;14.42;-18.18;-89.91;2.0;35.958313;-83.92441;817.29;NaN;0.0;12.226105;;1 / 9;55011;2022-09-09 16:26:47:221
7.3636;2.2666;-3.1053;9.3538;2.3769;-1.74;-2.1659;0.0923;-1.4871;-1.0084;0.1512;0.6007;27.8;-24.97;9.99;7.46;9.45;-19.15;-99.05;2.0;35.958313;-83.92441;817.29;NaN;0.0;12.226105;;1 / 9;55511;2022-09-09 16:26:47:721
6.8608;-0.8372;-2.4817;9.5308;2.2091;0.6732;-6.3337;-1.4163;0.0473;1.1089;1.2112;0.4355;34.7;-3.43;7.74;4.76;31.79;-13.02;-85.96;2.0;35.958313;-83.92441;817.29;NaN;0.0;12.226105;;1 / 9;56012;2022-09-09 16:26:48:222
8.2732;6.393;-3.37;8.688;4.3804;-1.2251;-4.1679;-2.8705;-0.1929;0.4742;1.2645;0.0232;44.4;-26.19;17.49;-6.62;338.1;-26.53;-98.03;2.0;35.958313;-83.92441;817.29;NaN;0.0;12.226105;;1 / 9;56511;2022-09-09 16:26:48:721
9.0215;3.32;-1.5673;9.2931;2.984;-0.9514;-1.8219;-1.492;2.0487;1.642;-0.1956;0.0762;52.2;-36.51;25.71;-21.11;325.08;-17.71;-95.85;2.0;35.958313;-83.92441;817.29;NaN;0.0;12.226105;;1 / 9;57011;2022-09-09 16:26:49:221
11.5304;3.1705;0.8246;9.0985;3.1671;-1.8321;2.6719;2.2767;0.0534;-0.2282;-1.4938;0.2755;62.9;-37.54;29.63;-30.17;316.22;-18.84;-101.38;2.0;35.958313;-83.92441;817.29;NaN;0.0;12.226105;;2 / 9;57511;2022-09-09 16:26:49:721
9.1843;3.2351;-1.7061;9.019;2.7722;-2.6726;3.1706;1.4157;0.3777;0.883;-1.2082;-0.0688;79.4;-31.59;21.88;-36.86;305.88;-18.58;-97.27;2.0;35.958313;-83.92441;817.29;NaN;0.0;12.226105;;2 / 9;58011;2022-09-09 16:26:50:221
14.5457;5.5011;3.603;8.428;3.4199;-3.6666;4.7692;0.5935;4.6371;1.7706;-0.4671;-0.4899;98.9;-19.28;1.58;-31.33;280.16;-21.06;-102.35;2.0;35.958313;-83.92441;817.29;NaN;0.0;12.226105;;3 / 9;58511;2022-09-09 16:26:50:721
4.8317;2.8807;-2.9952;9.3114;2.688;-1.4974;-4.5086;0.9205;-1.3373;0.2152;0.334;0.6199;98.9;15.84;-34.86;-7.22;186.13;-22.77;-99.81;2.0;35.958313;-83.92441;817.29;NaN;0.0;12.226105;;3 / 9;59011;2022-09-09 16:26:51:221
5.9342;0.1947;-2.854;9.1538;3.5047;0.3087;-4.1054;-2.1627;-3.932;-0.0396;-0.3302;-0.2258;198.2;22.97;-27.6;6.79;169.76;-20.94;-88.07;2.0;35.958313;-83.92441;817.29;NaN;0.0;12.226105;;4 / 9;59511;2022-09-09 16:26:51:721
8.1846;1.3187;3.5097;9.2013;3.3894;-0.1349;-4.1286;-1.8407;-2.4891;-0.7406;-0.4153;0.5968;250.2;25.73;-20.91;5.48;169.37;-20.22;-90.84;2.0;35.958313;-83.92441;817.29;NaN;0.0;12.226105;;4 / 9;60011;2022-09-09 16:26:52:221
9.705;2.8615;10.5876;8.7792;3.4532;-2.6779;-2.0172;-4.0037;0.9417;0.9972;-2.5697;0.0336;151.2;22.69;-14.98;-1.84;181.91;-24.79;-93.04;2.0;35.958313;-83.92441;817.29;NaN;0.0;12.226105;;4 / 9;60511;2022-09-09 16:26:52:721
20.196;0.6577;5.0536;9.2201;3.2665;-0.7008;-6.6761;-0.5129;1.2359;-1.392;0.7128;0.0014;103.9;12.43;-9.15;-0.67;180.4;-19.46;-94.35;2.0;35.958313;-83.92441;817.29;NaN;0.0;12.226105;;4 / 9;61011;2022-09-09 16:26:53:221
7.4725;3.6529;-5.0877;8.6075;2.8632;-3.7261;0.2094;-0.4539;-1.1999;0.6828;1.239;-0.2081;52.7;1.48;-5.59;-0.67;183.2;-14.97;-120.92;2.0;35.958313;-83.92441;817.29;NaN;0.0;12.226105;;4 / 9;61511;2022-09-09 16:26:53:721
4.4318;-0.6625;2.3737;9.5128;2.2693;-0.7257;4.5454;-1.6149;-3.7607;-2.2654;2.4257;-0.463;35.3;-6.34;-4.24;-3.38;233.41;-13.38;-94.36;2.0;35.958313;-83.92441;817.29;NaN;0.0;12.226105;;4 / 9;62011;2022-09-09 16:26:54:221
3.6574;-0.3882;-1.2727;9.2077;1.9349;-2.7648;-1.2725;1.1193;-5.8712;0.4506;0.3945;-0.2904;28.6;-11.01;3.19;-4.39;304.42;-11.38;-106.71;2.0;35.958313;-83.92441;817.29;NaN;0.0;12.226105;;4 / 9;62511;2022-09-09 16:26:54:721
4.1626;-0.2662;0.6305;9.3699;2.4012;-1.6151;-4.3268;-2.2108;-1.3589;-0.3015;0.5959;-0.2633;19.8;-13.11;12.28;-6.99;326.05;-12.43;-101.87;2.0;35.958313;-83.92441;817.29;NaN;0.0;12.226105;;4 / 9;63011;2022-09-09 16:26:55:221
9.516;-0.9173;0.1615;9.6099;1.4539;-1.3064;-4.3552;-0.9462;-0.4425;-0.2234;-0.2256;0.348;14.8;-12.24;17.78;-11.72;325.5;-11.24;-97.76;2.0;35.958313;-83.92441;817.29;NaN;0.0;12.226105;;3 / 9;63511;2022-09-09 16:26:55:721
10.9654;6.9509;-0.4385;9.2229;3.2094;-0.8987;3.6482;-2.9578;0.3295;1.4398;-0.3302;-0.6835;16.0;-5.91;13.88;-24.04;300.51;-19.1;-95.57;2.0;35.958313;-83.92441;817.29;NaN;0.0;12.226105;;3 / 9;64012;2022-09-09 16:26:56:222
8.205;2.9465;-4.9322;8.5203;4.5992;-1.5563;0.3053;1.4469;-2.0694;0.1109;0.6316;0.4085;15.6;7.73;-21.36;-16.31;211.23;-27.97;-100.35;2.0;35.958313;-83.92441;817.29;NaN;0.0;12.226105;;2 / 9;64511;2022-09-09 16:26:56:721
8.0518;3.4086;-1.3433;9.1248;3.5841;-0.251;-0.3443;-0.3552;-0.3833;0.3826;0.4243;-0.4544;13.7;2.59;-25.84;-10.65;203.24;-21.44;-91.58;2.0;35.958313;-83.92441;817.29;NaN;0.0;12.226105;;2 / 9;65011;2022-09-09 16:26:57:221
7.2209;3.4421;-1.0167;8.7732;3.9595;-1.8771;-0.7771;-0.1405;0.0904;-0.9123;0.004;0.2853;17.5;3.39;-41.77;9.3;166.21;-24.43;-104.12;2.0;35.958313;-83.92441;817.29;NaN;0.0;12.226105;;1 / 9;65510;2022-09-09 16:26:57:720
6.6141;-0.3129;0.6257;9.6003;1.5529;-1.2619;-0.3926;1.631;-6.0726;0.4333;2.9616;-1.4874;18.3;3.84;-34.28;29.04;138.94;-9.11;-97.49;2.0;35.958313;-83.92441;817.29;NaN;0.0;12.226105;;1 / 9;66011;2022-09-09 16:26:58:221
6.9135;2.4703;-1.7563;8.7637;1.8502;-3.9931;0.5204;2.7814;-10.9009;-1.7438;-0.6575;0.2953;21.7;5.89;-9.32;25.16;107.41;-10.87;-114.5;2.0;35.958313;-83.92441;817.29;NaN;0.0;12.226105;;1 / 9;66510;2022-09-09 16:26:58:720
11.3773;2.7036;-8.5268;8.4505;1.2102;-4.8264;4.7778;-0.3309;6.9681;-0.6845;2.3028;-0.9434;14.1;6.08;-4.18;18.34;100.69;-7.09;-119.73;2.0;35.958313;-83.92441;817.29;NaN;0.0;12.226105;;1 / 9;67011;2022-09-09 16:26:59:221
11.7386;10.0008;1.1907;8.8651;3.4067;-2.4445;3.7877;6.1083;0.7886;1.1734;-0.1489;-1.0901;17.6;0.38;-4.05;15.99;98.38;-20.33;-105.42;2.0;35.958313;-83.92441;817.29;NaN;0.0;12.226105;;1 / 9;67510;2022-09-09 16:26:59:720
16.5461;6.8201;2.6417;9.2372;3.089;-1.141;-3.6223;0.6975;-4.6389;1.458;-2.9809;-0.0095;15.9;-1.63;-8.62;18.6;106.93;-24.19;-104.71;2.0;35.958313;-83.92441;817.29;NaN;0.0;12.226105;;1 / 9;68010;2022-09-09 16:27:00:220
6.4442;1.2646;-2.1646;9.0994;3.4384;-1.2444;-2.6352;-2.4923;-1.6982;0.7012;0.1431;-0.2161;16.7;-7.57;-5.57;15.39;100.61;-19.59;-92.73;2.0;35.958313;-83.92441;817.29;NaN;0.0;12.226105;;0 / 9;68511;2022-09-09 16:27:00:721
3.4229;2.1051;-3.2671;9.2554;3.1046;-0.9326;-0.3545;-1.1842;0.9674;-0.3736;0.4583;0.1923;13.2;-1.16;-9.32;8.79;132.26;-16.65;-103.13;2.0;35.958313;-83.92441;817.29;NaN;0.0;12.226105;;0 / 9;69011;2022-09-09 16:27:01:221
6.9625;-0.9532;-3.2671;9.477;2.5075;-0.2626;-3.5762;-2.0425;-2.6025;0.7918;-0.3438;0.2168;13.3;4.52;-14.76;1.73;173.33;-14.51;-88.26;2.0;35.958313;-83.92441;817.29;NaN;0.0;12.226105;;1 / 9;69511;2022-09-09 16:27:01:721
7.9059;-0.6099;0.8761;9.4687;2.3742;-0.9366;1.1432;6.5763;-6.5795;-1.8719;-0.1051;1.0166;13.0;8.03;-14.33;5.57;156.26;-14.01;-95.65;2.0;35.958313;-83.92441;817.29;NaN;0.0;12.226105;;1 / 9;70011;2022-09-09 16:27:02:221
7.9059;-0.6099;0.8761;9.4687;2.3742;-0.9366;1.1432;6.5763;-6.5795;-1.8719;-0.1051;1.0166;16.1;8.03;-14.33;5.57;156.26;-14.01;-95.65;2.0;35.958313;-83.92441;817.29;NaN;0.0;12.226105;;1 / 9;70511;2022-09-09 16:27:02:721
7.9059;-0.6099;0.8761;9.4687;2.3742;-0.9366;1.1432;6.5763;-6.5795;-1.8719;-0.1051;1.0166;14.3;8.03;-14.33;5.57;156.26;-14.01;-95.65;2.0;35.958313;-83.92441;817.29;NaN;0.0;12.226105;;1 / 9;71011;2022-09-09 16:27:03:221
20.9082;0.871;-5.3115;9.4687;2.3742;-0.9366;1.1432;6.5763;-6.5795;-1.8719;-0.1051;1.0166;14.3;8.03;-14.33;5.57;156.26;-14.01;-95.65;2.0;35.958313;-83.92441;817.29;NaN;0.0;12.226105;;1 / 9;71511;2022-09-09 16:27:03:721
20.9082;0.871;-5.3115;9.4687;2.3742;-0.9366;1.1432;6.5763;-6.5795;-1.8719;-0.1051;1.0166;16.4;8.03;-14.33;5.57;156.26;-14.01;-95.65;2.0;35.958313;-83.92441;817.29;NaN;0.0;12.226105;;1 / 9;72011;2022-09-09 16:27:04:221
14.2525;5.0151;-1.8401;9.4687;2.3742;-0.9366;1.1432;6.5763;-6.5795;-1.8719;-0.1051;1.0166;16.4;8.03;-14.33;5.57;156.26;-14.01;-95.65;2.0;35.958313;-83.92441;817.29;NaN;0.0;12.226105;;1 / 9;72510;2022-09-09 16:27:04:720
14.2525;5.0151;-1.8401;9.4687;2.3742;-0.9366;1.1432;6.5763;-6.5795;-1.8719;-0.1051;1.0166;18.3;8.03;-14.33;5.57;156.26;-14.01;-95.65;2.0;35.958313;-83.92441;817.29;NaN;0.0;12.226105;;1 / 9;73013;2022-09-09 16:27:05:223
14.2525;5.0151;-1.8401;9.4687;2.3742;-0.9366;1.1432;6.5763;-6.5795;-1.8719;-0.1051;1.0166;24.8;8.03;-14.33;5.57;156.26;-14.01;-95.65;2.0;35.958313;-83.92441;817.29;NaN;0.0;12.226105;;1 / 9;73511;2022-09-09 16:27:05:721
3.7807;2.0154;-4.2437;9.4687;2.3742;-0.9366;1.1432;6.5763;-6.5795;-1.8719;-0.1051;1.0166;24.8;8.03;-14.33;5.57;156.26;-14.01;-95.65;2.0;35.958313;-83.92441;817.29;NaN;0.0;12.226105;;1 / 9;74010;2022-09-09 16:27:06:220
9.0048;5.4126;-5.1033;9.4687;2.3742;-0.9366;1.1432;6.5763;-6.5795;-1.8719;-0.1051;1.0166;28.0;8.03;-14.33;5.57;156.26;-14.01;-95.65;2.0;35.958313;-83.92441;817.29;NaN;0.0;12.226105;;1 / 9;74512;2022-09-09 16:27:06:722
9.0048;5.4126;-5.1033;9.4687;2.3742;-0.9366;1.1432;6.5763;-6.5795;-1.8719;-0.1051;1.0166;36.6;8.03;-14.33;5.57;156.26;-14.01;-95.65;2.0;35.958313;-83.92441;817.29;NaN;0.0;12.226105;;1 / 9;75011;2022-09-09 16:27:07:221
6.1606;3.708;-1.3875;9.4687;2.3742;-0.9366;1.1432;6.5763;-6.5795;-1.8719;-0.1051;1.0166;57.4;8.03;-14.33;5.57;156.26;-14.01;-95.65;2.0;35.958313;-83.92441;817.29;NaN;0.0;12.226105;;1 / 9;75511;2022-09-09 16:27:07:721
6.1606;3.708;-1.3875;9.4687;2.3742;-0.9366;1.1432;6.5763;-6.5795;-1.8719;-0.1051;1.0166;70.8;8.03;-14.33;5.57;156.26;-14.01;-95.65;2.0;35.958313;-83.92441;817.29;NaN;0.0;12.226105;;1 / 9;76011;2022-09-09 16:27:08:221
7.4581;3.4493;0.1783;9.4687;2.3742;-0.9366;1.1432;6.5763;-6.5795;-1.8719;-0.1051;1.0166;154.7;8.03;-14.33;5.57;156.26;-14.01;-95.65;2.0;35.958313;-83.92441;817.29;NaN;0.0;12.226105;;1 / 9;76511;2022-09-09 16:27:08:721
7.4581;3.4493;0.1783;9.4687;2.3742;-0.9366;1.1432;6.5763;-6.5795;-1.8719;-0.1051;1.0166;125.5;8.03;-14.33;5.57;156.26;-14.01;-95.65;2.0;35.958313;-83.92441;817.29;NaN;0.0;12.226105;;1 / 9;77011;2022-09-09 16:27:09:221
5.0354;8.4529;-1.2799;9.4687;2.3742;-0.9366;1.1432;6.5763;-6.5795;-1.8719;-0.1051;1.0166;106.1;8.03;-14.33;5.57;156.26;-14.01;-95.65;2.0;35.958313;-83.92441;817.29;NaN;0.0;12.226105;;1 / 9;77511;2022-09-09 16:27:09:721
5.0354;8.4529;-1.2799;9.4687;2.3742;-0.9366;1.1432;6.5763;-6.5795;-1.8719;-0.1051;1.0166;73.1;8.03;-14.33;5.57;156.26;-14.01;-95.65;2.0;35.958313;-83.92441;817.29;NaN;0.0;12.226105;;1 / 9;78013;2022-09-09 16:27:10:223
5.0354;8.4529;-1.2799;9.4687;2.3742;-0.9366;1.1432;6.5763;-6.5795;-1.8719;-0.1051;1.0166;65.8;8.03;-14.33;5.57;156.26;-14.01;-95.65;2.0;35.958313;-83.92441;817.29;NaN;0.0;12.226105;;1 / 9;78511;2022-09-09 16:27:10:721
10.7764;4.9505;2.8857;9.4687;2.3742;-0.9366;1.1432;6.5763;-6.5795;-1.8719;-0.1051;1.0166;39.6;8.03;-14.33;5.57;156.26;-14.01;-95.65;2.0;35.958313;-83.92441;817.29;NaN;0.0;12.226105;;1 / 9;79011;2022-09-09 16:27:11:221
10.7764;4.9505;2.8857;9.4687;2.3742;-0.9366;1.1432;6.5763;-6.5795;-1.8719;-0.1051;1.0166;36.5;8.03;-14.33;5.57;156.26;-14.01;-95.65;2.0;35.958313;-83.92441;817.29;NaN;0.0;12.226105;;1 / 9;79510;2022-09-09 16:27:11:720
4.9825;4.1629;0.4534;9.4687;2.3742;-0.9366;1.1432;6.5763;-6.5795;-1.8719;-0.1051;1.0166;28.5;8.03;-14.33;5.57;156.26;-14.01;-95.65;2.0;35.958313;-83.92441;817.29;NaN;0.0;12.226105;;1 / 9;80012;2022-09-09 16:27:12:222
4.9825;4.1629;0.4534;9.4687;2.3742;-0.9366;1.1432;6.5763;-6.5795;-1.8719;-0.1051;1.0166;23.3;8.03;-14.33;5.57;156.26;-14.01;-95.65;2.0;35.958313;-83.92441;817.29;NaN;0.0;12.226105;;1 / 9;80513;2022-09-09 16:27:12:723
6.1534;2.1374;-0.9805;9.4687;2.3742;-0.9366;1.1432;6.5763;-6.5795;-1.8719;-0.1051;1.0166;23.3;8.03;-14.33;5.57;156.26;-14.01;-95.65;2.0;35.958313;-83.92441;817.29;NaN;0.0;12.226105;;1 / 9;81013;2022-09-09 16:27:13:223
6.1534;2.1374;-0.9805;9.4687;2.3742;-0.9366;1.1432;6.5763;-6.5795;-1.8719;-0.1051;1.0166;26.6;8.03;-14.33;5.57;156.26;-14.01;-95.65;2.0;35.958313;-83.92441;817.29;NaN;0.0;12.226105;;1 / 9;81510;2022-09-09 16:27:13:720
6.8333;2.4607;-0.8369;9.4687;2.3742;-0.9366;1.1432;6.5763;-6.5795;-1.8719;-0.1051;1.0166;17.9;8.03;-14.33;5.57;156.26;-14.01;-95.65;2.0;35.958313;-83.92441;817.29;NaN;0.0;12.226105;;1 / 9;82012;2022-09-09 16:27:14:222
6.8333;2.4607;-0.8369;9.4687;2.3742;-0.9366;1.1432;6.5763;-6.5795;-1.8719;-0.1051;1.0166;15.6;8.03;-14.33;5.57;156.26;-14.01;-95.65;2.0;35.958313;-83.92441;817.29;NaN;0.0;12.226105;;1 / 9;82512;2022-09-09 16:27:14:722
3.7161;1.704;-2.484;9.4687;2.3742;-0.9366;1.1432;6.5763;-6.5795;-1.8719;-0.1051;1.0166;22.1;8.03;-14.33;5.57;156.26;-14.01;-95.65;2.0;35.958313;-83.92441;817.29;NaN;0.0;12.226105;;1 / 9;83011;2022-09-09 16:27:15:221
3.7161;1.704;-2.484;9.4687;2.3742;-0.9366;1.1432;6.5763;-6.5795;-1.8719;-0.1051;1.0166;25.5;8.03;-14.33;5.57;156.26;-14.01;-95.65;2.0;35.958313;-83.92441;817.29;NaN;0.0;12.226105;;1 / 9;83511;2022-09-09 16:27:15:721
6.1053;6.9975;-2.2543;9.4687;2.3742;-0.9366;1.1432;6.5763;-6.5795;-1.8719;-0.1051;1.0166;22.1;8.03;-14.33;5.57;156.26;-14.01;-95.65;2.0;35.958313;-83.92441;817.29;NaN;0.0;12.226105;;1 / 9;84011;2022-09-09 16:27:16:221
6.1053;6.9975;-2.2543;9.4687;2.3742;-0.9366;1.1432;6.5763;-6.5795;-1.8719;-0.1051;1.0166;16.3;8.03;-14.33;5.57;156.26;-14.01;-95.65;2.0;35.958313;-83.92441;817.29;NaN;0.0;12.226105;;1 / 9;84510;2022-09-09 16:27:16:720
8.0231;7.6391;-3.1184;9.4687;2.3742;-0.9366;1.1432;6.5763;-6.5795;-1.8719;-0.1051;1.0166;32.5;8.03;-14.33;5.57;156.26;-14.01;-95.65;2.0;35.958313;-83.92441;817.29;NaN;0.0;12.226105;;1 / 9;85014;2022-09-09 16:27:17:224
8.0231;7.6391;-3.1184;9.4687;2.3742;-0.9366;1.1432;6.5763;-6.5795;-1.8719;-0.1051;1.0166;37.5;8.03;-14.33;5.57;156.26;-14.01;-95.65;2.0;35.958313;-83.92441;817.29;NaN;0.0;12.226105;;1 / 9;85510;2022-09-09 16:27:17:720
8.0231;7.6391;-3.1184;9.4687;2.3742;-0.9366;1.1432;6.5763;-6.5795;-1.8719;-0.1051;1.0166;28.9;8.03;-14.33;5.57;156.26;-14.01;-95.65;2.0;35.958313;-83.92441;817.29;NaN;0.0;12.226105;;1 / 9;86011;2022-09-09 16:27:18:221
6.0359;5.8077;-1.3971;9.4687;2.3742;-0.9366;1.1432;6.5763;-6.5795;-1.8719;-0.1051;1.0166;22.5;8.03;-14.33;5.57;156.26;-14.01;-95.65;2.0;35.958313;-83.92441;817.29;NaN;0.0;12.226105;;1 / 9;86511;2022-09-09 16:27:18:721
4.6857;0.1768;-0.7101;9.4687;2.3742;-0.9366;1.1432;6.5763;-6.5795;-1.8719;-0.1051;1.0166;15.6;8.03;-14.33;5.57;156.26;-14.01;-95.65;2.0;35.958313;-83.92441;817.29;NaN;0.0;12.226105;;1 / 9;87010;2022-09-09 16:27:19:220
4.6857;0.1768;-0.7101;9.4687;2.3742;-0.9366;1.1432;6.5763;-6.5795;-1.8719;-0.1051;1.0166;15.6;8.03;-14.33;5.57;156.26;-14.01;-95.65;2.0;35.958313;-83.92441;817.29;NaN;0.0;12.226105;;1 / 9;87510;2022-09-09 16:27:19:720
4.6857;0.1768;-0.7101;9.4687;2.3742;-0.9366;1.1432;6.5763;-6.5795;-1.8719;-0.1051;1.0166;16.9;8.03;-14.33;5.57;156.26;-14.01;-95.65;2.0;35.958313;-83.92441;817.29;NaN;0.0;12.226105;;1 / 9;88011;2022-09-09 16:27:20:221
4.2284;4.1103;0.6832;9.4687;2.3742;-0.9366;1.1432;6.5763;-6.5795;-1.8719;-0.1051;1.0166;14.7;8.03;-14.33;5.57;156.26;-14.01;-95.65;2.0;35.958313;-83.92441;817.29;NaN;0.0;12.226105;;1 / 9;88510;2022-09-09 16:27:20:720
4.2284;4.1103;0.6832;9.4687;2.3742;-0.9366;1.1432;6.5763;-6.5795;-1.8719;-0.1051;1.0166;13.6;8.03;-14.33;5.57;156.26;-14.01;-95.65;2.0;35.958313;-83.92441;817.29;NaN;0.0;12.226105;;1 / 9;89013;2022-09-09 16:27:21:223
4.2284;4.1103;0.6832;9.4687;2.3742;-0.9366;1.1432;6.5763;-6.5795;-1.8719;-0.1051;1.0166;13.6;8.03;-14.33;5.57;156.26;-14.01;-95.65;2.0;35.958313;-83.92441;817.29;NaN;0.0;12.226105;;1 / 9;89511;2022-09-09 16:27:21:721
10.6304;-2.4832;-0.1116;9.4687;2.3742;-0.9366;1.1432;6.5763;-6.5795;-1.8719;-0.1051;1.0166;11.1;8.03;-14.33;5.57;156.26;-14.01;-95.65;2.0;35.958313;-83.92441;817.29;NaN;0.0;12.226105;;1 / 9;90011;2022-09-09 16:27:22:221
3.3523;1.9555;-0.454;9.4687;2.3742;-0.9366;1.1432;6.5763;-6.5795;-1.8719;-0.1051;1.0166;9.9;8.03;-14.33;5.57;156.26;-14.01;-95.65;2.0;35.958313;-83.92441;817.29;NaN;0.0;12.226105;;1 / 9;90511;2022-09-09 16:27:22:721
3.3523;1.9555;-0.454;9.4687;2.3742;-0.9366;1.1432;6.5763;-6.5795;-1.8719;-0.1051;1.0166;9.9;8.03;-14.33;5.57;156.26;-14.01;-95.65;2.0;35.958313;-83.92441;817.29;NaN;0.0;12.226105;;1 / 9;91013;2022-09-09 16:27:23:223
6.8429;0.4615;-1.8784;9.4687;2.3742;-0.9366;1.1432;6.5763;-6.5795;-1.8719;-0.1051;1.0166;7.2;8.03;-14.33;5.57;156.26;-14.01;-95.65;2.0;35.958313;-83.92441;817.29;NaN;0.0;12.226105;;1 / 9;91511;2022-09-09 16:27:23:721
6.8429;0.4615;-1.8784;9.4687;2.3742;-0.9366;1.1432;6.5763;-6.5795;-1.8719;-0.1051;1.0166;10.3;8.03;-14.33;5.57;156.26;-14.01;-95.65;2.0;35.958313;-83.92441;817.29;NaN;0.0;12.226105;;1 / 9;92011;2022-09-09 16:27:24:221
6.8429;0.4615;-1.8784;9.4687;2.3742;-0.9366;1.1432;6.5763;-6.5795;-1.8719;-0.1051;1.0166;12.2;8.03;-14.33;5.57;156.26;-14.01;-95.65;2.0;35.958313;-83.92441;817.29;NaN;0.0;12.226105;;1 / 9;92511;2022-09-09 16:27:24:721
8.0949;3.3799;-1.3636;9.4687;2.3742;-0.9366;1.1432;6.5763;-6.5795;-1.8719;-0.1051;1.0166;14.3;8.03;-14.33;5.57;156.26;-14.01;-95.65;2.0;35.958313;-83.92441;817.29;NaN;0.0;12.226105;;1 / 9;93010;2022-09-09 16:27:25:220
10.3932;3.0281;-1.1698;9.4687;2.3742;-0.9366;1.1432;6.5763;-6.5795;-1.8719;-0.1051;1.0166;14.3;8.03;-14.33;5.57;156.26;-14.01;-95.65;2.0;35.958313;-83.92441;817.29;NaN;0.0;12.226105;;1 / 9;93510;2022-09-09 16:27:25:720
10.3932;3.0281;-1.1698;9.4687;2.3742;-0.9366;1.1432;6.5763;-6.5795;-1.8719;-0.1051;1.0166;19.8;8.03;-14.33;5.57;156.26;-14.01;-95.65;2.0;35.958313;-83.92441;817.29;NaN;0.0;12.226105;;1 / 9;94011;2022-09-09 16:27:26:221
10.8745;2.913;4.1094;9.4687;2.3742;-0.9366;1.1432;6.5763;-6.5795;-1.8719;-0.1051;1.0166;25.5;8.03;-14.33;5.57;156.26;-14.01;-95.65;2.0;35.958313;-83.92441;817.29;NaN;0.0;12.226105;;1 / 9;94511;2022-09-09 16:27:26:721
10.8745;2.913;4.1094;9.4687;2.3742;-0.9366;1.1432;6.5763;-6.5795;-1.8719;-0.1051;1.0166;25.5;8.03;-14.33;5.57;156.26;-14.01;-95.65;2.0;35.958313;-83.92441;817.29;NaN;0.0;12.226105;;1 / 9;95011;2022-09-09 16:27:27:221
9.4881;3.6817;-3.3365;9.4687;2.3742;-0.9366;1.1432;6.5763;-6.5795;-1.8719;-0.1051;1.0166;22.5;8.03;-14.33;5.57;156.26;-14.01;-95.65;2.0;35.958313;-83.92441;817.29;NaN;0.0;12.226105;;1 / 9;95511;2022-09-09 16:27:27:721
9.4881;3.6817;-3.3365;9.4687;2.3742;-0.9366;1.1432;6.5763;-6.5795;-1.8719;-0.1051;1.0166;21.2;8.03;-14.33;5.57;156.26;-14.01;-95.65;2.0;35.958313;-83.92441;817.29;NaN;0.0;12.226105;;1 / 9;96011;2022-09-09 16:27:28:221
9.4881;3.6817;-3.3365;9.4687;2.3742;-0.9366;1.1432;6.5763;-6.5795;-1.8719;-0.1051;1.0166;18.3;8.03;-14.33;5.57;156.26;-14.01;-95.65;2.0;35.958313;-83.92441;817.29;NaN;0.0;12.226105;;1 / 9;96511;2022-09-09 16:27:28:721
9.4881;3.6817;-3.3365;9.4687;2.3742;-0.9366;1.1432;6.5763;-6.5795;-1.8719;-0.1051;1.0166;18.3;8.03;-14.33;5.57;156.26;-14.01;-95.65;2.0;35.958313;-83.92441;817.29;NaN;0.0;12.226105;;1 / 9;97011;2022-09-09 16:27:29:221
3.8094;1.1557;-1.4258;9.4687;2.3742;-0.9366;1.1432;6.5763;-6.5795;-1.8719;-0.1051;1.0166;15.5;8.03;-14.33;5.57;156.26;-14.01;-95.65;2.0;35.958313;-83.92441;817.29;NaN;0.0;12.226105;;1 / 9;97510;2022-09-09 16:27:29:720
3.8094;1.1557;-1.4258;9.4687;2.3742;-0.9366;1.1432;6.5763;-6.5795;-1.8719;-0.1051;1.0166;15.5;8.03;-14.33;5.57;156.26;-14.01;-95.65;2.0;35.958313;-83.92441;817.29;NaN;0.0;12.226105;;1 / 9;98011;2022-09-09 16:27:30:221
3.8094;1.1557;-1.4258;9.4687;2.3742;-0.9366;1.1432;6.5763;-6.5795;-1.8719;-0.1051;1.0166;15.5;8.03;-14.33;5.57;156.26;-14.01;-95.65;2.0;35.958313;-83.92441;817.29;NaN;0.0;12.226105;;1 / 9;98510;2022-09-09 16:27:30:720
8.004;1.3068;2.3112;9.4687;2.3742;-0.9366;1.1432;6.5763;-6.5795;-1.8719;-0.1051;1.0166;16.6;8.03;-14.33;5.57;156.26;-14.01;-95.65;2.0;35.958313;-83.92441;817.29;NaN;0.0;12.226105;;1 / 9;99011;2022-09-09 16:27:31:221
8.004;1.3068;2.3112;9.4687;2.3742;-0.9366;1.1432;6.5763;-6.5795;-1.8719;-0.1051;1.0166;20.7;8.03;-14.33;5.57;156.26;-14.01;-95.65;2.0;35.958313;-83.92441;817.29;NaN;0.0;12.226105;;1 / 9;99511;2022-09-09 16:27:31:721
5.0186;2.1829;-0.2073;9.4687;2.3742;-0.9366;1.1432;6.5763;-6.5795;-1.8719;-0.1051;1.0166;25.6;8.03;-14.33;5.57;156.26;-14.01;-95.65;2.0;35.958313;-83.92441;817.29;NaN;0.0;12.226105;;1 / 9;100013;2022-09-09 16:27:32:223
5.0186;2.1829;-0.2073;9.4687;2.3742;-0.9366;1.1432;6.5763;-6.5795;-1.8719;-0.1051;1.0166;28.5;8.03;-14.33;5.57;156.26;-14.01;-95.65;2.0;35.958313;-83.92441;817.29;NaN;0.0;12.226105;;1 / 9;100511;2022-09-09 16:27:32:721
10.0555;-0.0843;-0.0374;9.4687;2.3742;-0.9366;1.1432;6.5763;-6.5795;-1.8719;-0.1051;1.0166;25.9;8.03;-14.33;5.57;156.26;-14.01;-95.65;2.0;35.958313;-83.92441;817.29;NaN;0.0;12.226105;;1 / 9;101011;2022-09-09 16:27:33:221
10.0555;-0.0843;-0.0374;9.4687;2.3742;-0.9366;1.1432;6.5763;-6.5795;-1.8719;-0.1051;1.0166;29.3;8.03;-14.33;5.57;156.26;-14.01;-95.65;2.0;35.958313;-83.92441;817.29;NaN;0.0;12.226105;;1 / 9;101511;2022-09-09 16:27:33:721
6.9003;1.7279;-0.734;9.4687;2.3742;-0.9366;1.1432;6.5763;-6.5795;-1.8719;-0.1051;1.0166;43.5;8.03;-14.33;5.57;156.26;-14.01;-95.65;2.0;35.958313;-83.92441;817.29;NaN;0.0;12.226105;;1 / 9;102010;2022-09-09 16:27:34:220
6.9003;1.7279;-0.734;9.4687;2.3742;-0.9366;1.1432;6.5763;-6.5795;-1.8719;-0.1051;1.0166;59.9;8.03;-14.33;5.57;156.26;-14.01;-95.65;2.0;35.958313;-83.92441;817.29;NaN;0.0;12.226105;;1 / 9;102511;2022-09-09 16:27:34:721
10.5894;7.6056;4.0998;9.4687;2.3742;-0.9366;1.1432;6.5763;-6.5795;-1.8719;-0.1051;1.0166;61.1;8.03;-14.33;5.57;156.26;-14.01;-95.65;2.0;35.958313;-83.92441;817.29;NaN;0.0;12.226105;;1 / 9;103011;2022-09-09 16:27:35:221
10.5894;7.6056;4.0998;9.4687;2.3742;-0.9366;1.1432;6.5763;-6.5795;-1.8719;-0.1051;1.0166;47.8;8.03;-14.33;5.57;156.26;-14.01;-95.65;2.0;35.958313;-83.92441;817.29;NaN;0.0;12.226105;;1 / 9;103510;2022-09-09 16:27:35:720
10.5894;7.6056;4.0998;9.4687;2.3742;-0.9366;1.1432;6.5763;-6.5795;-1.8719;-0.1051;1.0166;40.6;8.03;-14.33;5.57;156.26;-14.01;-95.65;2.0;35.958313;-83.92441;817.29;NaN;0.0;12.226105;;1 / 9;104012;2022-09-09 16:27:36:222
5.0833;1.934;0.0081;9.4687;2.3742;-0.9366;1.1432;6.5763;-6.5795;-1.8719;-0.1051;1.0166;25.9;8.03;-14.33;5.57;156.26;-14.01;-95.65;2.0;35.958313;-83.92441;817.29;NaN;0.0;12.226105;;1 / 9;104511;2022-09-09 16:27:36:721
12.3036;3.2722;5.2585;9.4687;2.3742;-0.9366;1.1432;6.5763;-6.5795;-1.8719;-0.1051;1.0166;17.8;8.03;-14.33;5.57;156.26;-14.01;-95.65;2.0;35.958313;-83.92441;817.29;NaN;0.0;12.226105;;1 / 9;105011;2022-09-09 16:27:37:221
12.3036;3.2722;5.2585;9.4687;2.3742;-0.9366;1.1432;6.5763;-6.5795;-1.8719;-0.1051;1.0166;19.8;8.03;-14.33;5.57;156.26;-14.01;-95.65;2.0;35.958313;-83.92441;817.29;NaN;0.0;12.226105;;1 / 9;105511;2022-09-09 16:27:37:721
12.3036;3.2722;5.2585;9.4687;2.3742;-0.9366;1.1432;6.5763;-6.5795;-1.8719;-0.1051;1.0166;15.6;8.03;-14.33;5.57;156.26;-14.01;-95.65;2.0;35.958313;-83.92441;817.29;NaN;0.0;12.226105;;1 / 9;106011;2022-09-09 16:27:38:221
12.3036;3.2722;5.2585;9.4687;2.3742;-0.9366;1.1432;6.5763;-6.5795;-1.8719;-0.1051;1.0166;15.6;8.03;-14.33;5.57;156.26;-14.01;-95.65;2.0;35.958313;-83.92441;817.29;NaN;0.0;12.226105;;1 / 9;106513;2022-09-09 16:27:38:723
3.594;0.4807;-2.0004;9.4687;2.3742;-0.9366;1.1432;6.5763;-6.5795;-1.8719;-0.1051;1.0166;11.5;8.03;-14.33;5.57;156.26;-14.01;-95.65;2.0;35.958313;-83.92441;817.29;NaN;0.0;12.226105;;1 / 9;107011;2022-09-09 16:27:39:221
21.6981;8.9988;-2.2256;9.4687;2.3742;-0.9366;1.1432;6.5763;-6.5795;-1.8719;-0.1051;1.0166;12.8;8.03;-14.33;5.57;156.26;-14.01;-95.65;2.0;35.958313;-83.92441;817.29;NaN;0.0;12.226105;;1 / 9;107513;2022-09-09 16:27:39:723
21.6981;8.9988;-2.2256;9.4687;2.3742;-0.9366;1.1432;6.5763;-6.5795;-1.8719;-0.1051;1.0166;7.7;8.03;-14.33;5.57;156.26;-14.01;-95.65;2.0;35.958313;-83.92441;817.29;NaN;0.0;12.226105;;1 / 9;108013;2022-09-09 16:27:40:223
5.6818;3.0018;1.6002;9.4687;2.3742;-0.9366;1.1432;6.5763;-6.5795;-1.8719;-0.1051;1.0166;10.5;8.03;-14.33;5.57;156.26;-14.01;-95.65;2.0;35.958313;-83.92441;817.29;NaN;0.0;12.226105;;1 / 9;108511;2022-09-09 16:27:40:721
5.6818;3.0018;1.6002;9.4687;2.3742;-0.9366;1.1432;6.5763;-6.5795;-1.8719;-0.1051;1.0166;13.9;8.03;-14.33;5.57;156.26;-14.01;-95.65;2.0;35.958313;-83.92441;817.29;NaN;0.0;12.226105;;1 / 9;109011;2022-09-09 16:27:41:221
7.8652;4.0262;-1.2272;9.4687;2.3742;-0.9366;1.1432;6.5763;-6.5795;-1.8719;-0.1051;1.0166;17.3;8.03;-14.33;5.57;156.26;-14.01;-95.65;2.0;35.958313;-83.92441;817.29;NaN;0.0;12.226105;;1 / 9;109511;2022-09-09 16:27:41:721
7.8652;4.0262;-1.2272;9.4687;2.3742;-0.9366;1.1432;6.5763;-6.5795;-1.8719;-0.1051;1.0166;16.2;8.03;-14.33;5.57;156.26;-14.01;-95.65;2.0;35.958313;-83.92441;817.29;NaN;0.0;12.226105;;1 / 9;110011;2022-09-09 16:27:42:221
14.4583;4.4883;2.0504;9.4687;2.3742;-0.9366;1.1432;6.5763;-6.5795;-1.8719;-0.1051;1.0166;17.5;8.03;-14.33;5.57;156.26;-14.01;-95.65;2.0;35.958313;-83.92441;817.29;NaN;0.0;12.226105;;1 / 9;110510;2022-09-09 16:27:42:720
14.4583;4.4883;2.0504;9.4687;2.3742;-0.9366;1.1432;6.5763;-6.5795;-1.8719;-0.1051;1.0166;30.2;8.03;-14.33;5.57;156.26;-14.01;-95.65;2.0;35.958313;-83.92441;817.29;NaN;0.0;12.226105;;1 / 9;111011;2022-09-09 16:27:43:221
7.9394;2.1852;-1.4761;9.4687;2.3742;-0.9366;1.1432;6.5763;-6.5795;-1.8719;-0.1051;1.0166;30.2;8.03;-14.33;5.57;156.26;-14.01;-95.65;2.0;35.958313;-83.92441;817.29;NaN;0.0;12.226105;;1 / 9;111511;2022-09-09 16:27:43:721
7.9394;2.1852;-1.4761;9.4687;2.3742;-0.9366;1.1432;6.5763;-6.5795;-1.8719;-0.1051;1.0166;23.2;8.03;-14.33;5.57;156.26;-14.01;-95.65;2.0;35.958313;-83.92441;817.29;NaN;0.0;12.226105;;1 / 9;112011;2022-09-09 16:27:44:221
7.9394;2.1852;-1.4761;9.4687;2.3742;-0.9366;1.1432;6.5763;-6.5795;-1.8719;-0.1051;1.0166;23.2;8.03;-14.33;5.57;156.26;-14.01;-95.65;2.0;35.958313;-83.92441;817.29;NaN;0.0;12.226105;;1 / 9;112510;2022-09-09 16:27:44:720
7.1061;0.0927;1.1285;9.4687;2.3742;-0.9366;1.1432;6.5763;-6.5795;-1.8719;-0.1051;1.0166;17.0;8.03;-14.33;5.57;156.26;-14.01;-95.65;2.0;35.958313;-83.92441;817.29;NaN;0.0;12.226105;;1 / 9;113010;2022-09-09 16:27:45:220
7.1061;0.0927;1.1285;9.4687;2.3742;-0.9366;1.1432;6.5763;-6.5795;-1.8719;-0.1051;1.0166;15.2;8.03;-14.33;5.57;156.26;-14.01;-95.65;2.0;35.958313;-83.92441;817.29;NaN;0.0;12.226105;;1 / 9;113512;2022-09-09 16:27:45:722
3.6826;0.8542;-1.0645;9.4687;2.3742;-0.9366;1.1432;6.5763;-6.5795;-1.8719;-0.1051;1.0166;12.7;8.03;-14.33;5.57;156.26;-14.01;-95.65;2.0;35.958313;-83.92441;817.29;NaN;0.0;12.226105;;1 / 9;114011;2022-09-09 16:27:46:221
3.6826;0.8542;-1.0645;9.4687;2.3742;-0.9366;1.1432;6.5763;-6.5795;-1.8719;-0.1051;1.0166;12.7;8.03;-14.33;5.57;156.26;-14.01;-95.65;2.0;35.958313;-83.92441;817.29;NaN;0.0;12.226105;;1 / 9;114511;2022-09-09 16:27:46:721
7.9657;1.424;-1.3828;9.4687;2.3742;-0.9366;1.1432;6.5763;-6.5795;-1.8719;-0.1051;1.0166;12.2;8.03;-14.33;5.57;156.26;-14.01;-95.65;2.0;35.958313;-83.92441;817.29;NaN;0.0;12.226105;;1 / 9;115012;2022-09-09 16:27:47:222
8.7461;6.7627;-0.5904;9.4687;2.3742;-0.9366;1.1432;6.5763;-6.5795;-1.8719;-0.1051;1.0166;10.8;8.03;-14.33;5.57;156.26;-14.01;-95.65;2.0;35.958313;-83.92441;817.29;NaN;0.0;12.226105;;1 / 9;115511;2022-09-09 16:27:47:721
8.7461;6.7627;-0.5904;9.4687;2.3742;-0.9366;1.1432;6.5763;-6.5795;-1.8719;-0.1051;1.0166;7.1;8.03;-14.33;5.57;156.26;-14.01;-95.65;2.0;35.958313;-83.92441;817.29;NaN;0.0;12.226105;;1 / 9;116010;2022-09-09 16:27:48:220
7.8051;-7.1997;-0.0159;9.4687;2.3742;-0.9366;1.1432;6.5763;-6.5795;-1.8719;-0.1051;1.0166;9.3;8.03;-14.33;5.57;156.26;-14.01;-95.65;2.0;35.958313;-83.92441;817.29;NaN;0.0;12.226105;;1 / 9;116511;2022-09-09 16:27:48:721
1.0537;3.0185;8.8854;9.4687;2.3742;-0.9366;1.1432;6.5763;-6.5795;-1.8719;-0.1051;1.0166;21.6;8.03;-14.33;5.57;156.26;-14.01;-95.65;2.0;35.958313;-83.92441;817.29;NaN;0.0;12.226105;;1 / 9;117011;2022-09-09 16:27:49:221
-2.6641;4.9134;10.0621;-0.6876;5.0985;8.3489;-0.9534;-0.2388;0.8937;-0.1995;1.0435;-0.0437;40.8;40.39;17.76;-20.53;300.29;-27.8;-4.44;2.0;35.958313;-83.92441;817.29;NaN;0.0;12.226105;;1 / 9;117510;2022-09-09 16:27:49:720