sep=;
ACCELEROMETER X (m/s²);ACCELEROMETER Y (m/s²);ACCELEROMETER Z (m/s²);GRAVITY X (m/s²);GRAVITY Y (m/s²);GRAVITY Z (m/s²);LINEAR ACCELERATION X (m/s²);LINEAR ACCELERATION Y (m/s²);LINEAR ACCELERATION Z (m/s²);GYROSCOPE X (rad/s);GYROSCOPE Y (rad/s);GYROSCOPE Z (rad/s);LIGHT (lux);MAGNETIC FIELD X (μT);MAGNETIC FIELD Y (μT);MAGNETIC FIELD Z (μT);ORIENTATION Z (azimuth °);ORIENTATION X (pitch °);ORIENTATION Y (roll °);PROXIMITY (i);LOCATION Latitude : ;LOCATION Longitude : ;LOCATION Altitude ( m);LOCATION Altitude-google ( m);LOCATION Speed ( Kmh);LOCATION Accuracy ( m);LOCATION ORIENTATION (°);Satellites in range;Time since start in ms ;YYYY-MO-DD HH-MI-SS_SSS
0.1618;3.1732;5.8364;-0.4249;3.0728;9.3031;1.32;-0.3807;-1.9245;-0.0505;-1.2062;0.4162;522.0;4.35;-45.64;-26.32;186.44;-21.48;0.53;5.0;35.958313;-83.92459;792.19;NaN;0.0;66.58582;;0 / 10;5;2022-11-11 14:42:53:759
2.9833;0.5704;6.4872;8.7333;1.6483;4.1452;-7.7882;-0.3062;4.3966;3.4273;-8.1175;3.962;522.0;-11.04;-38.32;-29.34;212.52;-9.68;-64.61;5.0;35.958313;-83.92459;792.19;NaN;0.0;66.58582;;0 / 10;505;2022-11-11 14:42:54:259
10.0777;-7.3199;-2.6028;8.7447;-3.6825;-2.4779;-0.2335;-4.155;0.3691;-0.6086;0.548;-0.3551;62.6;-16.31;15.02;25.31;74.23;22.06;-105.82;0.0;35.958313;-83.92459;792.19;NaN;0.0;66.58582;;0 / 10;1005;2022-11-11 14:42:54:759
16.2763;-1.7318;-1.0421;9.0607;-0.2221;-3.7451;5.1155;-1.6621;2.8903;1.8557;0.6074;-1.029;2.2;-14.49;22.99;32.81;48.29;1.3;-112.46;0.0;35.958313;-83.92459;792.19;NaN;0.0;66.58582;;0 / 10;1505;2022-11-11 14:42:55:259
10.0837;-6.4002;-1.8296;7.9772;-5.0964;-2.5616;0.7963;1.3169;-1.0215;-0.0024;-0.0321;1.1508;0.0;-13.35;39.88;37.2;51.86;27.39;-106.67;0.0;35.958313;-83.92459;792.19;NaN;0.0;66.58582;;0 / 10;2005;2022-11-11 14:42:55:759
7.756;-5.5238;-3.0383;8.1278;-4.9277;-2.4141;-0.1606;-0.242;-0.3961;0.5369;-0.6854;-0.5062;1.3;4.73;52.11;42.0;45.23;30.16;-106.54;0.0;35.958313;-83.92459;792.19;NaN;0.0;66.58582;;0 / 10;2506;2022-11-11 14:42:56:260
6.2779;-3.0218;-2.5259;8.6035;-4.0018;-2.4771;-2.2766;0.6196;1.5349;0.0783;-0.3344;0.056;0.0;-1.42;63.51;28.39;25.85;23.71;-104.88;0.0;35.958313;-83.92459;792.19;NaN;0.0;66.58582;;0 / 10;3005;2022-11-11 14:42:56:759
6.5133;-3.8169;-1.9005;8.6032;-4.2391;-2.0458;-0.3342;-0.3521;0.772;-0.0467;0.0569;-0.159;0.0;-4.48;65.91;18.68;17.43;25.61;-103.38;0.0;35.958313;-83.92459;792.19;NaN;0.0;66.58582;;0 / 10;3506;2022-11-11 14:42:57:260
8.3049;-4.5796;-2.4401;9.0119;-3.2785;-2.0515;0.3161;1.3728;-2.4322;0.4509;-1.0813;-0.1012;0.0;-11.66;62.68;14.25;10.99;19.24;-104.37;0.0;35.958313;-83.92459;792.19;NaN;0.0;66.58582;;0 / 10;4005;2022-11-11 14:42:57:759
12.3395;-7.3406;0.5273;9.0048;-3.6818;-1.2363;2.992;-1.8679;1.1174;0.5003;1.3869;0.2852;0.0;-16.52;55.88;4.8;3.34;22.05;-97.82;0.0;35.958313;-83.92459;792.19;NaN;0.0;66.58582;;0 / 10;4505;2022-11-11 14:42:58:259
12.8438;-5.6276;0.8677;9.0756;-3.2413;-1.8159;-0.75;-0.3923;-0.8136;-0.0702;0.0969;-0.0151;0.0;-19.01;43.41;1.22;354.98;19.12;-102.18;0.0;35.958313;-83.92459;792.19;NaN;0.0;66.58582;;0 / 10;5005;2022-11-11 14:42:58:759
8.5301;-2.5977;-1.7677;8.9577;-3.5408;-1.8421;-1.3416;1.8323;0.5732;0.3832;-0.4878;-0.0654;0.0;-19.14;28.41;0.11;348.84;21.17;-101.62;0.0;35.958313;-83.92459;792.19;NaN;0.0;66.58582;;0 / 10;5505;2022-11-11 14:42:59:259
7.3576;-3.833;-1.9606;9.0606;-3.3452;-1.6988;-2.2223;-1.1299;0.0559;0.2365;0.0547;-0.2397;0.0;-15.17;25.48;1.67;357.13;20.12;-101.06;0.0;35.958313;-83.92459;792.19;NaN;0.0;66.58582;;0 / 10;6005;2022-11-11 14:42:59:759
7.7462;-1.6959;-2.3548;9.0154;-3.4077;-1.8114;-1.2995;1.5988;-1.3619;-0.1839;-0.3587;0.0309;1.3;-16.05;28.48;-0.04;352.59;20.52;-99.69;0.0;35.958313;-83.92459;792.19;NaN;0.0;66.58582;;0 / 10;6505;2022-11-11 14:43:00:259
7.0564;-2.4981;-2.7766;8.9478;-3.5812;-1.8119;-2.3004;0.0761;-0.1573;0.2713;-0.0712;-0.1332;2.0;-22.48;35.04;-2.61;343.66;21.71;-101.31;0.0;35.958313;-83.92459;792.19;NaN;0.0;66.58582;;0 / 10;7006;2022-11-11 14:43:00:760
6.7561;-2.9973;-2.7485;8.9031;-3.6787;-1.8365;-2.1118;1.1167;1.3261;-0.5017;0.0757;0.1705;1.3;-29.08;42.0;-5.61;337.78;22.03;-101.66;0.0;35.958313;-83.92459;792.19;NaN;0.0;66.58582;;0 / 10;7506;2022-11-11 14:43:01:260
8.2451;-5.132;-1.4148;8.7846;-3.825;-2.0905;0.3126;-0.7536;-1.2892;0.0671;-0.3591;-0.1529;1.3;-29.92;46.01;-2.4;344.07;22.96;-103.39;0.0;35.958313;-83.92459;792.19;NaN;0.0;66.58582;;7 / 10;8005;2022-11-11 14:43:01:759
8.4045;-3.7789;-1.6881;8.4329;-4.5865;-2.0053;1.4056;0.9964;0.4758;0.431;-0.7097;0.0727;1.3;-27.77;49.22;2.48;352.15;27.22;-102.81;0.0;35.958313;-83.92459;792.19;NaN;0.0;66.58582;;7 / 10;8506;2022-11-11 14:43:02:260
8.132;-4.9989;0.8465;8.3063;-5.0701;-1.2122;3.8084;-1.7302;2.2689;2.6404;-1.0047;-0.1742;0.0;-25.76;52.11;2.16;356.11;30.2;-99.16;0.0;35.958313;-83.92459;792.19;NaN;0.0;66.58582;;0 / 10;9005;2022-11-11 14:43:02:759
10.1806;-3.3087;1.5281;8.3026;-4.9137;-1.7585;3.8643;-2.8085;0.7559;2.103;-1.1572;-0.3015;0.0;-32.55;43.58;-11.96;321.25;30.07;-101.96;0.0;35.958313;-83.92459;792.19;NaN;0.0;66.58582;;0 / 10;9506;2022-11-11 14:43:03:260
12.2058;-2.3572;-2.5346;8.7816;-4.0963;-1.5084;1.1474;0.6966;-3.438;-0.3607;0.1662;-0.1466;0.0;-36.54;27.06;-12.66;298.18;24.69;-99.75;0.0;35.958313;-83.92459;792.19;NaN;0.0;66.58582;;0 / 10;10005;2022-11-11 14:43:03:759
8.1646;-2.415;-3.5865;8.7643;-3.5035;-2.6614;-0.8388;1.3646;-1.3896;1.7515;-0.7061;-0.4933;0.0;-32.87;13.2;-9.36;274.89;21.27;-106.19;0.0;35.958313;-83.92459;792.19;NaN;0.0;66.58582;;0 / 10;10505;2022-11-11 14:43:04:259
8.6237;-1.8517;-2.4796;8.9848;-3.1848;-2.3022;-1.5467;-0.3769;1.0335;0.1238;-0.2531;-0.3715;0.0;-28.24;-3.77;-3.39;218.83;19.83;-105.11;0.0;35.958313;-83.92459;792.19;NaN;0.0;66.58582;;0 / 10;11005;2022-11-11 14:43:04:759
11.6581;-3.4265;0.6173;8.9543;-3.303;-2.2541;3.9696;1.2456;1.2299;1.3743;-0.915;-0.0531;0.0;-22.03;-6.47;-6.62;224.76;19.68;-104.13;0.0;35.958313;-83.92459;792.19;NaN;0.0;66.58582;;0 / 10;11505;2022-11-11 14:43:05:259
7.0376;-3.7172;-2.6689;8.8297;-3.4545;-2.5047;-2.4346;-0.003;2.0081;0.884;-0.6396;-0.7348;0.0;-24.92;-2.36;-9.28;238.52;20.63;-105.84;0.0;35.958313;-83.92459;792.19;NaN;0.0;66.58582;;0 / 10;12005;2022-11-11 14:43:05:759
7.8404;-1.2129;-1.9651;9.1338;-2.8363;-2.168;-1.159;1.9302;0.3169;-0.0318;0.3868;0.0894;0.0;-27.49;1.14;-6.58;245.57;16.51;-103.81;0.0;35.958313;-83.92459;792.19;NaN;0.0;66.58582;;0 / 10;12505;2022-11-11 14:43:06:259
8.7509;-3.5641;-5.0524;8.6609;-3.7356;-2.6843;-0.4144;0.9045;-1.7017;-0.6604;-0.062;0.0249;0.0;-26.36;2.91;-7.95;247.76;23.26;-106.64;0.0;35.958313;-83.92459;792.19;NaN;0.0;66.58582;;0 / 10;13005;2022-11-11 14:43:06:759
9.1851;-2.0713;-1.0552;8.9325;-3.291;-2.356;1.2717;0.2294;-1.4327;0.1626;-0.0476;0.115;0.0;-24.62;-6.09;-6.0;222.58;19.61;-104.78;0.0;35.958313;-83.92459;792.19;NaN;0.0;66.58582;;0 / 10;13506;2022-11-11 14:43:07:260
7.6831;-2.8146;-1.0469;8.6456;-3.7087;-2.7694;3.2995;-3.6011;-2.7093;0.0031;-0.5019;0.1143;0.0;-23.57;-18.22;-8.74;213.22;22.22;-107.76;0.0;35.958313;-83.92459;792.19;NaN;0.0;66.58582;;0 / 10;14005;2022-11-11 14:43:07:759
11.9483;-3.1235;-2.4437;8.9513;-3.298;-2.2733;3.7094;0.0901;-0.3618;0.1782;-0.2049;0.1009;0.0;-23.25;-24.28;-16.86;217.31;19.32;-103.49;0.0;35.958313;-83.92459;792.19;NaN;0.0;66.58582;;0 / 10;14506;2022-11-11 14:43:08:260
8.8277;-5.7144;-6.0012;8.5857;-4.1487;-2.29;7.8042;-5.9994;0.7226;0.5335;-0.8316;0.135;0.0;-22.91;-16.29;-25.48;232.69;24.55;-100.79;0.0;35.958313;-83.92459;792.19;NaN;0.0;66.58582;;0 / 10;15005;2022-11-11 14:43:08:759
13.4605;-0.4169;-1.5993;8.9928;-3.3555;-2.01;6.2816;0.594;1.7743;-0.7944;-0.0778;-0.0682;0.0;-14.79;-13.11;-22.71;238.91;20.01;-102.6;0.0;35.958313;-83.92459;792.19;NaN;0.0;66.58582;;0 / 10;15505;2022-11-11 14:43:09:259
13.3678;-5.2896;-5.2056;8.8549;-3.6034;-2.1857;1.6022;-3.2648;0.321;0.8983;0.948;-0.1747;0.0;-6.45;-12.47;-14.53;233.18;21.56;-103.87;0.0;35.958313;-83.92459;792.19;NaN;0.0;66.58582;;0 / 10;16006;2022-11-11 14:43:09:760
12.8216;-1.468;1.0519;8.4671;-3.5609;-3.435;6.1648;0.6696;3.4459;1.9921;0.3298;0.0125;0.0;0.38;6.15;12.08;70.43;21.29;-112.08;0.0;35.958313;-83.92459;792.19;NaN;0.0;66.58582;;0 / 10;16505;2022-11-11 14:43:10:259
9.0272;-3.8934;0.8641;8.7369;-3.6627;-2.5341;2.2224;0.8775;2.9333;0.2231;-1.7773;-0.4954;1.3;-8.64;9.49;21.06;80.67;21.37;-109.17;0.0;35.958313;-83.92459;792.19;NaN;0.0;66.58582;;4 / 10;17005;2022-11-11 14:43:10:759
9.1789;-3.2189;-3.7059;8.6569;-3.7609;-2.6616;0.8869;1.6812;-0.3653;1.0242;-0.7699;-0.5041;0.8;-20.87;16.41;19.28;67.62;22.55;-107.09;0.0;35.958313;-83.92459;792.19;NaN;0.0;66.58582;;4 / 10;17505;2022-11-11 14:43:11:259
8.1245;-2.8839;-3.1202;9.0763;-3.3175;-1.6692;-0.6522;0.5067;0.0527;0.6121;0.0214;-0.0913;0.8;-19.59;30.99;19.26;35.21;19.77;-100.42;0.0;35.958313;-83.92459;792.19;NaN;0.0;66.58582;;0 / 11;18005;2022-11-11 14:43:11:759
7.0035;-4.2141;-3.1672;8.5295;-4.2054;-2.3943;-0.4368;0.8527;0.8835;1.5505;-0.4665;-0.1271;0.2;-16.76;43.76;21.34;27.28;25.39;-105.68;0.0;35.958313;-83.92459;792.19;NaN;0.0;66.58582;;0 / 11;18505;2022-11-11 14:43:12:259
8.3504;-5.0662;-1.2849;8.6597;-4.0357;-2.2122;0.207;-0.7133;3.1678;1.3675;-0.1399;-0.1144;0.0;-21.47;39.34;14.48;19.37;24.53;-102.72;0.0;35.958313;-83.92459;792.19;NaN;0.0;66.58582;;0 / 11;19005;2022-11-11 14:43:12:759
11.0539;-6.3649;-1.6795;8.5467;-3.8784;-2.843;1.4949;-0.5897;1.8805;0.8201;1.2084;-0.1468;0.0;-32.93;24.0;6.41;332.08;23.3;-108.4;0.0;35.958313;-83.92459;792.19;NaN;0.0;66.58582;;0 / 11;19505;2022-11-11 14:43:13:259
11.7712;-5.581;-0.5486;8.9309;-3.3283;-2.3089;-1.4125;-1.5345;-0.1433;-0.1717;0.1833;0.1458;0.0;-34.18;10.11;3.19;255.69;18.88;-104.49;0.0;35.958313;-83.92459;792.19;NaN;0.0;66.58582;;0 / 11;20005;2022-11-11 14:43:13:759
8.6868;-0.5683;-2.1775;8.8652;-3.492;-2.3205;-0.1933;2.5706;-0.1474;0.5488;-0.5225;-0.1239;0.0;-35.72;0.38;-3.73;227.16;20.86;-104.67;0.0;35.958313;-83.92459;792.19;NaN;0.0;66.58582;;0 / 11;20505;2022-11-11 14:43:14:259
6.2611;-3.9745;-2.4589;8.956;-3.0931;-2.5286;-2.3121;-0.8868;0.0969;0.2715;-0.2522;-0.3678;0.0;-34.07;3.77;-3.45;242.74;18.95;-106.69;0.0;35.958313;-83.92459;792.19;NaN;0.0;66.58582;;0 / 11;21005;2022-11-11 14:43:14:759
7.1797;-0.7965;-2.0695;8.8049;-3.3929;-2.6707;-1.9891;2.7066;3.0E-4;-0.4828;-0.3141;0.1208;0.0;-30.6;12.62;-3.22;280.33;20.44;-105.07;0.0;35.958313;-83.92459;792.19;NaN;0.0;66.58582;;0 / 11;21505;2022-11-11 14:43:15:259
5.8681;-3.9849;-3.0595;8.7539;-3.654;-2.4875;-2.5819;-1.5213;0.3385;0.2941;-0.3577;-0.3325;0.0;-25.11;24.09;-1.89;326.72;22.71;-105.37;0.0;35.958313;-83.92459;792.19;NaN;0.0;66.58582;;0 / 11;22005;2022-11-11 14:43:15:759
7.1471;-1.2643;-2.3216;8.6761;-3.7308;-2.6412;-2.0317;1.7856;-0.3979;-0.0938;-0.2905;0.0332;0.0;-21.82;28.43;-1.76;335.32;22.36;-106.93;0.0;35.958313;-83.92459;792.19;NaN;0.0;66.58582;;0 / 11;22506;2022-11-11 14:43:16:260
6.6422;-4.2;-2.5493;8.8989;-3.3549;-2.3926;-2.1004;-1.4654;-0.2486;0.2479;-0.1658;-0.45;0.0;-18.99;32.49;-3.09;341.21;20.85;-105.8;0.0;35.958313;-83.92459;792.19;NaN;0.0;66.58582;;0 / 11;23005;2022-11-11 14:43:16:759
6.6909;-2.0315;-2.4796;8.799;-3.7616;-2.1443;-2.0758;1.0701;0.0761;-0.7122;2.0E-4;0.269;0.0;-18.94;36.13;-5.77;339.67;22.36;-102.26;0.0;35.958313;-83.92459;792.19;NaN;0.0;66.58582;;0 / 11;23505;2022-11-11 14:43:17:259
5.2385;-1.2096;-2.8448;8.9001;-3.6315;-1.9419;-1.6643;1.3612;1.3184;0.7746;-0.2893;-0.23;0.0;-15.39;43.69;-3.77;348.5;22.37;-102.76;0.0;35.958313;-83.92459;792.19;NaN;0.0;66.58582;;0 / 11;24005;2022-11-11 14:43:17:759
7.2162;-0.5139;-3.8279;8.9699;-3.3033;-2.1909;-1.721;0.9484;-0.6565;-0.2688;-0.1565;0.1729;0.0;-16.31;52.78;-5.32;349.13;19.68;-103.73;0.0;35.958313;-83.92459;792.19;NaN;0.0;66.58582;;0 / 11;24506;2022-11-11 14:43:18:260
5.5905;-3.8865;0.0718;8.9122;-3.1461;-2.6161;0.8765;3.2919;-4.3515;2.4781;-0.666;-0.2066;0.0;-15.92;54.77;-2.61;351.15;18.71;-106.36;0.0;35.958313;-83.92459;792.19;NaN;0.0;66.58582;;0 / 11;25006;2022-11-11 14:43:18:760
9.087;-3.1125;0.253;8.969;-3.4318;-1.9874;0.7642;2.0899;2.3245;2.1323;0.4079;-0.2805;0.0;-27.22;37.5;-14.89;322.04;19.74;-107.07;0.0;35.958313;-83.92459;792.19;NaN;0.0;66.58582;;0 / 11;25506;2022-11-11 14:43:19:260
8.5292;-2.7326;-1.5209;8.5805;-3.6172;-3.0759;-0.918;3.3308;1.2425;-0.0464;-0.1194;-0.045;0.0;-36.9;21.98;-13.26;289.87;22.12;-109.16;0.0;35.958313;-83.92459;792.19;NaN;0.0;66.58582;;3 / 5;26006;2022-11-11 14:43:19:760
6.0281;-4.555;-2.2292;8.9107;-3.2705;-2.4645;-2.1373;0.2405;-0.1107;0.5136;-0.0284;-0.3886;0.0;-38.83;19.05;-6.84;289.29;19.48;-105.46;0.0;35.958313;-83.92459;792.19;NaN;0.0;66.58582;;3 / 5;26505;2022-11-11 14:43:20:259
9.411;-1.1408;-1.724;9.1991;-3.0946;-1.4035;-0.1585;1.4967;-1.1506;0.0598;0.3593;0.1151;0.0;-42.22;12.34;-6.23;263.35;18.39;-98.67;0.0;35.958313;-83.92459;792.19;NaN;0.0;66.58582;;0 / 5;27005;2022-11-11 14:43:20:759
11.4523;-7.9164;1.7315;9.1419;-3.2579;-1.4079;2.7931;-4.5492;3.0022;2.1511;0.4424;0.1757;0.0;-42.77;10.09;0.99;246.14;17.51;-101.06;0.0;35.958313;-83.92459;792.19;NaN;0.0;66.58582;;0 / 5;27505;2022-11-11 14:43:21:259
12.058;-6.1259;-0.2219;8.7449;-3.7382;-2.3923;0.6797;-2.2033;-2.141;-7.0E-4;-0.0322;0.0858;0.0;-41.21;6.26;15.9;151.77;21.6;-103.96;0.0;35.958313;-83.92459;792.19;NaN;0.0;66.58582;;0 / 5;28005;2022-11-11 14:43:21:759
7.5431;-2.8256;-1.9161;8.865;-3.7628;-1.8505;-0.9163;0.6763;0.8343;-1.0216;-0.4785;0.1115;0.0;-44.14;7.5;17.33;143.85;22.56;-101.79;0.0;35.958313;-83.92459;792.19;NaN;0.0;66.58582;;0 / 5;28505;2022-11-11 14:43:22:259
7.0253;-2.551;-1.9834;8.6953;-3.7264;-2.5837;0.1603;-0.2191;0.3611;-2.0783;-0.4127;0.3867;0.0;-45.0;3.06;15.13;174.15;22.33;-106.55;0.0;35.958313;-83.92459;792.19;NaN;0.0;66.58582;;0 / 5;29005;2022-11-11 14:43:22:759
14.8065;-3.0838;-1.267;8.9644;-3.4251;-2.0193;6.8741;-0.5235;0.3108;-0.6754;0.3328;-0.1282;0.0;-41.68;-5.96;9.3;175.76;21.44;-99.99;0.0;35.958313;-83.92459;792.19;NaN;0.0;66.58582;;0 / 5;29505;2022-11-11 14:43:23:259
15.0209;-8.6623;-1.4094;8.7352;-3.729;-2.4413;6.6105;-5.2579;0.8676;0.4226;-0.0489;0.0687;0.0;-42.13;-8.38;9.17;176.57;21.65;-100.23;0.0;35.958313;-83.92459;792.19;NaN;0.0;66.58582;;0 / 5;30006;2022-11-11 14:43:23:760
14.787;-5.0112;-0.1313;9.1274;-3.4181;-1.0853;2.5817;-2.6964;1.1055;0.6092;1.2402;-0.1099;0.0;-42.17;2.49;7.71;167.06;20.4;-96.78;0.0;35.958313;-83.92459;792.19;NaN;0.0;66.58582;;0 / 5;30505;2022-11-11 14:43:24:259
11.7897;-4.7145;-0.0984;8.9755;-3.5415;-1.7517;-1.1693;1.5851;-0.9231;0.1828;-0.2866;-0.1277;0.0;-43.56;10.39;2.14;225.25;21.17;-101.04;2.0;35.958313;-83.92459;792.19;NaN;0.0;66.58582;;0 / 5;31006;2022-11-11 14:43:24:760
7.1258;-3.1172;-1.6956;9.0427;-3.3903;-1.7044;-1.8217;0.1041;0.0616;0.1725;0.1488;-0.2147;0.0;-52.8;12.71;3.62;224.72;20.96;-101.51;2.0;35.958313;-83.92459;792.19;NaN;0.0;66.58582;;0 / 5;31505;2022-11-11 14:43:25:259
7.7139;-2.8071;-1.6666;8.9753;-3.3896;-2.0311;-0.8864;0.454;0.3357;-0.1241;0.0606;-0.0202;0.0;-57.02;10.86;3.32;228.98;20.32;-103.65;2.0;35.958313;-83.92459;792.19;NaN;0.0;66.58582;;0 / 5;32005;2022-11-11 14:43:25:759
11.2585;-7.2027;-3.664;8.7546;-3.6914;-2.4292;7.7204;-6.3607;-0.3049;-0.9915;-0.874;0.4151;0.0;-61.57;7.74;7.52;209.18;22.11;-105.51;2.0;35.958313;-83.92459;792.19;NaN;0.0;66.58582;;0 / 5;32506;2022-11-11 14:43:26:260
9.4056;-2.3701;-4.2138;9.1636;-2.9744;-1.8307;8.9995;2.6407;1.0915;-0.2627;-0.2759;-0.3129;0.0;-58.78;10.37;20.89;135.73;17.66;-101.3;0.0;35.958313;-83.92459;792.19;NaN;0.0;66.58582;;0 / 5;33005;2022-11-11 14:43:26:759
14.1296;-7.2936;-1.6235;9.1612;-2.7826;-2.1215;1.4498;0.6722;1.1686;0.3512;0.7181;-0.1377;0.0;-51.73;23.29;25.05;64.28;16.48;-103.04;0.0;35.958313;-83.92459;792.19;NaN;0.0;66.58582;;0 / 5;33505;2022-11-11 14:43:27:259
14.3067;-3.9739;-1.1824;9.0137;-2.6677;-2.7942;-1.821;-0.2014;-2.1949;0.7264;-0.2954;-0.296;0.0;-56.4;36.47;20.83;11.16;15.46;-107.0;0.0;35.958313;-83.92459;792.19;NaN;0.0;66.58582;;0 / 5;34006;2022-11-11 14:43:27:760
12.1648;-1.6289;-4.3651;9.1239;-3.2944;-1.4394;2.7823;1.7602;-2.4011;-0.4356;-0.4486;0.0941;0.0;-69.75;53.21;-0.96;336.02;19.63;-98.96;0.0;35.958313;-83.92459;792.19;NaN;0.0;66.58582;;0 / 5;34505;2022-11-11 14:43:28:259
7.5763;-2.3303;-2.5576;8.7023;-3.506;-2.8544;-1.377;1.2044;0.338;1.2674;-0.4371;-0.3858;1.0;-100.69;36.64;-15.6;272.39;20.95;-107.81;0.0;35.958313;-83.92459;792.19;NaN;0.0;66.58582;;0 / 5;35005;2022-11-11 14:43:28:759
7.9047;-2.4727;-0.6114;9.1126;-3.3209;-1.4501;-1.5534;-0.4029;0.8174;0.3256;-0.1587;-0.2078;1.3;-111.51;18.54;25.76;158.93;19.79;-99.04;0.0;35.958313;-83.92459;792.19;NaN;0.0;66.58582;;0 / 5;35505;2022-11-11 14:43:29:259
7.1662;-2.4673;1.9032;8.9858;-3.7899;-1.0304;-2.4288;0.0276;4.3902;-0.0319;-0.8801;-0.1594;0.2;-80.93;46.71;25.5;67.77;23.68;-90.28;0.0;35.958313;-83.92459;792.19;NaN;0.0;66.58582;;0 / 5;36006;2022-11-11 14:43:29:760
10.2254;-0.6703;3.5324;8.9263;-3.9311;-1.0185;1.0081;3.4493;2.6429;1.7468;1.1346;-0.0546;0.0;-50.23;66.83;25.58;26.59;23.63;-96.51;0.0;35.958313;-83.92459;792.19;NaN;0.0;66.58582;;0 / 5;36505;2022-11-11 14:43:30:259
15.6141;-8.3043;2.3605;8.9785;-3.8664;-0.78;2.5674;-2.9333;1.4202;2.7004;2.8191;-0.4129;0.0;-57.75;52.05;22.24;9.77;21.85;-106.76;0.0;35.958313;-83.92459;792.19;NaN;0.0;66.58582;;2 / 6;37006;2022-11-11 14:43:30:760
13.4641;-1.2069;-1.718;8.9313;-3.5018;-2.0347;5.5161;-2.284;2.4025;-0.9183;-0.9234;-0.1046;0.0;-60.99;38.83;21.84;30.44;20.92;-102.83;0.0;35.958313;-83.92459;792.19;NaN;0.0;66.58582;;2 / 6;37505;2022-11-11 14:43:31:259
6.6583;-2.0348;-1.2392;8.6325;-3.4086;-3.1671;-0.1848;1.4505;-1.1596;-0.8223;-0.0869;-0.0412;0.0;-60.47;35.93;22.13;12.44;21.02;-108.02;0.0;35.958313;-83.92459;792.19;NaN;0.0;66.58582;;2 / 6;38006;2022-11-11 14:43:31:760
5.4918;-3.1854;-2.726;8.7961;-3.5817;-2.4434;-3.1972;0.2295;-0.0752;-0.3793;0.2706;0.2772;0.0;-56.81;38.96;16.43;1.7;20.99;-105.24;0.0;35.958313;-83.92459;792.19;NaN;0.0;66.58582;;2 / 6;38506;2022-11-11 14:43:32:260
5.7963;-2.7503;-1.4219;8.7981;-3.6687;-2.3032;-3.6391;0.9207;-1.0638;0.673;-0.2239;-0.4013;0.0;-53.23;43.48;10.84;354.19;22.79;-103.74;0.0;35.958313;-83.92459;792.19;NaN;0.0;66.58582;;2 / 6;39005;2022-11-11 14:43:32:759
7.1079;-3.1534;0.2216;8.7096;-3.528;-2.8048;-4.2618;2.6755;2.9651;0.1829;2.0962;0.2201;0.0;-57.09;54.38;8.06;341.8;21.09;-107.85;0.0;35.958313;-83.92459;792.19;NaN;0.0;66.58582;;2 / 6;39505;2022-11-11 14:43:33:259
13.4982;-0.8411;-3.2979;8.9103;-3.4899;-2.1442;1.7349;-1.3723;1.992;0.8251;0.4611;-0.266;0.0;-61.29;62.48;11.7;355.84;20.85;-103.53;0.0;35.958313;-83.92459;792.19;NaN;0.0;66.58582;;2 / 6;40006;2022-11-11 14:43:33:760
13.794;-5.6901;-5.3426;8.8528;-3.6096;-2.1839;8.5016;-2.7428;-0.1513;0.077;-0.8148;-0.012;0.0;-78.45;69.54;14.31;354.67;21.41;-102.62;0.0;35.958313;-83.92459;792.19;NaN;0.0;66.58582;;2 / 6;40506;2022-11-11 14:43:34:260
6.4274;-3.2767;-0.9461;8.9502;-3.2852;-2.2963;-0.5719;0.5958;-2.7737;-0.2162;-0.3099;0.0211;0.0;-95.34;74.98;9.28;347.05;18.6;-101.05;0.0;35.958313;-83.92459;792.19;NaN;0.0;66.58582;;2 / 6;41005;2022-11-11 14:43:34:759
12.8142;-5.5848;1.1121;9.0938;-3.111;-1.9481;6.1934;-2.7655;2.0855;1.8327;-0.5323;0.1704;0.0;-86.51;69.68;8.04;345.02;18.5;-102.09;0.0;35.958313;-83.92459;792.19;NaN;0.0;66.58582;;2 / 6;41505;2022-11-11 14:43:35:259
10.5449;-0.6371;2.4876;8.8758;-3.6994;-1.925;2.9164;-2.3131;2.6114;2.3059;0.2471;-0.2663;0.0;-79.71;59.83;-16.11;310.0;22.16;-102.24;0.0;35.958313;-83.92459;792.19;NaN;0.0;66.58582;;2 / 6;42005;2022-11-11 14:43:35:759
8.6393;-0.9446;-2.1039;8.5571;-3.747;-2.9844;0.7881;2.9399;0.7077;0.8333;-0.8563;-0.3095;0.0;-79.93;33.21;-35.25;274.49;23.17;-107.64;0.0;35.958313;-83.92459;792.19;NaN;0.0;66.58582;;2 / 6;42506;2022-11-11 14:43:36:260
7.5972;-4.6475;-1.4611;8.9619;-3.4209;-2.0379;-1.5128;-0.9549;-0.6984;0.7994;-0.3788;-0.4164;0.0;-79.54;22.2;-29.01;263.61;20.93;-102.5;0.0;35.958313;-83.92459;792.19;NaN;0.0;66.58582;;2 / 6;43005;2022-11-11 14:43:36:759
8.7066;-2.2642;-2.8301;8.9409;-3.6869;-1.6241;-0.8855;1.0968;-2.0078;0.4442;-0.4654;0.0366;0.0;-73.65;12.19;-16.87;243.23;22.08;-100.3;0.0;35.958313;-83.92459;792.19;NaN;0.0;66.58582;;2 / 6;43506;2022-11-11 14:43:37:260
5.2011;-2.3647;-3.4217;8.6769;-3.5236;-2.9097;1.1994;-0.3762;2.9984;-0.0409;-2.1613;0.203;0.0;-71.51;17.48;-3.81;252.91;21.06;-108.54;0.0;35.958313;-83.92459;792.19;NaN;0.0;66.58582;;2 / 6;44005;2022-11-11 14:43:37:759
10.0277;-1.5497;3.3251;8.866;-4.1636;-0.4786;1.9628;3.395;3.2178;3.0622;1.4986;0.0317;0.0;-71.18;23.96;12.53;190.75;23.54;-101.4;0.0;35.958313;-83.92459;792.19;NaN;0.0;66.58582;;2 / 6;44505;2022-11-11 14:43:38:259
12.2883;-6.9915;0.4418;8.8095;-3.7974;-2.0355;1.244;0.9831;1.5699;0.4526;0.0163;-0.2834;0.0;-70.46;38.53;18.81;323.13;21.36;-111.15;0.0;35.958313;-83.92459;792.19;NaN;0.0;66.58582;;2 / 6;45006;2022-11-11 14:43:38:760
8.3231;-5.0782;-0.4558;8.707;-3.5906;-2.7324;-1.8327;-0.2131;0.8697;0.0028;-0.2727;0.135;0.0;-73.01;42.54;12.26;321.74;21.48;-107.42;0.0;35.958313;-83.92459;792.19;NaN;0.0;66.58582;;2 / 6;45506;2022-11-11 14:43:39:260
11.3094;-7.669;-0.3006;8.8589;-3.5321;-2.2835;-0.6633;1.6021;1.0545;0.6322;0.3759;-0.0839;0.0;-77.76;39.38;5.18;300.83;21.11;-104.45;0.0;35.958313;-83.92459;792.19;NaN;0.0;66.58582;;2 / 5;46005;2022-11-11 14:43:39:759
15.4134;-2.6587;1.1524;9.1743;-3.3283;-0.9622;0.2253;-1.6531;1.2089;-0.242;0.0326;-0.3593;0.0;-83.51;34.07;-0.36;292.5;19.84;-95.99;0.0;35.958313;-83.92459;792.19;NaN;0.0;66.58582;;2 / 5;46505;2022-11-11 14:43:40:259
8.103;-0.9446;-2.6539;8.7413;-3.7941;-2.3164;-0.3942;-0.997;-4.324;-1.2152;-0.0427;0.2787;0.0;-86.01;33.43;1.48;264.29;22.81;-104.17;0.0;35.958313;-83.92459;792.19;NaN;0.0;66.58582;;0 / 5;47005;2022-11-11 14:43:40:759
7.8664;-2.2837;-2.6252;8.8134;-3.55;-2.4274;0.6816;-0.0428;-0.4942;-0.6747;-0.6649;0.1613;0.0;-86.12;39.92;7.37;292.31;21.22;-105.4;0.0;35.958313;-83.92459;792.19;NaN;0.0;66.58582;;0 / 5;47505;2022-11-11 14:43:41:259
10.1022;-4.5162;-0.7002;8.6595;-3.5668;-2.9088;-2.0107;-0.6463;1.64;0.9578;-0.2811;-0.2425;0.0;-85.22;41.72;11.23;297.18;21.33;-108.57;0.0;35.958313;-83.92459;792.19;NaN;0.0;66.58582;;0 / 5;48006;2022-11-11 14:43:41:760
11.1583;-6.0709;-1.4524;8.9326;-3.7831;-1.438;1.493;-1.9619;-0.282;1.2281;1.4925;-0.1444;0.0;-85.31;46.33;11.21;310.88;21.55;-106.44;0.0;35.958313;-83.92459;792.19;NaN;0.0;66.58582;;0 / 5;48505;2022-11-11 14:43:42:259
16.5455;0.3739;0.5575;8.8402;-3.6826;-2.1118;7.0078;-0.7165;2.7448;0.863;0.005;-0.344;0.0;-81.71;67.01;6.73;332.67;23.39;-105.51;0.0;35.958313;-83.92459;792.19;NaN;0.0;66.58582;;0 / 5;49006;2022-11-11 14:43:42:760
14.1637;-0.7621;0.4851;8.9582;-3.5378;-1.8453;4.974;3.1199;-0.428;0.9664;-1.4974;-0.1755;1.3;-79.33;84.51;13.43;356.36;21.15;-101.64;0.0;35.958313;-83.92459;792.19;NaN;0.0;66.58582;;0 / 5;49505;2022-11-11 14:43:43:259
7.8769;-4.9265;-2.857;8.2169;-4.788;-2.3933;-0.0597;1.6709;1.2857;2.2808;-1.4345;-0.3942;1.3;-66.47;89.49;17.34;357.25;29.22;-106.24;0.0;35.958313;-83.92459;792.19;NaN;0.0;66.58582;;0 / 5;50005;2022-11-11 14:43:43:759
7.2841;-4.7151;-1.8263;8.6414;-4.1596;-2.0481;-1.0058;0.6218;1.4234;0.2226;-0.7374;-0.273;0.0;-78.36;64.54;-8.64;315.85;25.1;-103.33;0.0;35.958313;-83.92459;792.19;NaN;0.0;66.58582;;0 / 5;50505;2022-11-11 14:43:44:259
9.81;-6.7645;3.7361;8.9942;-3.9071;-0.0925;1.4608;-4.4272;3.0376;2.3598;3.2576;0.3281;0.0;-93.73;39.34;-11.83;269.34;22.97;-94.94;0.0;35.958313;-83.92459;792.19;NaN;0.0;66.58582;;0 / 5;51005;2022-11-11 14:43:44:759
10.4533;-6.1229;-0.9688;8.87;-3.6174;-2.0995;-1.4891;-2.1917;0.8357;0.8766;1.6125;-0.2073;0.0;-97.26;24.56;-6.81;249.35;21.65;-103.32;0.0;35.958313;-83.92459;792.19;NaN;0.0;66.58582;;0 / 5;51505;2022-11-11 14:43:45:259
11.4476;-6.0993;-1.0319;8.7104;-3.5062;-2.8294;-0.2326;0.8328;0.7457;0.4219;-0.0743;-0.1441;0.0;-96.77;23.25;-2.31;253.06;20.68;-109.65;0.0;35.958313;-83.92459;792.19;NaN;0.0;66.58582;;0 / 5;52006;2022-11-11 14:43:45:760
10.4644;-4.2024;-0.3398;8.827;-3.2381;-2.7873;-1.0939;-1.6265;-0.2794;0.208;-0.2336;0.1939;0.0;-98.89;30.81;-0.62;266.63;19.28;-107.52;0.0;35.958313;-83.92459;792.19;NaN;0.0;66.58582;;0 / 5;52505;2022-11-11 14:43:46:259
12.7475;-7.3684;-1.3765;8.756;-3.4263;-2.7862;2.8612;-0.6999;1.4528;1.0603;-0.6717;-0.4639;0.0;-101.23;37.82;-0.54;277.44;19.29;-112.35;0.0;35.958313;-83.92459;792.19;NaN;0.0;66.58582;;0 / 4;53005;2022-11-11 14:43:46:759
8.5756;-4.5511;-1.1354;8.8793;-3.283;-2.5593;-1.9181;-1.3083;0.669;-0.1455;0.0489;0.1595;0.0;-105.47;45.32;-1.16;286.19;19.56;-106.08;0.0;35.958313;-83.92459;792.19;NaN;0.0;66.58582;;0 / 4;53506;2022-11-11 14:43:47:260
15.5982;-7.9896;-1.9062;8.928;-3.0862;-2.6337;0.7085;0.6486;0.8253;0.8873;0.0912;-0.1985;0.0;-107.91;50.38;0.26;294.55;17.46;-110.6;0.0;35.958313;-83.92459;792.19;NaN;0.0;66.58582;;0 / 4;54005;2022-11-11 14:43:47:759
12.4579;-4.5009;-0.8791;8.985;-2.7197;-2.8361;-1.4007;-1.3309;0.1592;0.609;0.3833;-0.1113;0.0;-106.26;55.78;4.09;312.16;16.1;-107.52;0.0;35.958313;-83.92459;792.19;NaN;0.0;66.58582;;0 / 4;54505;2022-11-11 14:43:48:259
10.0331;-4.1348;-1.9397;8.6895;-3.1773;-3.2509;0.1317;1.0817;0.8136;1.1547;-1.1636;-0.1384;0.0;-102.13;57.39;7.52;310.28;17.96;-110.49;0.0;35.958313;-83.92459;792.19;NaN;0.0;66.58582;;0 / 5;55005;2022-11-11 14:43:48:759
9.6915;-4.6759;-1.6675;8.9215;-3.2329;-2.4749;-1.385;-1.1889;-0.4603;0.0332;0.0402;-0.0116;0.0;-98.14;62.06;4.39;320.44;19.25;-105.5;0.0;35.958313;-83.92459;792.19;NaN;0.0;66.58582;;0 / 5;55506;2022-11-11 14:43:49:260
9.0556;-0.7531;-2.5122;8.9598;-3.3012;-2.2347;0.1828;3.3677;-1.487;-0.1581;0.1625;0.1184;0.0;-96.47;62.81;2.1;322.69;20.3;-103.34;0.0;35.958313;-83.92459;792.19;NaN;0.0;66.58582;;0 / 5;56005;2022-11-11 14:43:49:759
8.1422;-4.7862;-6.2686;8.7789;-3.6629;-2.3843;-1.9229;-0.5423;0.2282;1.177;-0.6047;-0.6296;0.0;-94.2;65.81;2.87;321.2;21.93;-105.19;0.0;35.958313;-83.92459;792.19;NaN;0.0;66.58582;;0 / 5;56506;2022-11-11 14:43:50:260
6.6835;-2.9288;-3.5124;8.8317;-3.7635;-2.002;-1.8618;0.5415;-0.6553;-0.4323;0.5608;0.1227;0.0;-99.69;59.53;0.0;309.12;22.57;-102.77;0.0;35.958313;-83.92459;792.19;NaN;0.0;66.58582;;0 / 4;57006;2022-11-11 14:43:50:760
7.3956;-2.5956;-3.7705;8.6283;-3.8199;-2.6703;-1.2993;0.9309;-0.7261;0.7822;-0.262;-0.4397;0.0;-99.6;51.39;6.81;291.38;22.92;-107.2;0.0;35.958313;-83.92459;792.19;NaN;0.0;66.58582;;0 / 4;57506;2022-11-11 14:43:51:260
7.6977;-2.1691;-3.4878;8.7396;-3.8556;-2.219;-2.2378;1.4371;0.5217;0.1607;-0.0826;0.1691;0.0;-101.29;46.65;5.85;283.52;22.76;-105.38;0.0;35.958313;-83.92459;792.19;NaN;0.0;66.58582;;0 / 4;58005;2022-11-11 14:43:51:759
9.8578;-3.2043;-1.4907;8.733;-3.4929;-2.7758;2.4374;-1.529;4.0049;1.9222;-1.4013;-0.2522;0.0;-104.89;42.81;9.79;278.83;20.87;-107.63;0.0;35.958313;-83.92459;792.19;NaN;0.0;66.58582;;0 / 4;58505;2022-11-11 14:43:52:259
10.4862;-3.5596;-1.0869;8.5667;-3.9639;-2.6589;1.3571;-0.917;-0.5496;-0.0915;-0.1706;0.3707;0.0;-106.48;45.09;14.29;265.45;23.84;-107.24;0.0;35.958313;-83.92459;792.19;NaN;0.0;66.58582;;0 / 4;59005;2022-11-11 14:43:52:759
5.9755;-3.2698;-2.4482;8.632;-3.8268;-2.6486;-2.4417;0.3954;-0.0251;-1.0118;-0.0525;0.2414;0.0;-113.16;46.8;12.68;268.98;22.97;-107.06;0.0;35.958313;-83.92459;792.19;NaN;0.0;66.58582;;0 / 4;59506;2022-11-11 14:43:53:260
5.2738;-3.2297;-2.5077;8.4967;-3.9113;-2.9458;-1.7184;0.3659;1.3027;-0.0345;0.1452;-0.2641;0.0;-113.57;41.87;13.16;256.0;24.02;-110.55;0.0;35.958313;-83.92459;792.19;NaN;0.0;66.58582;;0 / 4;60006;2022-11-11 14:43:53:760
8.1915;-2.8271;-1.8529;8.8014;-3.4251;-2.6407;2.0442;1.555;-0.1281;0.7531;-1.1959;0.1371;0.0;-113.64;35.33;12.36;252.89;20.44;-106.7;0.0;35.958313;-83.92459;792.19;NaN;0.0;66.58582;;0 / 4;60505;2022-11-11 14:43:54:259
7.4665;-4.9334;-1.4886;8.4195;-4.2998;-2.6065;3.7051;-5.4985;-3.203;0.1921;-0.7182;-0.1351;0.0;-115.67;35.4;10.95;232.05;26.01;-107.2;0.0;35.958313;-83.92459;792.19;NaN;0.0;66.58582;;0 / 4;61005;2022-11-11 14:43:54:759
10.5835;-2.6961;-3.6461;8.9459;-3.1985;-2.4311;3.7325;0.2108;-0.4174;-1.8056;0.1307;0.0637;0.0;-115.97;42.34;9.45;276.36;19.04;-105.2;0.0;35.958313;-83.92459;792.19;NaN;0.0;66.58582;;0 / 4;61506;2022-11-11 14:43:55:260
8.4182;-2.4709;-1.1734;8.6809;-3.667;-2.7141;0.5065;1.8885;-3.6256;-0.5637;-0.9047;0.0108;0.0;-112.76;50.76;9.32;280.1;22.67;-107.25;0.0;35.958313;-83.92459;792.19;NaN;0.0;66.58582;;2 / 4;62005;2022-11-11 14:43:55:759
8.3692;-4.0029;-2.7473;8.9313;-3.4316;-2.1511;0.1145;0.6873;-0.7669;0.3683;-0.097;0.2528;0.0;-108.6;60.58;8.48;317.56;20.48;-103.54;0.0;35.958313;-83.92459;792.19;NaN;0.0;66.58582;;2 / 4;62505;2022-11-11 14:43:56:259
8.1075;-3.8889;-1.2425;8.452;-4.3169;-2.4695;2.3583;-1.9614;-2.4739;-0.7068;-0.6183;0.1337;0.0;-103.69;64.58;10.18;303.97;26.12;-106.29;0.0;35.958313;-83.92459;792.19;NaN;0.0;66.58582;;2 / 4;63006;2022-11-11 14:43:56:760
7.5712;-3.213;-1.858;8.7822;-3.7636;-2.209;-1.7332;0.9223;-0.2012;0.5801;-0.5937;0.1057;0.0;-101.1;60.51;11.66;323.57;22.57;-104.12;0.0;35.958313;-83.92459;792.19;NaN;0.0;66.58582;;2 / 4;63506;2022-11-11 14:43:57:260
9.5315;-2.0351;-3.6209;8.6032;-3.5208;-3.1239;4.5475;-2.3824;-1.6549;0.2983;0.5635;-0.2388;0.0;-95.12;53.7;17.42;324.38;20.32;-107.57;0.0;35.958313;-83.92459;792.19;NaN;0.0;66.58582;;2 / 4;64006;2022-11-11 14:43:57:760
12.2381;-6.4959;0.8468;7.9298;-5.7267;-0.7029;2.4811;-0.8746;0.142;1.5531;1.4057;0.2486;0.0;-74.87;63.84;16.58;54.15;35.73;-95.07;0.0;35.958313;-83.92459;792.19;NaN;0.0;66.58582;;2 / 4;64506;2022-11-11 14:43:58:260
10.532;-2.566;0.3218;8.4126;-4.3337;-2.5726;1.4864;-1.9673;-0.9268;-1.1168;-0.6449;-0.2161;0.0;-77.14;63.17;14.29;337.61;26.23;-107.0;0.0;35.958313;-83.92459;792.19;NaN;0.0;66.58582;;2 / 4;65005;2022-11-11 14:43:58:759
8.5813;-3.3721;-4.2972;8.1977;-4.3348;-3.1903;-0.5813;-0.4218;-0.7948;0.865;-0.9044;-0.4678;0.0;-86.02;61.54;23.76;339.17;27.27;-109.08;0.0;35.958313;-83.92459;792.19;NaN;0.0;66.58582;;2 / 4;65505;2022-11-11 14:43:59:259
8.0641;-2.8756;-5.1775;8.9991;-3.3855;-1.9298;-0.3119;0.8156;-0.2549;0.0726;-0.1214;-0.2533;0.0;-91.52;63.43;15.92;349.31;20.78;-102.86;0.0;35.958313;-83.92459;792.19;NaN;0.0;66.58582;;2 / 4;66005;2022-11-11 14:43:59:759
6.99;-3.0209;-3.1663;8.5631;-3.7255;-2.9939;-1.8048;1.5746;-0.7348;0.5925;-0.3854;-0.5495;0.0;-96.92;53.44;8.33;294.47;23.59;-108.84;0.0;35.958313;-83.92459;792.19;NaN;0.0;66.58582;;2 / 4;66505;2022-11-11 14:44:00:259
4.6783;-2.3844;-2.3438;8.534;-3.6554;-3.159;-0.095;0.0557;2.4431;0.501;-0.5313;0.2335;0.0;-96.3;38.98;11.31;273.0;21.89;-110.31;0.0;35.958313;-83.92459;792.19;NaN;0.0;66.58582;;2 / 4;67005;2022-11-11 14:44:00:759
6.6308;-3.7502;-1.8733;8.5745;-3.8565;-2.7886;-0.6788;-2.0923;-2.9996;-0.139;0.2401;-0.4361;0.0;-89.61;35.48;14.16;257.65;23.16;-108.02;0.0;35.958313;-83.92459;792.19;NaN;0.0;66.58582;;2 / 4;67507;2022-11-11 14:44:01:261
7.465;-1.9184;-0.9921;9.0118;-3.2069;-2.162;-0.0405;0.3204;-1.2521;0.1828;-0.7907;-0.3037;0.0;-13.93;-3.3;48.9;103.51;18.39;-103.24;0.0;35.958313;-83.92459;792.19;NaN;0.0;66.58582;;2 / 4;68005;2022-11-11 14:44:01:759
6.8979;-2.1078;-4.1569;8.7219;-3.4469;-2.8667;1.363;-1.2973;-2.4629;-0.6299;-0.2056;0.3494;0.0;-8.66;2.51;47.4;97.29;20.58;-108.19;0.0;35.958313;-83.92459;792.19;NaN;0.0;66.58582;;2 / 4;68505;2022-11-11 14:44:02:259
11.0665;-2.5391;0.1238;8.9339;-3.6946;-1.6447;3.6337;0.9993;2.2395;-1.0955;-1.3417;0.1755;0.0;-6.6;9.49;42.77;83.96;21.99;-94.47;0.0;35.958313;-83.92459;792.19;NaN;0.0;66.58582;;2 / 4;69006;2022-11-11 14:44:02:760
8.4006;-2.499;-3.8839;8.5497;-4.0142;-2.638;4.0079;-2.3105;1.4781;-0.4592;-0.6544;0.018;0.0;-6.71;15.0;39.06;79.95;24.16;-107.15;0.0;35.958313;-83.92459;792.19;NaN;0.0;66.58582;;2 / 4;69506;2022-11-11 14:44:03:260
6.8809;-3.9861;-2.607;8.7349;-3.9977;-1.9725;-2.1676;-1.1882;-1.8886;-0.3919;0.2721;0.2047;0.0;-10.22;18.36;31.97;70.84;23.19;-101.2;0.0;35.958313;-83.92459;792.19;NaN;0.0;66.58582;;2 / 4;70005;2022-11-11 14:44:03:759
5.953;-2.817;-3.306;8.8732;-3.311;-2.5446;-2.7555;1.3562;-0.1518;0.3227;0.0735;-0.3835;0.0;-9.6;26.64;29.74;53.39;19.73;-106.0;0.0;35.958313;-83.92459;792.19;NaN;0.0;66.58582;;2 / 4;70505;2022-11-11 14:44:04:259
8.6351;-1.3567;-2.4302;8.6869;-3.5634;-2.8302;-2.9757;0.4195;-1.0431;-0.2942;-0.2677;0.4027;0.0;-8.19;34.69;29.23;43.36;20.71;-105.95;0.0;35.958313;-83.92459;792.19;NaN;0.0;66.58582;;2 / 4;71005;2022-11-11 14:44:04:759
4.8706;-3.9706;-0.2423;8.6259;-3.7185;-2.8173;-2.1575;-0.2795;0.4585;0.8633;-0.4466;0.0171;0.0;-2.1;40.11;30.36;40.42;22.28;-108.09;0.0;35.958313;-83.92459;792.19;NaN;0.0;66.58582;;2 / 4;71506;2022-11-11 14:44:05:260
10.0711;-3.4385;-1.6412;8.5738;-3.8354;-2.8197;0.5589;2.5388;1.2536;1.5186;-1.1853;-0.3017;0.0;-7.18;34.52;21.99;34.76;22.39;-107.02;0.0;35.958313;-83.92459;792.19;NaN;0.0;66.58582;;0 / 4;72006;2022-11-11 14:44:05:760
8.6868;-7.8144;-3.4911;8.6696;-4.3044;-1.5748;0.2585;-3.0789;-1.3334;-0.7521;-0.0165;-0.1161;0.0;-20.57;4.74;9.15;136.0;26.04;-100.3;0.0;35.958313;-83.92459;792.19;NaN;0.0;66.58582;;0 / 4;72505;2022-11-11 14:44:06:259
8.9004;-2.9946;-1.9582;8.8405;-3.8572;-1.7714;-0.3926;0.5685;-0.8394;-1.0378;0.9101;0.0078;0.0;-33.6;-15.08;15.49;166.6;23.75;-103.3;0.0;35.958313;-83.92459;792.19;NaN;0.0;66.58582;;0 / 4;73005;2022-11-11 14:44:06:759
7.9639;-5.3426;1.2799;9.027;-3.5582;-1.4223;-1.0043;-2.4501;1.7135;1.1334;0.1472;-0.1385;0.0;-22.41;-26.87;5.31;177.4;21.27;-98.95;0.0;35.958313;-83.92459;792.19;NaN;0.0;66.58582;;0 / 4;73506;2022-11-11 14:44:07:260
10.5269;-3.3628;-2.3189;8.6977;-3.4721;-2.9095;0.3023;0.5228;-0.8662;1.0963;-0.9081;-0.6453;0.0;-23.03;-24.38;15.38;167.73;20.74;-108.5;0.0;35.958313;-83.92459;792.19;NaN;0.0;66.58582;;0 / 4;74005;2022-11-11 14:44:07:759
10.2311;-1.2535;-1.2281;8.9785;-3.3136;-2.1394;0.4393;2.3014;-0.0187;1.3207;-1.5507;-0.2706;0.0;-24.56;-25.26;18.99;159.11;19.75;-103.4;0.0;35.958313;-83.92459;792.19;NaN;0.0;66.58582;;0 / 4;74506;2022-11-11 14:44:08:260
6.8955;-2.3396;-2.8804;8.8216;-3.5456;-2.4038;-1.9528;1.4905;0.6027;1.1682;-0.2979;-0.3584;0.0;-26.78;-29.32;12.45;173.41;21.99;-105.46;0.0;35.958313;-83.92459;792.19;NaN;0.0;66.58582;;0 / 4;75005;2022-11-11 14:44:08:759
8.0847;-3.1316;-2.2005;9.0271;-3.2832;-1.9756;-0.8641;1.3688;-2.0415;0.5386;0.0983;0.0908;0.0;-31.37;-41.74;6.64;179.76;19.56;-102.34;0.0;35.958313;-83.92459;792.19;NaN;0.0;66.58582;;0 / 4;75505;2022-11-11 14:44:09:259
6.565;-2.278;-3.1199;8.7675;-3.5471;-2.5921;-0.4842;0.4137;0.1806;0.1992;0.2321;-0.0241;0.0;-33.86;-39.81;1.2;190.01;21.2;-106.47;0.0;35.958313;-83.92459;792.19;NaN;0.0;66.58582;;0 / 4;76006;2022-11-11 14:44:09:760
7.1758;-3.0604;-2.7392;8.8072;-3.2013;-2.8906;-1.7197;-0.9369;-0.463;-0.8501;-0.4124;0.2023;0.0;-31.24;-31.91;4.63;186.94;19.05;-108.17;0.0;35.958313;-83.92459;792.19;NaN;0.0;66.58582;;0 / 4;76506;2022-11-11 14:44:10:260
8.9698;-4.0549;-0.1083;8.7755;-3.303;-2.8724;-1.7981;-1.6482;1.5931;0.0065;-0.4918;0.0129;0.0;-22.39;-24.32;10.52;172.47;18.76;-107.12;0.0;35.958313;-83.92459;792.19;NaN;0.0;66.58582;;0 / 2;77005;2022-11-11 14:44:10:759
9.8602;-3.7181;-0.9595;8.7548;-3.209;-3.0374;-0.5677;2.053;1.9235;0.5998;-0.0286;-0.1474;0.0;-11.96;-22.54;13.37;162.72;19.1;-109.13;0.0;35.958313;-83.92459;792.19;NaN;0.0;66.58582;;0 / 2;77506;2022-11-11 14:44:11:260
10.4115;-4.5473;-0.6266;8.8148;-3.2542;-2.8073;-1.7914;-0.5952;-0.4911;0.0446;-0.3372;-0.0681;0.0;-9.77;-25.28;14.74;158.28;19.38;-107.67;0.0;35.958313;-83.92459;792.19;NaN;0.0;66.58582;;0 / 2;78006;2022-11-11 14:44:11:760
11.1326;-4.8197;-0.5656;8.8829;-3.5622;-2.1391;0.7301;-0.509;1.5212;0.9368;0.9859;-0.1772;0.0;-13.46;-29.78;3.84;178.53;21.3;-103.54;0.0;35.958313;-83.92459;792.19;NaN;0.0;66.58582;;0 / 2;78506;2022-11-11 14:44:12:260
14.5923;-2.8256;-1.2888;9.0727;-3.2072;-1.8896;3.8201;-0.7613;-0.1132;0.4507;0.8102;-0.2471;0.0;-14.4;-34.87;-4.58;192.81;19.78;-104.89;0.0;35.958313;-83.92459;792.19;NaN;0.0;66.58582;;0 / 2;79005;2022-11-11 14:44:12:759
8.7517;-3.5844;-7.0929;8.5248;-3.9405;-2.8232;6.2104;-5.9326;1.5661;-0.8112;-1.3404;0.0035;0.0;-1.11;-40.24;-13.26;199.69;23.69;-108.32;0.0;35.958313;-83.92459;792.19;NaN;0.0;66.58582;;0 / 2;79505;2022-11-11 14:44:13:259
11.971;-0.7992;-2.63;8.9577;-3.3007;-2.244;3.11;0.6444;0.5808;-0.5429;0.7639;-0.1875;0.0;5.76;-44.46;-6.45;186.38;19.67;-104.06;0.0;35.958313;-83.92459;792.19;NaN;0.0;66.58582;;0 / 2;80006;2022-11-11 14:44:13:760
14.5424;-8.4784;1.0989;8.7344;-4.3677;-0.8971;5.2396;-4.0536;1.3371;2.6628;1.4923;-0.0473;0.0;12.47;-38.03;1.74;173.63;26.45;-95.86;0.0;35.958313;-83.92459;792.19;NaN;0.0;66.58582;;0 / 2;80507;2022-11-11 14:44:14:261
9.9476;-3.7505;-0.472;8.6484;-4.1945;-1.9447;2.9676;-2.293;0.3078;-0.1681;0.0948;-0.0475;0.0;-1.61;-19.43;1.13;178.13;25.26;-101.22;0.0;35.958313;-83.92459;792.19;NaN;0.0;66.58582;;0 / 2;81006;2022-11-11 14:44:14:760
8.8352;-2.9662;-3.4947;9.0563;-3.5078;-1.3598;-0.5611;0.44;-1.637;-0.3524;0.3624;0.2104;0.0;-4.93;-21.84;-2.36;186.98;20.96;-98.54;0.0;35.958313;-83.92459;792.19;NaN;0.0;66.58582;;0 / 2;81507;2022-11-11 14:44:15:261
7.057;-3.3891;-5.0859;8.7657;-3.5714;-2.5646;-0.5046;0.215;2.6632;-0.7324;-1.4656;0.1351;0.0;-3.62;-19.46;7.67;161.78;21.36;-106.31;0.0;35.958313;-83.92459;792.19;NaN;0.0;66.58582;;0 / 1;82006;2022-11-11 14:44:15:760
9.3832;-2.482;0.842;8.5924;-4.3179;-1.9228;1.0516;2.022;2.8125;1.8536;-0.0178;-0.2272;0.0;7.71;0.79;31.33;89.34;25.42;-106.7;0.0;35.958313;-83.92459;792.19;NaN;0.0;66.58582;;0 / 1;82507;2022-11-11 14:44:16:261
11.6321;-1.8667;-2.93;8.8844;-3.9628;-1.2382;1.1839;1.0818;-2.3363;-0.608;0.6137;-0.0266;0.0;10.33;19.35;49.33;70.41;25.34;-99.87;0.0;35.958313;-83.92459;792.19;NaN;0.0;66.58582;;0 / 1;83005;2022-11-11 14:44:16:759
6.4496;-3.2889;-3.9021;8.7852;-3.7631;-2.1977;-1.7308;-0.7863;-4.2039;1.032;0.0963;-0.1911;0.0;-7.74;20.06;50.08;76.9;22.56;-104.05;0.0;35.958313;-83.92459;792.19;NaN;0.0;66.58582;;0 / 1;83505;2022-11-11 14:44:17:259
8.0088;-4.3146;-0.3251;8.9974;-3.624;-1.4435;0.0666;0.435;3.0837;1.4405;0.508;-0.129;0.0;-16.87;17.29;41.19;79.22;21.69;-99.11;0.0;35.958313;-83.92459;792.19;NaN;0.0;66.58582;;0 / 1;84006;2022-11-11 14:44:17:760
10.0376;-3.1851;-1.7049;8.5861;-3.3898;-3.3103;-0.975;2.1539;0.0118;0.3807;-0.7895;-0.0745;0.0;-27.22;12.79;37.59;92.75;20.22;-111.08;0.0;35.958313;-83.92459;792.19;NaN;0.0;66.58582;;0 / 1;84505;2022-11-11 14:44:18:259
7.343;-3.7813;-1.3816;8.9175;-3.0036;-2.7618;-1.8589;-0.1657;0.0013;-0.1582;0.06;-0.2217;0.0;-29.66;10.37;33.66;96.06;18.43;-106.01;0.0;35.958313;-83.92459;792.19;NaN;0.0;66.58582;;0 / 1;85005;2022-11-11 14:44:18:759
7.2829;-1.4503;-2.0264;8.7521;-3.3715;-2.8643;-0.7579;1.6555;1.0908;0.6354;-0.0412;0.0147;0.0;-34.18;8.06;25.78;114.28;20.11;-108.12;0.0;35.958313;-83.92459;792.19;NaN;0.0;66.58582;;0 / 1;85505;2022-11-11 14:44:19:259
6.2764;-3.6574;-3.0176;8.6324;-3.4035;-3.173;-2.4699;1.1457;0.3405;0.2759;0.067;-0.3995;0.0;-31.95;11.12;21.02;109.45;20.8;-110.56;0.0;35.958313;-83.92459;792.19;NaN;0.0;66.58582;;0 / 1;86006;2022-11-11 14:44:19:760
6.1816;-3.1696;-1.7186;8.1255;-5.4524;-0.6465;-1.7581;1.3377;-0.0499;-0.3213;0.305;0.6903;0.0;-28.28;11.59;11.94;121.94;33.78;-94.55;0.0;35.958313;-83.92459;792.19;NaN;0.0;66.58582;;0 / 1;86505;2022-11-11 14:44:20:259
10.2673;0.6855;-0.7439;9.4679;-1.0138;2.3453;-0.7653;-1.3535;-1.548;-0.3175;1.5196;-1.4993;0.0;-21.84;10.93;4.5;58.02;14.05;-79.13;2.0;35.958313;-83.92459;792.19;NaN;0.0;66.58582;;0 / 1;87006;2022-11-11 14:44:20:760
1.3376;2.9641;8.5959;0.9679;3.0714;9.2628;-0.3178;0.178;-0.0934;-0.6267;-0.8783;0.3693;19.2;-14.1;-17.4;-21.45;127.92;-18.25;-5.97;2.0;35.958313;-83.92459;792.19;NaN;0.0;66.58582;;0 / 1;87505;2022-11-11 14:44:21:259
-2.3973;4.3113;6.6311;-1.0984;6.0399;7.6474;-1.2062;-2.2256;-0.7674;1.2963;-0.4261;-0.7605;19.2;4.52;-23.78;-31.65;237.86;-35.17;6.1;2.0;35.958313;-83.92459;792.19;NaN;0.0;66.58582;;0 / 1;88005;2022-11-11 14:44:21:759
-2.8095;7.0944;5.6225;-2.8673;7.3415;5.8354;0.3125;-0.0524;-0.5127;-0.1665;0.5067;0.0864;17.1;8.63;-43.33;-26.81;152.63;-48.47;26.17;2.0;35.958313;-83.92459;792.19;NaN;0.0;66.58582;;0 / 1;88505;2022-11-11 14:44:22:259
-5.3501;7.1279;5.211;-4.1009;7.0298;5.4713;-0.6636;-0.2803;-0.1244;-2.0E-4;0.5446;-0.1081;19.6;15.47;-43.78;-24.92;163.17;-45.79;36.85;2.0;35.958313;-83.92459;792.19;NaN;0.0;66.58582;;0 / 1;89006;2022-11-11 14:44:22:760