sep=;
ACCELEROMETER X (m/s²);ACCELEROMETER Y (m/s²);ACCELEROMETER Z (m/s²);GRAVITY X (m/s²);GRAVITY Y (m/s²);GRAVITY Z (m/s²);LINEAR ACCELERATION X (m/s²);LINEAR ACCELERATION Y (m/s²);LINEAR ACCELERATION Z (m/s²);GYROSCOPE X (rad/s);GYROSCOPE Y (rad/s);GYROSCOPE Z (rad/s);LIGHT (lux);MAGNETIC FIELD X (μT);MAGNETIC FIELD Y (μT);MAGNETIC FIELD Z (μT);ORIENTATION Z (azimuth °);ORIENTATION X (pitch °);ORIENTATION Y (roll °);PROXIMITY (i);LOCATION Latitude : ;LOCATION Longitude : ;LOCATION Altitude ( m);LOCATION Altitude-google ( m);LOCATION Speed ( Kmh);LOCATION Accuracy ( m);LOCATION ORIENTATION (°);Satellites in range;Time since start in ms ;YYYY-MO-DD HH-MI-SS_SSS
-0.2064;2.0844;9.5139;-1.2292;3.2447;9.1723;1.2904;-0.2327;-1.2998;-0.6194;0.2438;-0.1662;77.2;1.18;-61.29;-45.79;173.12;-19.32;7.63;5.0;35.958385;-83.92487;;NaN;;177.66664;;0 / 0;10;2022-11-09 16:55:18:412
-0.9835;3.885;9.0841;-1.4538;2.9862;9.2271;0.1445;0.7764;-0.48;-0.2151;-0.0489;-0.0033;43.2;-6.21;-59.74;-50.68;161.77;-17.73;8.95;5.0;35.958385;-83.92487;;NaN;;177.66664;;0 / 0;510;2022-11-09 16:55:18:912
-1.8215;2.0273;9.903;-1.069;3.54;9.0827;0.0979;-1.0881;1.9496;0.3728;-0.0315;-0.2257;50.9;-6.52;-64.78;-48.66;164.32;-20.09;6.52;5.0;35.958385;-83.92487;;NaN;;177.66664;;0 / 0;1010;2022-11-09 16:55:19:412
-0.8255;2.5947;9.283;-0.8235;3.17;9.2436;0.185;-0.6902;-0.1592;0.078;-0.1445;-0.0656;58.2;-2.91;-72.36;-45.34;172.44;-18.92;5.27;5.0;35.958385;-83.92487;;NaN;;177.66664;;0 / 0;1510;2022-11-09 16:55:19:912
-0.2151;2.5899;8.8448;-0.8359;2.8279;9.3528;0.4004;-0.1797;-0.2801;-0.0394;-0.03;-0.1144;58.2;0.49;-76.27;-45.32;176.17;-16.76;5.11;5.0;35.958385;-83.92487;;NaN;;177.66664;;0 / 0;2010;2022-11-09 16:55:20:412
-0.7633;4.2849;10.9588;-0.9714;3.6139;9.0646;0.2027;-0.4176;-0.3543;0.3476;-0.0299;0.2452;58.2;2.89;-78.47;-44.21;178.26;-21.62;6.12;5.0;35.958385;-83.92487;;NaN;;177.66664;;0 / 0;2510;2022-11-09 16:55:20:912
-1.223;3.8587;9.2518;-0.8456;3.7959;9.0026;-0.4838;-0.2103;0.1896;0.1487;0.0169;-0.0585;58.2;4.16;-79.69;-39.62;180.36;-22.23;5.18;5.0;35.958385;-83.92487;;NaN;;177.66664;;0 / 0;3010;2022-11-09 16:55:21:412
-0.6903;3.6323;8.8926;-0.8049;3.6585;9.063;0.2036;-0.0894;0.1737;0.092;-0.0467;-0.0367;58.2;6.88;-81.08;-38.34;183.2;-21.79;5.38;5.0;35.958385;-83.92487;;NaN;;177.66664;;0 / 0;3510;2022-11-09 16:55:21:912
-0.673;3.6102;9.1041;-0.666;3.5694;9.1097;0.021;0.0536;-0.0424;-0.0302;-0.0108;-0.0036;58.2;7.73;-82.16;-38.55;184.73;-21.34;4.18;5.0;35.958385;-83.92487;;NaN;;177.66664;;0 / 0;4010;2022-11-09 16:55:22:412
-0.6197;3.4394;9.0957;-0.7137;3.4563;9.1496;0.0661;-0.0281;-0.1216;-0.08;0.0319;0.004;58.2;8.7;-82.33;-39.3;185.4;-20.64;4.46;5.0;35.958385;-83.92487;;NaN;;177.66664;;0 / 0;4510;2022-11-09 16:55:22:912
-0.7035;3.2865;9.283;-0.7783;3.2402;9.2231;0.0606;0.068;0.0671;-0.0561;-0.0152;-0.0178;58.2;16.44;-40.37;-24.38;205.34;-19.29;4.82;5.0;35.958385;-83.92487;;NaN;;177.66664;;0 / 0;5010;2022-11-09 16:55:23:412
-0.859;3.119;9.1825;-0.7827;3.1333;9.2596;-0.0651;-0.0901;-0.0462;0.046;-0.003;0.0036;58.2;16.95;-40.29;-25.09;206.68;-18.58;4.82;5.0;35.958385;-83.92487;;NaN;;177.66664;;0 / 0;5510;2022-11-09 16:55:23:912
-0.7466;3.1741;8.9979;-0.7494;3.1196;9.267;-0.0154;0.0364;-0.2371;-0.081;-0.0274;-0.0379;52.4;18.02;-40.18;-25.07;208.34;-18.55;4.62;5.0;35.958385;-83.92487;;NaN;;177.66664;;0 / 0;6010;2022-11-09 16:55:24:412
-0.7298;3.1956;9.3284;-0.8137;3.0926;9.2706;0.0829;0.1193;0.0437;0.0255;-0.0018;0.014;52.4;18.24;-40.18;-25.29;207.93;-18.31;5.07;5.0;35.958385;-83.92487;;NaN;;177.66664;;0 / 0;6510;2022-11-09 16:55:24:912
-0.7513;3.0138;9.3021;-0.7276;2.9661;9.319;-0.0177;0.0226;-0.0239;-0.0673;0.0056;5.0E-4;52.4;17.91;-39.28;-26.19;208.84;-17.61;4.46;5.0;35.958385;-83.92487;;NaN;;177.66664;;0 / 0;7010;2022-11-09 16:55:25:412
-0.172;3.277;9.3835;-0.5114;2.898;9.3547;0.3382;0.476;0.2061;-0.3396;-0.0842;-0.1033;52.4;17.74;-39.73;-26.1;208.81;-17.69;3.37;5.0;35.958385;-83.92487;;NaN;;177.66664;;0 / 0;7510;2022-11-09 16:55:25:912
-0.3658;2.3815;11.4544;-0.94;2.8371;9.3401;0.5284;-0.2958;2.4835;0.4847;0.0819;0.2705;47.5;20.12;-37.24;-27.58;212.55;-16.82;5.75;5.0;35.958385;-83.92487;;NaN;;177.66664;;0 / 0;8010;2022-11-09 16:55:26:412
-1.2661;3.6171;7.1043;-0.834;3.6577;9.0607;-0.4927;0.1603;-1.5354;0.2641;-0.0787;-0.0667;47.5;25.07;-36.11;-23.92;223.31;-21.29;5.39;5.0;35.958385;-83.92487;;NaN;;177.66664;;0 / 0;8510;2022-11-09 16:55:26:912
-0.4974;2.3121;7.8583;-1.6399;2.079;9.4424;1.2689;0.4914;-1.0744;0.2672;-0.0867;-0.0935;35.5;-18.79;-31.95;39.9;163.59;-12.24;9.85;5.0;35.958385;-83.92487;;NaN;;177.66664;;0 / 0;9010;2022-11-09 16:55:27:412
-0.6437;1.759;8.5935;-0.1262;2.0011;9.5995;-0.5277;-0.2999;-0.5515;0.3315;0.0948;-0.4069;35.5;-18.41;-23.83;34.58;150.25;-11.77;0.75;5.0;35.958385;-83.92487;;NaN;;177.66664;;0 / 0;9510;2022-11-09 16:55:27:912
-1.5724;1.946;8.8041;-1.1032;1.9029;9.5568;-0.4975;0.0951;-0.4493;0.0797;0.3043;0.2797;23.1;-9.77;-16.03;32.01;163.46;-10.83;6.17;5.0;35.958385;-83.92487;;NaN;;177.66664;;0 / 0;10010;2022-11-09 16:55:28:412
-0.4759;3.6338;9.1274;-0.3284;2.7003;9.4218;-0.0596;0.5675;-1.0368;0.1308;0.3971;-0.4668;23.1;-7.86;-17.57;27.09;163.17;-15.64;1.15;5.0;35.958385;-83.92487;;NaN;;177.66664;;0 / 0;10510;2022-11-09 16:55:28:912
-1.9795;4.031;10.4034;-1.5929;3.3903;9.063;-0.5626;0.4961;1.7956;1.3153;-0.6279;-0.7099;13.7;4.48;-18.3;29.42;199.62;-18.37;10.49;5.0;35.958385;-83.92487;;NaN;;177.66664;;0 / 0;11010;2022-11-09 16:55:29:412
0.8264;-1.576;13.317;-0.2165;1.7001;9.6557;0.0191;-1.4561;4.2315;-0.5384;-0.2534;-2.336;18.1;2.63;-4.93;20.29;202.37;-9.98;1.28;5.0;35.958385;-83.92487;;NaN;;177.66664;;0 / 0;11510;2022-11-09 16:55:29:912
-2.1182;2.7144;10.6857;-1.1015;1.5277;9.6241;-1.2184;1.4375;1.3306;0.5906;-0.218;-1.3672;36.4;-1.89;18.36;23.12;357.54;-8.19;6.52;5.0;35.958385;-83.92487;;NaN;;177.66664;;0 / 0;12010;2022-11-09 16:55:30:412
-0.2079;0.562;10.8368;-0.1279;1.5807;9.6776;-0.2838;-1.1032;1.7738;0.6966;-0.4715;-1.0923;25.4;-23.38;26.51;29.83;46.08;-9.28;0.76;5.0;35.958385;-83.92487;;NaN;;177.66664;;0 / 0;12510;2022-11-09 16:55:30:912
-0.9141;3.0185;7.43;-0.3991;2.7496;9.4048;-0.6019;0.2853;-2.1774;0.5427;0.1229;0.1948;13.7;-35.23;29.18;35.63;61.44;-15.08;2.16;5.0;35.958385;-83.92487;;NaN;;177.66664;;0 / 0;13010;2022-11-09 16:55:31:412
-0.4759;3.2626;7.7052;0.7882;3.6829;9.0546;-1.2193;-0.3879;-1.274;0.6411;0.1821;-0.5553;21.1;-43.69;27.47;42.51;77.7;-22.06;-4.97;5.0;35.958385;-83.92487;;NaN;;177.66664;;0 / 0;13510;2022-11-09 16:55:31:912
0.0126;3.818;6.3359;0.2222;4.1404;8.887;-0.2094;-0.3554;-2.5773;0.1258;0.1204;0.2772;16.2;-47.47;28.84;43.09;79.55;-24.71;-1.4;5.0;35.958385;-83.92487;;NaN;;177.66664;;0 / 0;14010;2022-11-09 16:55:32:412
-0.1241;2.1948;5.8953;0.3904;3.219;9.2551;-0.5745;-1.0944;-3.19;0.3115;-0.7232;-0.256;20.3;-48.49;33.49;42.11;69.52;-18.54;-1.36;5.0;35.958385;-83.92487;;NaN;;177.66664;;0 / 0;14510;2022-11-09 16:55:32:912
-0.8495;1.7327;5.936;-0.4961;2.3967;9.4963;-0.492;-0.7097;-3.1919;0.4131;0.2114;-0.1784;17.7;-53.32;34.74;39.88;64.71;-13.48;2.57;5.0;35.958385;-83.92487;;NaN;;177.66664;;0 / 0;15010;2022-11-09 16:55:33:412
-0.1648;1.716;8.397;0.3805;2.191;9.5512;-0.5477;-0.5166;-0.9738;0.6947;0.212;-0.763;18.6;-54.26;30.41;37.93;68.33;-11.76;-2.87;5.0;35.958385;-83.92487;;NaN;;177.66664;;0 / 0;15510;2022-11-09 16:55:33:912
-0.5381;1.7136;7.6071;-0.8677;2.3199;9.4887;0.6245;-0.7489;-1.7297;0.5184;0.1302;-0.1009;18.6;-50.57;26.1;33.83;70.53;-12.74;4.96;5.0;35.958385;-83.92487;;NaN;;177.66664;;0 / 0;16010;2022-11-09 16:55:34:412
-1.1414;3.0568;5.6438;-0.7645;3.4437;9.1502;-0.5128;-0.2888;-3.3494;0.4243;-0.5943;-0.6341;18.6;-47.31;22.46;25.35;76.83;-20.56;4.78;5.0;35.958385;-83.92487;;NaN;;177.66664;;0 / 0;16510;2022-11-09 16:55:34:912
-1.0696;0.9978;8.8687;-1.7507;1.5124;9.5299;0.7201;-0.5201;-0.778;0.129;0.1931;-1.3049;22.3;-49.76;16.46;23.78;76.6;-9.01;9.81;5.0;35.958385;-83.92487;;NaN;;177.66664;;0 / 0;17010;2022-11-09 16:55:35:412
-0.9332;0.7322;9.7187;-0.8317;1.2169;9.6952;-0.0577;-0.1708;-1.0196;-0.397;-0.3176;-1.4491;18.9;-62.46;-2.18;28.82;96.0;-7.13;4.9;5.0;35.958385;-83.92487;;NaN;;177.66664;;0 / 0;17510;2022-11-09 16:55:35:912
-0.0667;1.4288;9.3452;-0.1487;0.5122;9.7921;0.3342;0.8367;-0.6849;0.0504;-0.0561;-1.4253;15.1;-50.38;-18.08;30.36;111.57;-2.99;0.87;5.0;35.958385;-83.92487;;NaN;;177.66664;;0 / 0;18010;2022-11-09 16:55:36:412
0.0317;0.7992;7.8823;-0.2233;1.1718;9.7338;-0.2641;-0.0827;-2.7773;-0.1396;-0.2693;-0.22;10.9;-11.72;-21.96;-22.09;146.52;-7.16;1.72;5.0;35.958385;-83.92487;;NaN;;177.66664;;0 / 0;18510;2022-11-09 16:55:36:912
0.9054;1.6537;8.9931;0.0311;1.7991;9.6402;0.9588;-0.2295;-0.6775;0.3782;0.5602;0.2369;12.3;-7.42;-24.0;-22.84;160.32;-10.57;-0.18;5.0;35.958385;-83.92487;;NaN;;177.66664;;0 / 0;19010;2022-11-09 16:55:37:412
-0.0209;2.9994;8.8113;0.1463;1.7955;9.6398;-0.2197;1.0961;-0.8809;-0.0654;0.0685;-0.11;14.1;-13.14;-26.06;-26.91;148.55;-10.55;-0.87;5.0;35.958385;-83.92487;;NaN;;177.66664;;0 / 0;19510;2022-11-09 16:55:37:912
1.4297;3.1478;9.4481;0.3198;1.3773;9.7042;1.1384;1.7011;-0.1027;0.6255;-0.3133;0.2272;11.0;-3.28;-27.66;-28.56;174.36;-7.01;-1.2;5.0;35.958385;-83.92487;;NaN;;177.66664;;0 / 0;20010;2022-11-09 16:55:38:412
0.4074;2.8986;6.6924;0.084;1.7008;9.6577;0.4361;1.1131;-3.0772;0.099;-0.0525;0.4746;11.0;-5.7;-28.74;-33.21;165.95;-9.99;-0.5;5.0;35.958385;-83.92487;;NaN;;177.66664;;0 / 0;20510;2022-11-09 16:55:38:912
0.556;1.8766;8.196;-0.3259;1.3055;9.7139;0.9568;0.6131;-1.6965;0.7053;-1.1081;0.1716;6.2;6.49;-22.56;-34.71;190.81;-6.39;3.89;5.0;35.958385;-83.92487;;NaN;;177.66664;;0 / 0;21010;2022-11-09 16:55:39:412
-1.0744;1.692;9.3763;0.6756;1.4462;9.6759;-2.0628;-0.0553;1.1619;0.4429;0.2976;0.3108;5.1;0.43;-20.16;-35.06;191.12;-8.17;-4.78;5.0;35.958385;-83.92487;;NaN;;177.66664;;0 / 0;21510;2022-11-09 16:55:39:912
0.5489;1.3211;13.25;-0.2102;0.7593;9.775;1.139;0.181;4.1705;-0.4686;1.9164;0.1838;7.9;10.09;-9.26;-38.72;244.96;-5.58;-1.65;5.0;35.958385;-83.92487;;NaN;;177.66664;;0 / 0;22011;2022-11-09 16:55:40:413
-1.3666;3.3009;11.2005;-0.4403;2.1699;9.5534;-0.9249;1.1197;1.5838;0.1763;0.2982;-0.3391;7.9;26.61;-17.19;-39.79;253.46;-12.78;2.64;5.0;35.958385;-83.92487;;NaN;;177.66664;;0 / 0;22510;2022-11-09 16:55:40:912
-0.3179;2.6737;9.2877;0.3597;1.4595;9.6908;-0.4893;1.12;-0.1606;-0.4717;-0.904;-1.917;9.5;30.99;-14.57;-33.32;252.98;-9.09;-1.23;5.0;35.958385;-83.92487;;NaN;;177.66664;;0 / 0;23010;2022-11-09 16:55:41:412
-0.0954;1.6155;9.6467;-0.2217;0.5305;9.7898;0.2515;0.9933;-0.402;-0.5721;-0.342;-1.6879;15.4;34.09;18.09;-35.21;300.95;-3.1;1.3;5.0;35.958385;-83.92487;;NaN;;177.66664;;0 / 0;23510;2022-11-09 16:55:41:912
-0.2414;0.0042;7.9854;-0.6412;1.2088;9.7107;0.4074;-1.1805;-1.7661;0.7826;-0.6077;-0.2933;15.2;25.73;23.04;-33.43;318.74;-7.08;3.78;5.0;35.958385;-83.92487;;NaN;;177.66664;;0 / 0;24010;2022-11-09 16:55:42:412
-0.3634;1.5437;5.6366;0.1189;1.9969;9.6005;-0.6942;-0.2818;-3.8681;0.0118;-0.1722;-1.3153;7.3;12.49;22.18;-34.74;336.4;-11.69;-0.81;5.0;35.958385;-83.92487;;NaN;;177.66664;;0 / 0;24511;2022-11-09 16:55:42:913
0.204;2.444;5.7541;0.2131;2.2768;9.5363;0.0738;0.2319;-4.0525;0.0436;-0.1447;-0.0569;7.3;7.63;29.94;-31.63;346.79;-13.1;-1.0;5.0;35.958385;-83.92487;;NaN;;177.66664;;0 / 0;25010;2022-11-09 16:55:43:412
0.3523;0.9476;8.519;1.3484;2.184;9.4648;-0.964;-1.2433;-0.9778;0.2648;-0.0714;-0.2792;6.5;2.98;29.55;-28.67;348.77;-12.87;-8.11;5.0;35.958385;-83.92487;;NaN;;177.66664;;0 / 0;25510;2022-11-09 16:55:43:912
0.4002;2.1781;5.9934;0.3395;1.2015;9.7268;-0.0683;0.985;-4.0481;0.7065;-0.0677;0.4465;6.5;0.28;36.24;-21.45;359.0;-5.69;-1.8;5.0;35.958385;-83.92487;;NaN;;177.66664;;0 / 0;26010;2022-11-09 16:55:44:412
-0.7657;2.0847;7.3795;0.4374;1.2785;9.7131;-1.247;0.8723;-2.39;0.1813;0.2133;-0.0202;9.8;-5.4;36.71;-26.96;4.81;-6.73;-3.46;5.0;35.958385;-83.92487;;NaN;;177.66664;;0 / 0;26510;2022-11-09 16:55:44:912
1.8009;3.2985;9.3236;0.0901;1.4273;9.7018;1.4819;1.7695;-1.072;0.6255;0.2976;0.5491;16.2;-5.34;34.43;-30.75;6.66;-7.3;-1.11;5.0;35.958385;-83.92487;;NaN;;177.66664;;0 / 0;27010;2022-11-09 16:55:45:412
1.4656;1.625;15.2106;0.8339;0.7523;9.7421;0.6292;0.7459;5.7453;-0.4256;0.6916;0.1477;28.7;-6.54;31.71;-28.89;6.41;-5.22;-6.09;5.0;35.958385;-83.92487;;NaN;;177.66664;;0 / 0;27510;2022-11-09 16:55:45:912
2.6243;2.7598;12.1917;0.2978;1.2718;9.7193;2.0816;1.4628;1.5576;0.6728;0.2072;0.1245;56.1;-9.32;32.81;-26.76;12.7;-6.23;-1.99;5.0;35.958385;-83.92487;;NaN;;177.66664;;0 / 0;28010;2022-11-09 16:55:46:412
-0.9667;1.8598;12.8237;0.2941;2.5293;9.4703;-1.4585;-1.1322;4.8032;0.658;0.3244;-0.7771;56.1;-23.94;21.88;-29.94;38.41;-14.78;-1.73;5.0;35.958385;-83.92487;;NaN;;177.66664;;0 / 0;28510;2022-11-09 16:55:46:912
0.4265;-0.1442;10.5278;-0.3942;0.6184;9.7792;0.4866;-1.0687;1.5664;0.843;-0.16;-1.5212;44.9;-41.94;16.76;-32.93;67.13;-2.61;2.88;5.0;35.958385;-83.92487;;NaN;;177.66664;;0 / 0;29010;2022-11-09 16:55:47:412
0.5608;1.1844;9.8145;-1.3126;0.7844;9.6867;1.8899;0.4153;0.0884;0.2966;1.6316;-0.7655;19.4;-45.66;-3.24;-36.68;90.7;-4.19;5.12;5.0;35.958385;-83.92487;;NaN;;177.66664;;0 / 0;29510;2022-11-09 16:55:47:912
-1.5365;0.0066;9.9365;-0.6338;-0.2186;9.7837;-0.789;0.1715;-0.1009;-0.0686;-0.0543;-1.3123;37.2;-39.79;-9.79;-34.2;103.94;0.93;4.06;5.0;35.958385;-83.92487;;NaN;;177.66664;;0 / 0;30010;2022-11-09 16:55:48:412
-5.4987;-1.1091;21.2079;-1.417;-0.0338;9.7037;-3.6794;-1.4046;11.4931;-1.3565;0.005;-0.8974;37.2;-31.33;-19.31;-28.24;116.31;-4.14;9.01;5.0;35.958385;-83.92487;;NaN;;177.66664;;0 / 0;30510;2022-11-09 16:55:48:912
0.0317;2.0752;13.5658;0.473;0.6135;9.776;-1.6603;0.0385;6.152;-0.0275;0.8308;1.1972;33.9;-38.55;-15.83;-29.61;110.44;-3.59;-2.77;5.0;35.958385;-83.92487;;NaN;;177.66664;;0 / 0;31010;2022-11-09 16:55:49:412
1.8224;1.3307;17.1021;-0.0052;1.4285;9.7021;1.6503;-1.0615;9.6146;-2.5653;-1.1117;-0.7972;19.4;-31.76;-26.34;-32.16;118.95;-13.27;1.49;5.0;35.958385;-83.92487;;NaN;;177.66664;;0 / 0;31510;2022-11-09 16:55:49:912
6.0E-4;0.7872;17.5905;-0.6898;1.7752;9.6199;0.5803;-0.2602;5.7648;-1.5335;-0.7372;-0.4411;18.1;-27.15;-32.42;-41.85;129.0;-10.43;4.1;5.0;35.958385;-83.92487;;NaN;;177.66664;;0 / 0;32010;2022-11-09 16:55:50:412
-2.6761;3.1023;9.0242;-1.4296;1.7464;9.5434;-1.286;1.375;-0.5847;-0.7571;0.4197;0.0848;16.1;-20.53;-35.85;-47.12;134.97;-10.26;8.52;5.0;35.958385;-83.92487;;NaN;;177.66664;;0 / 0;32510;2022-11-09 16:55:50:912
-0.4663;-1.643;13.3289;-0.7594;2.1822;9.5306;-1.3227;-1.7057;-0.1505;-2.3734;-0.7366;0.3206;9.5;-19.56;-39.54;-43.5;140.42;-14.34;4.93;5.0;35.958385;-83.92487;;NaN;;177.66664;;0 / 0;33010;2022-11-09 16:55:51:412
-2.3243;0.1238;9.6251;-0.9098;1.6043;9.6317;-1.6705;-1.1437;-0.4711;-1.6045;-0.8918;-0.3678;9.5;-12.17;-35.49;-38.06;150.37;-10.75;5.63;5.0;35.958385;-83.92487;;NaN;;177.66664;;0 / 0;33510;2022-11-09 16:55:51:912
-0.3251;3.5788;5.3207;-0.5851;3.443;9.1637;1.0169;-1.4455;-3.4051;1.3128;-0.1575;-1.118;13.2;-5.14;-34.87;-28.82;164.54;-18.54;3.29;5.0;35.958385;-83.92487;;NaN;;177.66664;;0 / 0;34011;2022-11-09 16:55:52:413
-1.8072;2.8675;8.9836;-0.0935;1.6358;9.6688;-1.7545;1.2513;-0.8067;-0.3409;-0.7726;-1.7588;11.8;19.03;-8.72;-36.88;262.41;-9.93;1.6;5.0;35.958385;-83.92487;;NaN;;177.66664;;0 / 0;34510;2022-11-09 16:55:52:912
1.3986;1.7016;8.0405;0.1228;0.3745;9.7987;1.4652;1.2161;-2.0106;-0.9016;-0.2443;-2.3006;30.0;16.69;18.43;-41.02;319.82;-3.74;-0.58;5.0;35.958385;-83.92487;;NaN;;177.66664;;0 / 0;35010;2022-11-09 16:55:53:412
1.1785;-0.4292;9.1226;0.3542;0.7359;9.7726;0.8622;-1.2223;-0.8752;0.2305;0.1949;-1.0;22.6;0.9;36.06;-34.52;356.63;-4.3;-2.08;5.0;35.958385;-83.92487;;NaN;;177.66664;;0 / 0;35511;2022-11-09 16:55:53:913
-0.8997;2.0369;5.0189;-0.1969;1.7832;9.6411;-0.508;0.0439;-4.5767;0.4542;-0.1007;-1.1559;12.1;-13.99;35.27;-39.75;19.84;-9.25;1.1;5.0;35.958385;-83.92487;;NaN;;177.66664;;0 / 0;36010;2022-11-09 16:55:54:412
0.149;1.826;5.936;-0.5943;2.3365;9.5057;0.3495;-0.3183;-4.0995;0.3657;-0.0158;0.6969;12.4;-18.88;30.06;-41.25;29.76;-12.79;3.9;5.0;35.958385;-83.92487;;NaN;;177.66664;;0 / 0;36510;2022-11-09 16:55:54:912
-1.1055;1.6202;7.0469;-0.483;1.9462;9.5995;-0.7179;-0.2632;-2.4904;0.7807;-0.6328;0.1386;12.4;-15.26;29.46;-39.36;25.2;-11.45;2.88;5.0;35.958385;-83.92487;;NaN;;177.66664;;0 / 0;37010;2022-11-09 16:55:55:412
0.2303;2.2164;5.881;-0.5676;1.4194;9.6868;0.7621;0.716;-4.0344;0.4579;0.6317;0.2333;12.4;-13.03;29.53;-40.84;23.13;-7.3;2.67;5.0;35.958385;-83.92487;;NaN;;177.66664;;0 / 0;37510;2022-11-09 16:55:55:912
-1.5987;1.7351;9.1226;0.1228;1.0715;9.7472;-1.6885;0.7465;-0.9274;0.4754;-0.342;-0.267;10.9;-8.61;26.42;-41.96;15.55;-6.27;-0.72;5.0;35.958385;-83.92487;;NaN;;177.66664;;0 / 0;38010;2022-11-09 16:55:56:412
0.9915;3.2674;5.7371;-0.1206;1.6283;9.6698;1.4049;1.49;-3.214;0.4965;-0.1025;0.2589;17.3;-3.97;20.55;-37.59;9.4;-9.56;0.71;5.0;35.958385;-83.92487;;NaN;;177.66664;;0 / 0;38510;2022-11-09 16:55:56:912
0.4959;2.3695;6.92;0.2537;1.3827;9.7054;0.0418;1.2655;-2.6448;0.5289;1.9115;0.2082;22.6;-7.71;16.65;-33.49;18.35;-8.11;-1.5;5.0;35.958385;-83.92487;;NaN;;177.66664;;0 / 0;39010;2022-11-09 16:55:57:412
-0.2127;2.8364;6.7116;-0.5158;0.4253;9.7838;0.8523;2.5972;-1.5123;0.7633;0.2298;0.094;45.9;-9.39;18.49;-29.87;28.45;-1.08;2.02;5.0;35.958385;-83.92487;;NaN;;177.66664;;0 / 0;39510;2022-11-09 16:55:57:912
2.8567;-0.4651;15.0024;0.378;2.1057;9.5705;2.1044;-2.3997;4.5028;0.3177;0.2438;-0.1827;43.3;-15.51;14.64;-26.79;35.61;-12.28;-2.69;5.0;35.958385;-83.92487;;NaN;;177.66664;;0 / 1;40010;2022-11-09 16:55:58:412
1.4417;-3.8025;15.3018;-0.612;1.056;9.7304;2.0251;-4.8108;4.3876;0.4673;-0.4452;-1.8162;31.0;-19.26;16.16;-26.38;47.96;-6.18;3.6;5.0;35.958385;-83.92487;;NaN;;177.66664;;0 / 1;40510;2022-11-09 16:55:58:912
0.3954;0.4783;12.4119;0.1098;-0.0415;9.8059;0.2427;-0.0502;2.3462;-0.0082;0.4332;-1.0349;38.2;-27.02;8.76;-22.97;71.33;-0.01;-0.88;5.0;35.958385;-83.92487;;NaN;;177.66664;;0 / 1;41010;2022-11-09 16:55:59:412
-0.3179;2.1996;8.3779;1.2746;0.7698;9.693;-1.5769;1.4081;-1.424;-0.0786;0.275;-1.0759;28.2;-22.41;-1.33;-19.82;87.95;-4.21;-7.97;5.0;35.958385;-83.92487;;NaN;;177.66664;;0 / 1;41510;2022-11-09 16:55:59:912
-0.5381;2.1924;7.5999;-0.8426;1.0142;9.7176;0.4455;1.0477;-3.2441;-0.6524;-0.4709;-0.7887;18.4;-14.53;-5.68;-18.43;104.44;-5.94;4.96;5.0;35.958385;-83.92487;;NaN;;177.66664;;0 / 1;42010;2022-11-09 16:56:00:412
-0.6269;1.1749;7.0062;0.0029;2.5159;9.4784;-0.4079;-1.6884;-2.1762;0.7003;0.479;-0.347;33.2;-15.13;-7.22;-11.77;103.81;-14.87;-0.02;5.0;35.958385;-83.92487;;NaN;;177.66664;;0 / 1;42511;2022-11-09 16:56:00:913
-2.5229;3.6338;7.7842;-0.2491;2.3351;9.5213;-1.2904;0.623;-2.7191;-0.0224;0.0037;-0.9011;41.8;-9.19;-6.41;-15.64;102.66;-13.64;1.42;5.0;35.958385;-83.92487;;NaN;;177.66664;;0 / 1;43011;2022-11-09 16:56:01:413
-0.5022;2.6474;8.2463;-0.6825;2.1021;9.5544;0.5506;0.8324;-1.8534;-0.1926;0.2475;0.0091;33.4;-9.19;-11.83;-23.04;123.18;-12.38;4.09;5.0;35.958385;-83.92487;;NaN;;177.66664;;0 / 1;43510;2022-11-09 16:56:01:912
0.1681;0.8949;8.1936;-0.3281;1.5281;9.6813;0.3646;-0.539;-1.7188;0.2136;-0.634;-0.2255;29.9;-5.25;-11.1;-28.09;136.18;-8.58;3.03;5.0;35.958385;-83.92487;;NaN;;177.66664;;0 / 1;44010;2022-11-09 16:56:02:412
0.4169;1.0241;8.8424;-1.8085;-0.0315;9.6384;2.2463;1.0586;-0.7068;0.0791;-0.0641;-0.5419;26.7;0.71;-7.09;-34.46;142.74;0.18;10.83;5.0;35.958385;-83.92487;;NaN;;177.66664;;0 / 1;44510;2022-11-09 16:56:02:912
-2.3148;0.5716;8.1123;-1.0384;0.5296;9.7371;-1.2321;0.3866;-2.3416;0.1576;0.8504;0.2082;29.4;-7.05;-8.03;-37.86;121.34;-2.97;4.47;5.0;35.958385;-83.92487;;NaN;;177.66664;;0 / 1;45010;2022-11-09 16:56:03:412
-0.8518;-3.5366;16.6448;-1.3698;-0.0938;9.7101;0.3322;-3.0327;6.4256;-0.8269;0.0037;-0.1033;31.4;-0.15;-4.5;-49.76;112.15;-1.08;8.66;5.0;35.958385;-83.92487;;NaN;;177.66664;;0 / 1;45510;2022-11-09 16:56:03:912
-1.7112;1.2395;11.2173;-1.0948;1.1807;9.6735;-0.7255;-0.2123;2.1772;0.0828;1.0746;-0.1381;56.6;8.55;-21.99;-57.9;196.45;-6.79;4.52;5.0;35.958385;-83.92487;;NaN;;177.66664;;0 / 1;46010;2022-11-09 16:56:04:412
-0.5692;1.3666;12.9362;-2.6914;0.1639;9.4287;2.2558;1.1168;2.8249;1.2935;0.5077;-0.3574;78.6;37.93;-22.82;-55.86;224.0;-0.96;15.93;5.0;35.958385;-83.92487;;NaN;;177.66664;;0 / 1;46510;2022-11-09 16:56:04:912
-1.5796;2.0465;6.4962;-1.9524;1.9494;9.4105;0.5343;0.2488;-2.6839;0.5302;-0.3664;-1.3153;154.0;46.56;-17.19;-43.63;259.84;-11.0;11.66;5.0;35.958385;-83.92487;;NaN;;177.66664;;0 / 1;47011;2022-11-09 16:56:05:413
1.4273;-0.5847;7.4154;-2.1907;1.4432;9.4493;3.3674;-2.6576;-1.311;1.1184;-0.6486;-0.8351;242.2;36.56;11.06;-43.99;305.2;-8.46;13.05;5.0;35.958385;-83.92487;;NaN;;177.66664;;0 / 1;47510;2022-11-09 16:56:05:912
-1.3259;3.6194;10.9397;-1.6643;1.555;9.5385;0.1212;2.0113;0.3348;0.2816;0.1827;-0.7484;169.3;22.84;18.34;-52.11;331.61;-8.83;9.42;5.0;35.958385;-83.92487;;NaN;;177.66664;;0 / 1;48010;2022-11-09 16:56:06:412
-1.2159;0.9523;9.3308;-0.9329;1.8299;9.5891;-0.1406;-1.286;-0.0201;-0.0729;-0.8172;-1.366;85.9;8.27;7.78;-47.18;348.48;-10.75;5.56;5.0;35.958385;-83.92487;;NaN;;177.66664;;0 / 1;48510;2022-11-09 16:56:06:912
1.6211;2.9465;16.3406;-0.6896;2.6759;9.4093;2.0471;0.8989;5.9245;-0.8631;0.1803;0.5943;98.8;4.52;2.63;-42.3;353.75;-17.69;4.46;5.0;35.958385;-83.92487;;NaN;;177.66664;;0 / 1;49010;2022-11-09 16:56:07:412
-1.3786;3.9664;10.8607;-0.2149;3.7004;9.0792;-1.5325;0.2702;1.9436;-0.253;-0.5631;0.171;161.7;3.86;-2.61;-39.34;345.59;-22.17;1.36;5.0;35.958385;-83.92487;;NaN;;177.66664;;0 / 1;49510;2022-11-09 16:56:07:912
-0.3371;4.2419;10.9277;-0.2056;3.8389;9.0217;-0.1043;0.3058;1.9094;0.119;0.3568;0.0323;133.9;0.19;-2.96;-39.56;2.3;-22.9;0.74;5.0;35.958385;-83.92487;;NaN;;177.66664;;0 / 1;50010;2022-11-09 16:56:08:412
-0.8806;2.9827;12.0458;-0.5266;3.7242;9.0567;-0.3793;-0.8552;2.1879;-0.5066;-0.3279;0.0195;123.2;1.29;-3.0;-39.6;6.09;-22.32;3.33;5.0;35.958385;-83.92487;;NaN;;177.66664;;0 / 1;50510;2022-11-09 16:56:08:912
0.7211;2.7168;10.547;0.6821;2.6627;9.4136;-0.6143;0.5749;0.6279;-1.1421;-0.9816;0.4385;98.1;-5.04;4.07;-46.27;5.79;-15.75;-4.14;5.0;35.958385;-83.92487;;NaN;;177.66664;;0 / 1;51010;2022-11-09 16:56:09:412
1.1665;-0.0365;15.4741;-0.4021;2.1222;9.5658;1.2415;-1.7949;2.1959;-0.5085;-0.4648;0.2455;67.7;2.91;7.26;-47.77;359.24;-13.38;3.29;5.0;35.958385;-83.92487;;NaN;;177.66664;;0 / 1;51510;2022-11-09 16:56:09:912
-2.056;2.9898;6.8408;0.4279;2.6078;9.4439;-2.1346;0.5201;-3.6611;-0.496;0.1265;-0.4533;51.8;-8.96;10.71;-51.81;15.14;-15.42;-2.59;5.0;35.958385;-83.92487;;NaN;;177.66664;;0 / 1;52010;2022-11-09 16:56:10:412
-0.4926;2.8172;6.1418;0.2088;3.0211;9.3274;-0.9174;-0.3477;-2.3522;-0.0106;-0.1594;0.0176;44.0;-2.61;13.09;-49.44;4.41;-17.84;-1.04;5.0;35.958385;-83.92487;;NaN;;177.66664;;0 / 1;52510;2022-11-09 16:56:10:912
-0.0547;0.617;7.066;0.3584;2.947;9.3465;-0.4444;-2.3833;-2.3661;0.7645;-0.4483;-1.3367;28.1;-9.54;25.74;-50.01;12.24;-16.03;-1.79;5.0;35.958385;-83.92487;;NaN;;177.66664;;0 / 1;53010;2022-11-09 16:56:11:412
0.1322;1.261;7.2814;-0.2915;2.5893;9.4541;0.4288;-1.3414;-2.1992;0.5327;0.2805;-0.2847;72.7;-13.18;35.85;-51.73;16.5;-14.4;1.26;5.0;35.958385;-83.92487;;NaN;;177.66664;;0 / 1;53510;2022-11-09 16:56:11:912
0.7451;1.1462;5.45;-0.3597;3.1678;9.2739;0.9622;-1.6058;-3.9993;1.0112;-0.2663;-1.0728;72.7;-18.62;33.0;-52.71;23.63;-18.85;2.22;5.0;35.958385;-83.92487;;NaN;;177.66664;;0 / 1;54010;2022-11-09 16:56:12:412
-2.2259;1.2706;9.5653;-1.4501;1.703;9.5482;-0.6229;-0.3932;-0.3101;-0.3347;0.154;-1.3269;91.9;-29.4;29.68;-46.33;43.38;-10.87;8.14;5.0;35.958385;-83.92487;;NaN;;177.66664;;0 / 1;54510;2022-11-09 16:56:12:912
-1.2637;1.6705;9.0218;-0.3482;1.64;9.6623;-0.9484;0.1143;-0.9304;-0.5165;-0.331;-0.8369;91.9;-33.98;11.93;-40.44;62.66;-9.63;2.06;5.0;35.958385;-83.92487;;NaN;;177.66664;;0 / 1;55010;2022-11-09 16:56:13:412
-0.105;1.3905;8.6486;-0.7526;0.344;9.7717;0.7409;1.1152;-1.3546;0.2617;-1.3158;-1.4375;75.9;-27.38;-0.58;-37.57;89.51;-2.01;4.4;5.0;35.958385;-83.92487;;NaN;;177.66664;;0 / 1;55510;2022-11-09 16:56:13:912
0.1537;0.4807;13.518;-0.9437;1.2707;9.6781;0.9393;-0.7956;3.6569;0.0778;0.1601;-1.3391;75.9;-18.43;-17.49;-31.69;121.73;-7.62;5.08;5.0;35.958385;-83.92487;;NaN;;177.66664;;0 / 1;56010;2022-11-09 16:56:14:412
-0.9523;1.2179;8.4903;-0.5417;1.9752;9.5904;-0.147;-0.9477;0.0649;0.5109;0.3238;-1.0049;58.7;-24.79;-19.89;-33.21;117.07;-11.12;2.39;5.0;35.958385;-83.92487;;NaN;;177.66664;;0 / 1;56510;2022-11-09 16:56:14:912
-0.7872;2.2953;7.1019;-1.3522;1.2379;9.6338;0.8342;1.0493;-2.3054;0.4891;0.1161;-0.2908;44.3;-20.08;-12.83;-33.24;110.5;-7.25;7.99;5.0;35.958385;-83.92487;;NaN;;177.66664;;0 / 1;57010;2022-11-09 16:56:15:412
-2.0752;2.2116;7.8703;-1.321;1.5197;9.5977;-0.7019;0.575;-1.8213;0.481;0.3666;0.3451;46.8;-23.16;-7.33;-35.51;95.11;-7.84;6.43;5.0;35.958385;-83.92487;;NaN;;177.66664;;0 / 1;57511;2022-11-09 16:56:15:913
-0.5548;1.5365;12.2755;-0.9332;1.4747;9.6501;0.0999;-0.1551;3.7113;-0.3459;-0.6462;0.182;42.4;-19.58;-7.35;-36.04;92.89;-9.78;6.52;5.0;35.958385;-83.92487;;NaN;;177.66664;;0 / 1;58010;2022-11-09 16:56:16:412
-1.3499;1.6633;11.4832;-1.167;2.6787;9.3613;-0.113;-0.9939;2.0631;-0.7259;-0.5039;-0.3794;38.2;-17.83;-8.14;-36.37;86.27;-15.85;7.11;5.0;35.958385;-83.92487;;NaN;;177.66664;;0 / 1;58510;2022-11-09 16:56:16:912
-1.7617;3.6075;10.8081;-1.0554;3.3538;9.1547;-1.5105;0.4924;1.4491;0.3433;0.3727;1.2173;34.3;-18.0;-8.83;-37.12;82.33;-19.27;6.45;5.0;35.958385;-83.92487;;NaN;;177.66664;;0 / 1;59010;2022-11-09 16:56:17:412
-1.7785;2.2211;10.4249;-0.9242;3.2691;9.1994;-0.6623;-1.3318;1.2621;-0.0318;0.7197;2.3707;24.4;-23.38;-5.4;-39.24;74.44;-19.47;5.74;5.0;35.958385;-83.92487;;NaN;;177.66664;;0 / 1;59510;2022-11-09 16:56:17:912
-1.5987;3.2554;9.1346;-0.5546;4.1699;8.8586;-1.2866;-1.3118;0.2357;-0.0817;0.6164;1.0781;27.2;-26.31;-2.18;-40.22;63.03;-25.16;3.58;5.0;35.958385;-83.92487;;NaN;;177.66664;;0 / 0;60010;2022-11-09 16:56:18:412
0.058;3.9852;8.7479;-0.4251;3.5159;9.1448;0.5305;0.4859;-0.4986;-0.0719;0.2734;0.5199;35.2;-24.34;1.18;-40.61;59.61;-21.07;2.81;5.0;35.958385;-83.92487;;NaN;;177.66664;;0 / 0;60510;2022-11-09 16:56:18:912
-0.4089;3.5812;9.4313;-0.352;3.4044;9.19;-0.1111;0.5267;-0.2919;-0.1522;-0.0041;0.2211;35.2;-20.49;-17.14;-48.32;88.29;-20.56;2.21;5.0;35.958385;-83.92487;;NaN;;177.66664;;0 / 0;61010;2022-11-09 16:56:19:412
-0.8231;3.466;8.8783;-0.3813;3.3193;9.22;0.0296;0.3684;-0.3861;-0.2895;0.1146;0.1339;35.2;-20.4;-16.61;-45.51;90.66;-20.31;2.19;5.0;35.958385;-83.92487;;NaN;;177.66664;;0 / 0;61511;2022-11-09 16:56:19:913
-2.7694;5.1514;8.6797;-2.5597;4.779;8.1719;0.3284;-0.4381;2.184;0.5108;0.8957;-0.1784;35.2;-15.58;-22.87;-42.07;94.79;-29.36;15.12;2.0;35.958385;-83.92487;;NaN;;177.66664;;0 / 0;62010;2022-11-09 16:56:20:412