sep=;
ACCELEROMETER X (m/s²);ACCELEROMETER Y (m/s²);ACCELEROMETER Z (m/s²);GRAVITY X (m/s²);GRAVITY Y (m/s²);GRAVITY Z (m/s²);LINEAR ACCELERATION X (m/s²);LINEAR ACCELERATION Y (m/s²);LINEAR ACCELERATION Z (m/s²);GYROSCOPE X (rad/s);GYROSCOPE Y (rad/s);GYROSCOPE Z (rad/s);LIGHT (lux);MAGNETIC FIELD X (μT);MAGNETIC FIELD Y (μT);MAGNETIC FIELD Z (μT);ORIENTATION Z (azimuth °);ORIENTATION X (pitch °);ORIENTATION Y (roll °);PROXIMITY (i);SOUND LEVEL (dB);LOCATION Latitude : ;LOCATION Longitude : ;LOCATION Altitude ( m);LOCATION Altitude-google ( m);LOCATION Speed ( Kmh);LOCATION Accuracy ( m);LOCATION ORIENTATION (°);Satellites in range;Time since start in ms ;YYYY-MO-DD HH-MI-SS_SSS
-2.3554;4.6681;7.5329;-2.0272;5.1119;8.1197;-0.322;0.3481;-0.5101;-0.6703;0.0711;0.6444;190.1;26.27;-44.23;-72.75;289.38;-31.42;14.02;5.0;35.958286;-83.924835;;NaN;;129.03226;;0 / 5;9;2022-11-01 17:28:57:919
-0.8064;4.4644;8.0094;-2.1551;4.3033;8.5444;-0.7242;0.0815;-0.1136;0.0449;0.5863;1.1632;338.8;17.53;-41.27;-83.57;74.94;-26.03;14.16;5.0;35.958286;-83.924835;;NaN;;129.03226;;0 / 3;510;2022-11-01 17:28:58:420
-0.6748;3.5596;7.5736;-1.238;4.1792;8.7847;0.5569;-0.7961;-0.3448;0.2204;0.2303;0.3428;388.2;6.28;-37.91;-85.61;69.45;-25.22;8.02;5.0;35.958286;-83.924835;;NaN;;129.03226;;0 / 3;1010;2022-11-01 17:28:58:920
-2.6904;4.5482;8.4114;-1.3029;3.7406;8.9711;-0.1406;0.0588;2.0903;-0.4765;0.0209;-0.5187;432.7;1.31;-37.73;-85.67;86.98;-24.31;7.35;5.0;35.95826;-83.924484;774.5;NaN;2.88;56.219616;62.5;0 / 11;1509;2022-11-01 17:28:59:419
-3.3488;4.1892;12.5031;-2.0262;3.9554;8.7418;-0.3114;0.1542;2.5347;0.128;0.7122;0.1106;503.9;4.24;-39.28;-87.69;92.67;-23.79;13.05;5.0;35.95826;-83.924484;774.5;NaN;2.88;56.219616;62.5;0 / 11;2010;2022-11-01 17:28:59:920
-0.7825;3.478;7.4058;-1.2241;3.9321;8.9;-0.3578;-0.3535;-0.8134;-0.0074;-0.1856;1.1097;503.9;2.85;-39.66;-87.09;102.21;-23.64;7.83;5.0;35.95826;-83.924484;774.5;NaN;2.88;56.219616;62.5;0 / 11;2510;2022-11-01 17:29:00:420
-0.4902;4.3376;6.8264;-0.0974;3.9194;8.9889;-1.1788;-0.6503;-0.9677;0.0473;-0.3372;0.1083;429.9;-13.29;-34.82;-88.67;76.2;-23.56;0.62;5.0;35.95826;-83.924484;774.5;NaN;2.88;56.219616;62.5;0 / 11;3009;2022-11-01 17:29:00:919
-1.4958;3.9185;8.8041;-1.3475;4.0982;8.8068;0.3364;-0.0046;0.217;-0.2416;0.1881;0.2023;345.9;-19.52;-38.32;-91.12;86.26;-24.91;8.55;5.0;35.95826;-83.924484;774.5;NaN;2.88;56.219616;62.5;0 / 11;3509;2022-11-01 17:29:01:419
-3.2722;3.2483;8.9907;-0.7881;3.9104;8.9587;-2.0639;-0.4195;1.8152;-0.1533;-0.2695;1.0387;307.6;-27.79;-37.01;-96.21;84.93;-23.5;5.03;5.0;35.95826;-83.924484;774.5;NaN;2.88;56.219616;62.5;0 / 11;4010;2022-11-01 17:29:01:920
-0.1026;3.7247;9.1226;-0.34;3.3379;9.2148;0.1778;-0.5179;0.4933;0.0279;0.1532;1.0355;122.3;-34.63;-14.81;-100.24;63.27;-19.9;2.11;5.0;35.95826;-83.924484;774.5;NaN;2.88;56.219616;62.5;0 / 11;4509;2022-11-01 17:29:02:419
0.6667;4.0175;8.0183;0.1897;4.6488;8.6327;-0.9827;-0.7864;1.1439;0.3889;-0.1666;0.1465;156.9;-28.8;5.61;-106.35;25.53;-28.3;-1.26;5.0;35.95826;-83.924484;774.5;NaN;2.88;56.219616;62.5;0 / 11;5010;2022-11-01 17:29:02:920
0.6876;4.4518;9.0676;0.5566;4.4499;8.7212;0.2791;0.1128;0.5809;0.0963;0.1887;0.8319;140.8;-24.82;7.58;-106.31;18.48;-27.74;-3.2;5.0;35.95826;-83.924484;774.5;NaN;2.88;56.219616;62.5;0 / 11;5510;2022-11-01 17:29:03:420
-0.2841;4.0651;8.0049;0.3525;4.2631;8.8245;-0.218;-0.1899;-1.3702;0.0528;0.2848;0.0118;140.8;-15.73;16.82;-108.28;10.58;-25.77;-2.29;5.0;35.95826;-83.924484;774.5;NaN;2.88;56.219616;62.5;0 / 11;6009;2022-11-01 17:29:03:919
-0.0637;3.7717;7.0759;0.1087;4.8742;8.5089;-0.8333;-1.1362;-1.1832;0.5372;-0.0041;0.5012;92.7;-5.96;14.89;-110.87;3.84;-29.8;-0.73;5.0;35.95826;-83.924484;774.5;NaN;2.88;56.219616;62.5;0 / 11;6509;2022-11-01 17:29:04:419
1.0083;2.0351;7.9208;1.4217;2.1052;9.4719;-0.9755;0.2368;-0.5512;-0.0208;-0.3977;0.8637;78.1;4.46;20.63;-105.47;335.4;-12.4;-8.54;5.0;35.95826;-83.924484;774.5;NaN;2.88;56.219616;62.5;0 / 11;7010;2022-11-01 17:29:04:920
2.6441;1.273;8.1682;2.7008;1.4933;9.3084;0.8154;-0.3568;-0.991;-0.2386;0.4955;0.4126;66.4;6.39;22.39;-98.68;316.38;-9.51;-17.37;5.0;35.95826;-83.924484;774.5;NaN;2.88;56.219616;62.5;0 / 11;7510;2022-11-01 17:29:05:420
1.9244;0.6972;10.8335;1.7489;1.1567;9.5799;-0.3664;-0.2348;2.6679;0.3574;-0.2049;-0.0883;57.9;5.85;13.86;-90.49;317.66;-6.77;-10.35;5.0;35.95826;-83.924484;774.5;NaN;2.88;56.219616;62.5;0 / 11;8010;2022-11-01 17:29:05:920
2.9306;0.332;9.4161;2.8054;0.7432;9.3674;0.6779;-0.5807;0.1474;-0.2453;0.7735;-0.1503;52.5;4.65;5.33;-86.19;289.13;-4.91;-19.84;5.0;35.95826;-83.924484;774.5;NaN;2.88;56.219616;62.5;0 / 11;8510;2022-11-01 17:29:06:420
3.1122;-0.2794;9.0867;1.3108;1.2473;9.6383;-0.2628;0.5747;2.8656;-0.0593;-0.075;-0.5553;52.5;11.23;-3.75;-89.62;287.33;-7.31;-7.74;5.0;35.95826;-83.924484;774.5;NaN;2.88;56.219616;62.5;7 / 16;9009;2022-11-01 17:29:06:919
0.6721;0.1268;9.9532;0.9481;-0.734;9.7331;-0.1384;0.3314;0.7151;-0.2882;0.646;0.3116;67.2;16.73;4.35;-101.7;262.5;4.65;-7.7;5.0;35.95826;-83.924484;774.5;NaN;2.88;56.219616;62.5;7 / 16;9510;2022-11-01 17:29:07:420
1.7118;-0.8127;8.6366;0.3195;-0.9875;9.7516;1.2421;0.8046;-0.9919;0.2716;-0.8121;0.7554;145.1;14.94;31.69;-113.12;317.66;5.78;-1.88;5.0;35.95826;-83.924484;774.5;NaN;2.88;56.219616;62.5;7 / 16;10010;2022-11-01 17:29:07:920
1.8359;0.3727;6.3141;1.773;-0.638;9.6239;0.1972;0.7069;-2.9226;-0.3461;-0.1484;-0.2064;218.7;12.71;21.99;-98.7;299.98;2.64;-10.3;5.0;35.95826;-83.924484;774.5;NaN;2.88;56.219616;62.5;7 / 16;10509;2022-11-01 17:29:08:419
1.5015;-0.7038;8.6507;-0.1086;-0.2173;9.8036;1.1392;1.2499;-0.7391;0.6327;0.2791;1.9149;292.2;19.99;18.66;-94.86;311.71;1.27;0.63;5.0;35.95826;-83.924484;774.5;NaN;2.88;56.219616;62.5;7 / 16;11009;2022-11-01 17:29:08:919
0.9434;0.1848;7.826;1.7551;-0.0795;9.648;-1.6345;0.2046;-1.1712;-0.3256;-0.3715;0.1234;347.7;33.92;5.42;-99.9;277.42;-0.84;-8.79;5.0;35.95826;-83.924484;774.5;NaN;2.88;56.219616;62.5;7 / 16;11510;2022-11-01 17:29:09:420
-0.422;-0.0332;8.3997;2.5565;0.4613;9.4563;-2.694;-0.8131;0.8651;1.3271;-0.1891;1.4711;409.3;25.67;0.15;-93.23;274.52;-2.7;-15.13;5.0;35.95826;-83.924484;774.5;NaN;2.88;56.219616;62.5;7 / 16;12009;2022-11-01 17:29:09:919
-0.7289;1.6355;14.7087;1.3665;0.8317;9.6753;1.1326;0.3114;1.6021;-0.0907;-0.0717;0.1537;369.8;30.64;-17.64;-88.84;258.63;-6.08;-9.7;5.0;35.95826;-83.924484;774.5;NaN;2.88;56.219616;62.5;7 / 16;12510;2022-11-01 17:29:10:420
1.2284;0.8067;11.4278;1.5433;-0.5259;9.6702;0.2982;1.2599;-0.3558;-0.2193;-0.263;0.8932;210.8;28.59;-29.98;-80.16;230.54;3.07;-9.07;5.0;35.95826;-83.924484;774.5;NaN;2.88;56.219616;62.5;7 / 16;13009;2022-11-01 17:29:10:919
2.4003;-0.4181;8.8789;1.0632;0.1887;9.747;0.7397;0.2616;-1.7435;0.5746;0.952;2.4084;132.4;25.43;-36.21;-72.69;223.4;-1.1;-6.23;5.0;35.95826;-83.924484;774.5;NaN;2.88;56.219616;62.5;7 / 16;13510;2022-11-01 17:29:11:420
0.6197;-0.9221;8.0252;2.9469;-1.1839;9.2782;-2.7403;0.1821;-0.8572;0.0794;-0.1229;-0.5081;96.8;16.91;-34.56;-75.75;222.45;6.93;-17.62;5.0;35.95826;-83.924484;774.5;NaN;2.88;56.219616;62.5;7 / 16;14009;2022-11-01 17:29:11:919
3.0918;-2.3061;11.5301;1.0891;0.0253;9.746;0.9364;-0.6307;4.8673;0.4559;0.9955;1.6006;96.8;13.14;-28.63;-81.37;215.89;1.47;-6.76;5.0;35.95826;-83.924484;774.5;NaN;2.88;56.219616;62.5;7 / 16;14510;2022-11-01 17:29:12:420
0.6242;0.7496;10.6487;1.9255;0.4434;9.6055;-2.3463;0.3354;3.6149;-0.0331;-0.2359;-0.1349;62.8;12.6;-26.06;-83.59;232.6;-2.59;-11.34;5.0;35.95826;-83.924484;774.5;NaN;2.88;56.219616;62.5;7 / 16;15009;2022-11-01 17:29:12:919
1.8473;1.0588;10.4623;2.1939;0.6;9.5392;-0.8092;0.799;1.4418;-0.1012;-0.1332;-0.379;62.8;7.03;-32.29;-79.12;221.91;-3.51;-12.95;5.0;35.95826;-83.924484;774.5;NaN;2.88;56.219616;62.5;7 / 16;15510;2022-11-01 17:29:13:420
1.4213;1.3475;8.5902;1.8889;1.0949;9.5605;-0.4849;0.6738;-0.8615;0.2247;0.6693;0.8392;55.7;4.95;-38.55;-67.69;209.93;-6.41;-11.18;5.0;35.95826;-83.924484;774.5;NaN;2.88;56.219616;62.5;7 / 16;16009;2022-11-01 17:29:13:919
0.5477;2.2816;8.2286;1.1067;1.2758;9.6601;-2.7283;1.5937;5.0771;0.2472;0.3784;0.0722;50.3;8.98;-48.54;-54.96;197.19;-5.56;-4.69;5.0;35.95826;-83.924484;774.5;NaN;2.88;56.219616;62.5;7 / 16;16510;2022-11-01 17:29:14:420
-0.824;1.584;11.2505;-0.1072;1.6053;9.6738;-1.8974;0.8258;3.0736;-0.0589;1.3844;0.0333;37.8;24.39;-53.02;-60.56;208.9;-9.42;0.63;5.0;35.95826;-83.924484;774.5;NaN;2.88;56.219616;62.5;7 / 16;17009;2022-11-01 17:29:14:919
0.6957;1.4503;8.7072;1.4165;0.5805;9.6864;0.1472;1.3673;2.759;-0.3358;0.3048;0.8906;37.8;32.27;-42.36;-66.73;227.22;-3.39;-8.32;5.0;35.95826;-83.924484;774.5;NaN;2.88;56.219616;62.5;7 / 16;17509;2022-11-01 17:29:15:419
0.8596;1.4632;12.5665;1.1035;1.4113;9.6416;-0.1379;0.3788;2.4615;-0.3438;0.5343;0.2905;37.0;16.88;-35.23;-69.83;224.94;-8.27;-6.53;5.0;35.95826;-83.924484;774.5;NaN;2.88;56.219616;62.5;6 / 16;18009;2022-11-01 17:29:15:919
-2.8502;0.373;13.8706;1.03;-1.731;9.5975;-3.5664;3.7077;3.8118;-0.958;0.9738;1.8236;41.8;-4.33;-20.57;-75.24;198.12;5.7;-10.13;5.0;35.95826;-83.924484;774.5;NaN;2.88;56.219616;62.5;6 / 16;18510;2022-11-01 17:29:16:420
-0.7274;-0.8958;9.1905;-0.1201;0.4652;9.7949;-3.1576;-1.4957;4.8833;0.0055;-1.0139;-0.1691;97.1;-15.0;-8.19;-74.74;105.59;-2.72;0.7;5.0;35.95826;-83.924484;774.5;NaN;2.88;56.219616;62.5;6 / 16;19010;2022-11-01 17:29:16:920
-1.6038;-1.5595;12.4875;0.1815;-1.9107;9.617;-0.1469;0.9927;2.5587;-0.4242;-0.5527;-0.372;97.1;-2.03;-1.76;-79.24;178.32;11.24;-1.08;5.0;35.95826;-83.924484;774.5;NaN;2.88;56.219616;62.5;6 / 16;19509;2022-11-01 17:29:17:419
2.9617;0.714;11.3201;0.7978;-0.7504;9.7453;2.2754;1.2855;1.5534;0.5468;-0.6727;0.5756;118.0;-9.23;13.69;-85.22;15.33;4.39;-4.68;5.0;35.95826;-83.924484;774.5;NaN;2.88;56.219616;62.5;6 / 16;20010;2022-11-01 17:29:17:920
1.5006;-1.963;9.521;1.7383;-2.281;9.3779;-0.253;0.279;0.1801;-0.4312;0.0548;0.8731;93.5;-28.88;28.39;-96.34;55.3;11.83;-11.06;5.0;35.95826;-83.924484;774.5;NaN;2.88;56.219616;62.5;6 / 16;20509;2022-11-01 17:29:18:419
-1.5544;0.315;8.4326;1.0578;-1.0552;9.6922;-3.4438;1.861;-2.4075;0.1168;0.5418;2.1429;51.6;-19.26;9.77;-86.34;86.88;6.18;-6.23;5.0;35.95826;-83.924484;774.5;NaN;2.88;56.219616;62.5;6 / 16;21010;2022-11-01 17:29:18:920
-1.2882;-3.1822;15.3966;1.4806;-1.463;9.5832;-0.29;-1.8896;3.2873;-0.118;0.1165;-1.1963;52.1;2.81;10.52;-82.03;265.77;8.58;-8.78;5.0;35.95826;-83.924484;774.5;NaN;2.88;56.219616;62.5;6 / 16;21509;2022-11-01 17:29:19:419
-0.0634;0.6227;10.8742;2.5061;-0.8884;9.4393;-1.8779;-0.2103;0.7045;0.3005;-0.3112;0.8002;61.2;8.55;-9.34;-71.61;241.01;5.2;-14.87;5.0;35.95826;-83.924484;774.5;NaN;2.88;56.219616;62.5;6 / 16;22009;2022-11-01 17:29:19:919
0.7328;-2.9707;13.5661;1.2084;0.755;9.7026;-0.6104;-3.4736;3.6324;0.2696;-0.7461;-1.6415;50.7;25.48;-19.95;-59.19;243.37;-3.94;-7.19;5.0;35.95826;-83.924484;774.5;NaN;2.88;56.219616;62.5;6 / 16;22510;2022-11-01 17:29:20:420
3.3972;0.6969;13.0292;0.5612;1.4842;9.6774;3.2093;-1.8553;1.4843;1.4991;1.572;-0.0282;64.7;28.84;-11.96;-76.8;269.17;-8.71;-3.32;5.0;35.95826;-83.924484;774.5;NaN;2.88;56.219616;62.5;6 / 16;23010;2022-11-01 17:29:20:920
0.1708;2.1458;9.6897;0.6396;0.2331;9.783;-0.4634;0.2973;3.1068;-1.1689;0.6602;-0.4343;43.1;29.96;-9.39;-83.79;258.74;-1.36;-3.74;5.0;35.95826;-83.924484;774.5;NaN;2.88;56.219616;62.5;6 / 16;23509;2022-11-01 17:29:21:419
4.078;0.5357;9.8058;1.0656;0.5444;9.7334;2.3888;-1.5376;4.3471;0.7161;1.2103;-0.4781;43.8;0.0;-6.24;-63.24;249.86;-3.18;-6.25;5.0;35.95826;-83.924484;774.5;NaN;2.88;56.219616;62.5;6 / 16;24010;2022-11-01 17:29:21:920
1.9905;-0.0233;7.7094;2.4705;-0.9536;9.4423;-0.4343;1.3617;-0.5558;-1.4528;-0.4496;-0.5514;35.4;-2.16;-4.67;-61.67;238.69;2.13;-12.93;5.0;35.95826;-83.924484;774.5;NaN;2.88;56.219616;62.5;6 / 16;24509;2022-11-01 17:29:22:419
2.2831;-0.0335;7.9887;2.5673;-1.3396;9.3694;-0.5237;0.5611;-0.1428;-0.874;0.0765;-0.6066;18.3;-10.27;4.5;-57.32;241.7;7.85;-15.32;5.0;35.95826;-83.924484;774.5;NaN;2.88;56.219616;62.5;6 / 16;25010;2022-11-01 17:29:22:920
1.308;-1.1776;7.6594;1.2021;-1.2653;9.6501;0.1531;-0.0235;-1.6104;-0.7422;0.5634;-1.0962;21.1;-14.57;11.87;-58.27;44.41;5.32;-8.47;5.0;35.95826;-83.924484;774.5;NaN;2.88;56.219616;62.5;6 / 16;25509;2022-11-01 17:29:23:419
-1.1339;0.3491;7.8185;-0.3945;-1.5452;9.6761;-0.4609;1.4918;0.0934;0.1987;-0.0414;2.4985;38.5;-14.79;16.43;-59.53;69.69;9.07;2.33;5.0;35.95826;-83.924484;774.5;NaN;2.88;56.219616;62.5;6 / 16;26010;2022-11-01 17:29:23:920
0.6721;0.2234;10.1052;1.7575;-0.7336;9.62;-1.4622;-0.1898;0.0524;-0.7795;-0.9617;-1.4967;50.9;-5.77;27.96;-80.21;348.06;2.74;-7.94;5.0;35.95826;-83.924484;774.5;NaN;2.88;56.219616;62.5;6 / 16;26510;2022-11-01 17:29:24:420
-3.1842;-2.7144;10.7381;2.0915;-1.1891;9.5069;-5.3511;-1.5581;0.8296;0.5672;-0.0041;2.5842;50.9;-21.32;4.46;-70.99;133.49;6.96;-12.41;5.0;35.95826;-83.924484;774.5;NaN;2.88;56.219616;62.5;3 / 9;27010;2022-11-01 17:29:24:920
3.4415;-1.7456;11.0719;1.4041;0.4127;9.6968;2.3426;-2.0929;0.7967;0.2553;-0.234;-0.7019;45.8;-5.42;-6.17;-83.08;241.44;-1.19;-8.87;5.0;35.95826;-83.924484;774.5;NaN;2.88;56.219616;62.5;3 / 9;27509;2022-11-01 17:29:25:419
0.1899;-1.9537;13.0487;1.4619;-0.9981;9.6456;-1.8995;1.0272;0.0279;0.0773;0.3511;0.8811;38.4;-8.66;-16.39;-79.35;186.98;5.84;-8.62;5.0;35.95826;-83.924484;774.5;NaN;2.88;56.219616;62.5;0 / 10;28009;2022-11-01 17:29:25:919
-0.7077;-0.1887;7.5601;0.4324;-0.4123;9.7884;-1.8179;-0.3194;-0.1758;0.1174;-0.8882;1.6222;38.4;0.69;-21.37;-74.59;180.9;2.84;0.47;5.0;35.95826;-83.924484;774.5;NaN;2.88;56.219616;62.5;0 / 10;28509;2022-11-01 17:29:26:419
1.7949;-0.641;6.3817;0.8573;-0.0089;9.7691;0.9535;-0.8183;-3.5616;-0.0875;0.3291;-0.2666;24.7;-5.29;-34.99;-76.27;182.72;0.05;-5.02;5.0;35.95826;-83.924484;774.5;NaN;2.88;56.219616;62.5;0 / 10;29010;2022-11-01 17:29:26:920
-1.7542;-0.0093;9.0206;-1.4188;-0.1501;9.7023;-0.8899;-0.7165;-2.7384;-0.336;0.9154;1.757;24.7;-2.61;-35.96;-68.79;167.43;0.53;4.31;5.0;35.95826;-83.924484;774.5;NaN;2.88;56.219616;62.5;0 / 10;29509;2022-11-01 17:29:27:419
-1.0253;-1.3095;9.3368;-1.0665;-0.0163;9.7485;-0.7607;-1.8179;1.3744;-0.1114;-1.4865;-1.2781;26.1;-3.15;-34.24;-67.86;163.08;0.1;6.24;5.0;35.95826;-83.924484;774.5;NaN;2.88;56.219616;62.5;0 / 10;30009;2022-11-01 17:29:27:919
-2.2041;-3.3476;13.6199;-0.876;-2.6604;9.3982;-2.6899;-0.3041;6.0867;-2.0181;1.6114;1.7589;21.2;-4.46;-42.07;-60.06;170.41;15.74;5.33;5.0;35.95826;-83.924484;774.5;NaN;2.88;56.219616;62.5;0 / 10;30510;2022-11-01 17:29:28:420
-2.4464;-1.5912;7.9092;0.0512;-3.4827;9.1673;-3.1926;0.9703;0.7557;-0.368;-0.8676;-1.241;28.7;4.37;-40.24;-59.59;184.22;20.8;-0.32;5.0;35.95826;-83.924484;774.5;NaN;2.88;56.219616;62.5;0 / 10;31010;2022-11-01 17:29:28:920
1.8413;-1.0187;6.0772;-1.1586;-4.1136;8.8265;0.8627;1.2582;0.1417;0.2225;-0.0042;0.5456;28.7;19.73;-37.16;-58.91;193.04;25.7;5.91;5.0;35.95826;-83.924484;774.5;NaN;2.88;56.219616;62.5;0 / 10;31509;2022-11-01 17:29:29:419
0.2551;-1.852;5.9004;-0.0832;-3.8227;9.0305;0.646;1.9747;-3.4157;-0.1471;0.5939;0.0205;40.1;24.86;-33.0;-58.88;204.57;22.94;0.53;5.0;35.95826;-83.924484;774.5;NaN;2.88;56.219616;62.5;0 / 10;32010;2022-11-01 17:29:29:920
-3.2853;-3.0861;7.226;-2.5919;-4.8212;8.1369;-0.9597;0.0532;-0.3532;0.8198;-0.2879;0.1484;57.8;23.76;-23.53;-56.98;186.21;29.45;17.67;5.0;35.95826;-83.924484;774.5;NaN;2.88;56.219616;62.5;0 / 10;32509;2022-11-01 17:29:30:419
-2.1721;-0.4385;3.7304;-1.4138;-1.6065;9.5703;-0.7734;0.5486;-5.5618;1.1056;-0.6752;-0.9914;77.3;28.74;-29.51;-53.72;208.04;9.43;8.4;5.0;35.95826;-83.924484;774.5;NaN;2.88;56.219616;62.5;0 / 10;33009;2022-11-01 17:29:30:919
-0.2593;-1.0983;5.6815;-2.367;-3.1405;8.9836;1.8218;1.151;-0.8782;0.9188;-0.2479;0.0887;77.3;18.88;-13.42;-48.09;190.84;21.63;15.0;5.0;35.95826;-83.924484;774.5;NaN;2.88;56.219616;62.5;0 / 10;33510;2022-11-01 17:29:31:420
-2.4966;-1.3573;5.3393;-2.5749;-1.8353;9.2829;0.4377;1.1936;-5.2555;0.2982;0.3376;0.7193;52.9;11.36;-1.09;-53.01;162.17;10.79;15.5;5.0;35.95826;-83.924484;774.5;NaN;2.88;56.219616;62.5;0 / 10;34009;2022-11-01 17:29:31:919
-0.4905;-1.8604;7.8906;-3.0225;-3.2792;8.734;2.5332;2.0141;-3.3983;0.126;-0.1968;0.4004;93.0;3.96;17.4;-52.26;93.67;19.53;19.09;5.0;35.95826;-83.924484;774.5;NaN;2.88;56.219616;62.5;0 / 10;34510;2022-11-01 17:29:32:420
-2.1793;-0.8904;5.9022;-2.1977;-3.2513;8.9872;-0.0119;2.2554;-2.8039;0.0114;-0.1865;0.0553;139.8;-13.63;34.88;-55.93;59.12;19.36;13.74;5.0;35.95826;-83.924484;774.5;NaN;2.88;56.219616;62.5;0 / 10;35010;2022-11-01 17:29:32:920
-1.8182;-3.4155;6.8462;-1.2095;-3.0038;9.2566;-0.5869;-0.6047;-3.6291;-0.6125;-0.272;2.3816;189.9;-15.77;26.06;-65.53;70.86;15.54;5.98;5.0;35.95826;-83.924484;774.5;NaN;2.88;56.219616;62.5;0 / 10;35509;2022-11-01 17:29:33:419
-2.9486;-4.2275;6.8988;-1.556;-3.6111;8.9838;-1.2242;-0.4239;-1.8813;0.1142;-0.0534;0.456;189.9;-29.81;54.49;-60.6;53.15;21.61;9.83;5.0;35.95826;-83.924484;774.5;NaN;2.88;56.219616;62.5;3 / 6;36009;2022-11-01 17:29:33:919
-4.8535;-5.9536;11.0285;-2.5378;-3.8249;8.666;-0.8368;-1.4674;2.3394;-0.3748;-0.3115;0.7858;189.9;-53.7;41.38;-74.06;77.6;22.96;16.32;5.0;35.95826;-83.924484;774.5;NaN;2.88;56.219616;62.5;3 / 6;36509;2022-11-01 17:29:34:419
-1.8132;-4.6878;8.5923;-3.5965;-4.4709;7.9528;1.8974;0.1774;0.2465;-0.8813;0.0278;1.3649;189.9;-33.96;37.48;-70.99;80.74;27.12;24.33;5.0;35.95826;-83.924484;774.5;NaN;2.88;56.219616;62.5;3 / 6;37009;2022-11-01 17:29:34:919
-3.309;-2.5196;5.971;-1.9478;-4.0462;8.7181;-1.3782;1.5129;-2.6567;-0.3637;-0.4502;0.8582;65.8;-15.51;38.78;-64.61;70.09;24.43;12.11;5.0;35.95826;-83.924484;774.5;NaN;2.88;56.219616;62.5;3 / 6;37509;2022-11-01 17:29:35:419
-0.7585;-1.8598;5.2588;-2.6292;-3.9519;8.5814;1.1063;2.351;-3.0443;0.5685;-0.1109;-0.4154;36.5;-1.09;31.91;-55.14;64.3;23.76;17.03;5.0;35.95826;-83.924484;774.5;NaN;2.88;56.219616;62.5;3 / 6;38009;2022-11-01 17:29:35:919
0.058;-5.2732;7.9487;-2.909;-4.9628;7.9422;2.1259;0.6768;-0.7506;0.1128;0.3144;1.6365;26.3;-1.24;25.91;-52.71;97.68;30.4;20.12;5.0;35.95826;-83.924484;774.5;NaN;2.88;56.219616;62.5;3 / 6;38510;2022-11-01 17:29:36:420
-2.9946;0.0488;7.9262;-2.3395;-5.4415;7.8158;-2.6166;1.8559;2.5739;0.0919;-0.2186;-1.4595;23.4;9.13;28.22;-43.29;105.03;33.7;16.66;5.0;35.95826;-83.924484;774.5;NaN;2.88;56.219616;62.5;3 / 6;39010;2022-11-01 17:29:36:920
-1.2652;-3.1759;6.0811;-3.7108;-4.5086;7.8786;2.5783;1.6575;-2.2548;0.3611;0.2575;0.1991;23.4;8.59;24.0;-41.59;84.25;28.67;23.24;5.0;35.95826;-83.924484;774.5;NaN;2.88;56.219616;62.5;3 / 6;39510;2022-11-01 17:29:37:420
-0.2225;-3.2509;5.4846;-4.6593;-3.9842;7.6542;3.6179;1.9579;-2.0004;1.5836;1.3926;0.931;26.5;19.86;22.8;-35.93;20.83;23.97;31.33;5.0;35.95826;-83.924484;774.5;NaN;2.88;56.219616;62.5;3 / 6;40010;2022-11-01 17:29:37:920
-1.0819;-1.873;3.4412;-3.0769;-3.7724;8.513;0.1988;0.8649;-4.6752;1.502;0.4001;0.7054;26.5;22.84;25.82;-37.01;289.86;27.06;17.23;5.0;35.95826;-83.924484;774.5;NaN;2.88;56.219616;62.5;3 / 6;40510;2022-11-01 17:29:38:420
-1.4728;-1.4366;4.028;-3.3052;-4.9964;7.7642;0.2912;2.5551;0.3372;1.0191;0.3932;-0.4239;31.6;28.18;30.62;-34.31;292.48;30.63;23.06;5.0;35.95826;-83.924484;774.5;NaN;2.88;56.219616;62.5;3 / 6;41009;2022-11-01 17:29:38:919
-2.4054;-4.317;6.5501;-4.3811;-4.3617;7.6126;0.796;-2.1511;0.9887;0.878;-0.2427;0.3087;36.4;24.45;37.13;-32.93;341.28;29.89;30.38;5.0;35.95826;-83.924484;774.5;NaN;2.88;56.219616;62.5;3 / 6;41509;2022-11-01 17:29:39:419
-2.8104;-4.1806;11.1763;-2.5183;-5.8057;7.4915;-0.6089;-0.5262;6.6846;0.3259;-0.5498;-0.7933;40.5;28.41;39.62;-33.02;297.77;36.3;18.58;5.0;35.95826;-83.924484;774.5;NaN;2.88;56.219616;62.5;3 / 6;42010;2022-11-01 17:29:39:920
-2.0734;-8.819;10.9137;-1.8787;-6.0847;7.4577;-0.4849;-2.3016;2.8441;-0.9158;0.4145;1.5762;40.5;13.78;45.21;-29.06;332.78;35.97;8.74;5.0;35.95826;-83.924484;774.5;NaN;2.88;56.219616;62.5;3 / 6;42510;2022-11-01 17:29:40:420
-6.8859;-10.8428;13.7363;-0.6329;-5.3283;8.2084;-5.1141;-4.9299;5.8908;0.0327;-0.7485;-0.4342;40.5;14.48;38.98;-21.79;328.78;32.91;4.41;5.0;35.95826;-83.924484;774.5;NaN;2.88;56.219616;62.5;3 / 6;43010;2022-11-01 17:29:40:920
-5.6225;-7.4608;4.8215;-1.5859;-4.8514;8.3737;-2.6337;-5.4003;1.6707;1.6856;-0.8532;-1.9356;35.2;24.73;26.31;-11.59;297.66;34.6;18.65;5.0;35.95826;-83.924484;774.5;NaN;2.88;56.219616;62.5;3 / 6;43510;2022-11-01 17:29:41:420
-2.8499;-6.2462;6.1502;-2.9792;-4.6509;8.1033;-0.0508;-0.8931;-1.8419;-0.0955;-0.8008;3.4837;39.9;35.93;15.06;-14.21;272.14;28.31;20.19;5.0;35.95826;-83.924484;774.5;NaN;2.88;56.219616;62.5;3 / 6;44009;2022-11-01 17:29:41:919
-2.4233;-3.4313;5.0163;-2.6106;-4.1721;8.4823;0.0414;0.7917;-3.6721;1.1742;-0.596;-0.6044;30.8;41.74;-8.46;-15.96;237.76;26.87;21.71;5.0;35.95826;-83.924484;774.5;NaN;2.88;56.219616;62.5;3 / 6;44509;2022-11-01 17:29:42:419
-0.2976;-2.7194;5.994;-2.072;-5.0335;8.1573;1.3075;0.1552;0.6521;1.2405;-0.4767;0.5992;28.6;33.38;-13.69;-20.49;226.0;30.88;14.25;5.0;35.95826;-83.924484;774.5;NaN;2.88;56.219616;62.5;2 / 6;45009;2022-11-01 17:29:42:919
-0.9209;-0.8474;2.6303;-1.7542;-4.1405;8.7149;-0.4554;3.2074;-5.7618;0.7165;-0.7034;1.197;21.7;22.69;-19.61;-23.12;214.18;25.99;7.34;5.0;35.95826;-83.924484;774.5;NaN;2.88;56.219616;62.5;2 / 6;45509;2022-11-01 17:29:43:419
-3.0473;-5.2579;7.4827;-1.8167;-4.4061;8.5706;-1.9218;-0.5393;-2.3751;-0.078;-0.386;0.5443;24.7;12.36;-16.95;-28.09;191.71;26.7;11.97;5.0;35.958595;-83.92395;696.12;NaN;;701.8604;;0 / 6;46010;2022-11-01 17:29:43:920
-5.3139;-8.1111;10.5039;-3.1896;-4.816;7.9248;-0.4624;-1.9355;2.7523;-0.0034;-0.0164;0.056;37.8;4.43;-9.69;-32.38;160.81;29.89;22.25;5.0;35.958595;-83.92395;696.12;NaN;;701.8604;;0 / 6;46510;2022-11-01 17:29:44:420
1.453;-3.8025;9.0203;-0.1421;-3.2755;9.2424;1.5597;-0.2238;-0.1103;0.6215;-1.353;-1.4179;42.4;-3.96;-8.27;-35.64;166.89;19.51;0.88;5.0;35.958595;-83.92395;696.12;NaN;;701.8604;;0 / 6;47009;2022-11-01 17:29:44:919
0.2028;-0.3805;7.0801;1.2075;-0.7363;9.7041;-1.3687;0.4857;-1.1354;0.5345;0.4078;0.4644;42.4;-6.64;-15.06;-33.24;170.67;4.31;-7.09;5.0;35.958595;-83.92395;696.12;NaN;;701.8604;;0 / 6;47510;2022-11-01 17:29:45:420
0.7086;-0.5378;7.6409;0.0774;-0.3547;9.7999;0.7507;0.3107;-3.1021;0.5758;-0.3682;-1.0059;25.8;1.67;-13.91;-34.14;188.48;2.07;-0.45;5.0;35.958595;-83.92395;696.12;NaN;;701.8604;;0 / 6;48010;2022-11-01 17:29:45:920
-0.8255;1.9436;7.2838;0.9332;0.402;9.7539;-1.4468;0.5166;-3.5316;0.0139;-0.8119;0.8751;26.0;11.64;-15.92;-33.88;224.39;-2.42;-3.9;5.0;35.958595;-83.92395;696.12;NaN;;701.8604;;0 / 6;48509;2022-11-01 17:29:46:419
3.0434;-1.0469;8.208;0.7135;-0.9346;9.7359;-0.256;1.1005;-2.9815;-0.015;-0.0673;0.7029;26.0;15.68;-16.11;-36.56;223.99;5.47;-4.19;5.0;35.958595;-83.92395;696.12;NaN;;701.8604;;0 / 6;49010;2022-11-01 17:29:46:920
1.1282;0.3467;5.6103;3.0199;-0.5233;9.3154;0.0933;-0.7757;-4.5851;-0.1276;-0.0343;-0.6441;26.0;15.04;-14.02;-40.33;239.35;3.06;-17.96;5.0;35.958595;-83.92395;696.12;NaN;;701.8604;;0 / 6;49509;2022-11-01 17:29:47:419
3.1295;-3.5294;8.6246;3.0129;-2.0887;9.0956;1.6853;-1.1117;-0.8766;-0.0237;-0.3775;-1.0141;35.1;4.37;-3.69;-43.61;234.59;12.3;-18.33;5.0;35.958595;-83.92395;696.12;NaN;;701.8604;;0 / 6;50009;2022-11-01 17:29:47:919
5.6674;-0.9846;6.8746;4.2958;0.1607;8.8142;0.4138;-0.6071;-0.5541;1.3571;-0.7766;0.6664;48.8;-10.31;-3.13;-40.91;233.72;3.0;-23.32;5.0;35.958595;-83.92395;696.12;NaN;;701.8604;;0 / 6;50510;2022-11-01 17:29:48:420
2.6889;0.0257;6.9392;4.0687;0.0607;8.9226;-0.5529;-0.3936;-1.4692;0.3281;-0.8592;-0.2794;38.2;-16.72;-4.46;-40.12;196.83;-0.35;-24.51;5.0;35.958595;-83.92395;696.12;NaN;;701.8604;;0 / 6;51009;2022-11-01 17:29:48:919
3.0027;0.725;9.0051;3.5469;0.2345;9.1397;1.4215;0.2199;0.4839;0.7647;0.5307;0.7364;44.1;-19.14;6.19;-40.59;22.14;-1.37;-21.21;5.0;35.958595;-83.92395;696.12;NaN;;701.8604;;0 / 6;51509;2022-11-01 17:29:49:419
2.0115;0.3485;6.6945;2.8736;-0.4329;9.3662;-0.8378;0.7131;-2.932;1.3981;0.0811;1.4576;44.1;-17.23;41.14;-48.28;3.21;2.53;-17.06;5.0;35.958595;-83.92395;696.12;NaN;;701.8604;;0 / 6;52009;2022-11-01 17:29:49:919
1.4034;-1.0585;9.8372;2.8487;-0.3;9.379;-1.2379;-0.5599;-0.0558;0.161;0.4038;0.705;65.2;-19.16;64.14;-51.9;2.14;1.07;-17.63;5.0;35.958595;-83.92395;696.12;NaN;;701.8604;;0 / 6;52510;2022-11-01 17:29:50:420
3.7173;0.2168;9.7735;4.2296;0.5288;8.8319;-1.0445;-0.5316;1.3755;1.6426;-0.0355;1.0069;74.8;-22.01;63.64;-55.61;356.3;-3.09;-25.59;5.0;35.958595;-83.92395;696.12;NaN;;701.8604;;0 / 6;53010;2022-11-01 17:29:50:920
3.178;1.7207;8.2322;3.4389;1.3464;9.0847;-0.0592;0.0815;-0.5512;0.2449;-0.0292;0.4966;46.7;-6.73;51.68;-76.39;341.71;-7.89;-20.73;5.0;35.958595;-83.92395;696.12;NaN;;701.8604;;0 / 6;53509;2022-11-01 17:29:51:419
1.8359;0.8177;9.2946;4.2957;1.4749;8.6915;-2.5501;-0.741;0.396;0.6604;-0.079;0.1962;72.5;-12.09;26.27;-57.58;336.48;-8.65;-26.3;5.0;35.958595;-83.92395;696.12;NaN;;701.8604;;1 / 4;54010;2022-11-01 17:29:51:920
5.2816;1.2793;6.5602;4.4453;1.3112;8.6424;-0.0734;-0.0735;-1.0704;0.7019;-0.0824;1.0636;54.1;3.08;-6.62;-51.49;266.24;-6.86;-28.68;5.0;35.958595;-83.92395;696.12;NaN;;701.8604;;1 / 4;54509;2022-11-01 17:29:52:419
2.5322;1.573;7.7821;3.41;1.7299;9.0305;-0.8069;-0.1282;-1.2415;-0.5242;-0.97;-0.0695;66.0;11.53;-20.01;-44.85;244.38;-10.16;-20.69;5.0;35.958595;-83.92395;696.12;NaN;;701.8604;;0 / 4;55009;2022-11-01 17:29:52:919
1.7031;1.3409;9.4986;2.5621;1.7832;9.2966;-0.543;-0.7353;1.114;0.7148;-0.4565;0.6679;66.0;9.68;-22.29;-40.35;233.31;-10.48;-15.41;5.0;35.958595;-83.92395;696.12;NaN;;701.8604;;0 / 4;55510;2022-11-01 17:29:53:420
2.7912;1.322;8.2298;4.1661;0.8542;8.8365;-1.0803;0.0589;-1.5783;-0.0706;-0.0925;-0.0108;41.7;5.16;-22.33;-39.68;228.71;-5.0;-25.24;5.0;35.958717;-83.924736;723.23;NaN;0.0;667.8768;;0 / 4;56010;2022-11-01 17:29:53:920
4.2452;0.6882;11.2149;4.252;1.5423;8.7013;-1.339;-1.3543;-0.2314;0.3717;-0.4355;0.5636;35.9;6.53;-22.09;-44.74;236.71;-8.2;-24.27;5.0;35.958717;-83.924736;723.23;NaN;0.0;667.8768;;0 / 4;56510;2022-11-01 17:29:54:420
1.7614;1.7728;7.628;4.2399;0.8831;8.7985;-2.5413;0.9218;-0.7947;-0.3703;-0.459;-0.0135;34.6;5.98;-19.95;-51.41;239.82;-5.17;-25.73;5.0;35.958717;-83.924736;723.23;NaN;0.0;667.8768;;0 / 4;57009;2022-11-01 17:29:54:919
3.3111;0.8306;8.1197;3.7567;1.4145;8.9474;-1.8667;-0.9032;-0.3262;0.4861;-1.0302;0.2126;34.6;10.39;-14.53;-59.81;253.39;-6.77;-18.77;5.0;35.958717;-83.924736;723.23;NaN;0.0;667.8768;;0 / 4;57510;2022-11-01 17:29:55:420
2.3375;0.6057;7.121;2.1575;0.4874;9.5539;0.0624;0.1192;-2.886;0.1393;1.315;-0.004;27.8;11.14;-9.09;-63.24;256.18;-2.85;-12.73;5.0;35.958717;-83.924736;723.23;NaN;0.0;667.8768;;0 / 4;58009;2022-11-01 17:29:55:919
1.5105;0.2216;7.783;0.7953;1.2859;9.6894;0.7471;-1.5775;-1.2579;1.1341;-0.2143;0.7601;24.6;18.53;-3.07;-63.99;271.8;-3.43;-4.27;5.0;35.958717;-83.924736;723.23;NaN;0.0;667.8768;;0 / 4;58510;2022-11-01 17:29:56:420
0.489;-0.0018;6.9168;-0.1755;-0.5582;9.7892;0.4476;0.8991;-2.6705;0.5685;-0.3693;0.8453;30.3;27.39;4.78;-52.82;274.28;3.26;1.03;5.0;35.958717;-83.924736;723.23;NaN;0.0;667.8768;;0 / 4;59009;2022-11-01 17:29:56:919
0.9613;-0.5731;5.4718;1.4739;-1.9714;9.4927;-1.0264;0.7613;-1.4528;-0.0495;-1.1585;-0.9777;36.1;27.3;15.47;-54.32;274.23;13.68;-3.81;5.0;35.958717;-83.924736;723.23;NaN;0.0;667.8768;;0 / 4;59510;2022-11-01 17:29:57:420
0.9556;0.02;6.1863;-0.1104;0.662;9.7837;-0.0447;-0.106;-3.6159;0.1209;0.6222;2.0077;43.8;11.18;27.06;-68.93;342.08;-3.87;0.65;5.0;35.958717;-83.924736;723.23;NaN;0.0;667.8768;;0 / 4;60009;2022-11-01 17:29:57:919
-2.5286;0.224;9.3386;1.3083;-0.0333;9.7189;-3.3864;-0.408;0.5172;-0.5465;-0.4103;-0.3057;53.8;7.03;20.83;-83.1;319.83;0.47;-7.07;5.0;35.958717;-83.924736;723.23;NaN;0.0;667.8768;;0 / 4;60509;2022-11-01 17:29:58:419
2.368;-0.25;11.3617;1.4285;0.2763;9.6981;0.3508;-1.4976;3.0966;0.1606;-0.3265;1.2629;49.4;-7.14;6.32;-70.27;341.94;-3.45;-8.43;5.0;35.958717;-83.924736;723.23;NaN;0.0;667.8768;;0 / 4;61010;2022-11-01 17:29:58:920
0.7116;1.0842;7.4007;1.8583;-0.168;9.6275;-1.0504;1.7762;-3.2994;-0.0223;-0.5897;0.6599;41.6;-6.79;8.53;-61.99;338.55;0.23;-9.6;5.0;35.958717;-83.924736;723.23;NaN;0.0;667.8768;;0 / 4;61509;2022-11-01 17:29:59:419
2.5881;-0.8294;8.6234;1.8583;-0.168;9.6275;-1.0504;1.7762;-3.2994;-0.0223;-0.5897;0.6599;28.1;-6.79;8.53;-61.99;338.55;0.23;-9.6;5.0;35.958717;-83.924736;723.23;NaN;0.0;667.8768;;0 / 4;62010;2022-11-01 17:29:59:920
2.5666;0.2486;7.8126;1.8583;-0.168;9.6275;-1.0504;1.7762;-3.2994;-0.0223;-0.5897;0.6599;20.6;-6.79;8.53;-61.99;338.55;0.23;-9.6;5.0;35.958717;-83.924736;723.23;NaN;0.0;667.8768;;0 / 4;62510;2022-11-01 17:30:00:420
2.3877;-1.9848;9.9933;1.8583;-0.168;9.6275;-1.0504;1.7762;-3.2994;-0.0223;-0.5897;0.6599;26.8;-6.79;8.53;-61.99;338.55;0.23;-9.6;5.0;35.958717;-83.924736;723.23;NaN;0.0;667.8768;;0 / 4;63009;2022-11-01 17:30:00:919
2.4335;-0.711;8.5044;1.8583;-0.168;9.6275;-1.0504;1.7762;-3.2994;-0.0223;-0.5897;0.6599;25.8;-6.79;8.53;-61.99;338.55;0.23;-9.6;5.0;35.958717;-83.924736;723.23;NaN;0.0;667.8768;;0 / 4;63510;2022-11-01 17:30:01:420
3.1026;-0.387;8.4951;1.8583;-0.168;9.6275;-1.0504;1.7762;-3.2994;-0.0223;-0.5897;0.6599;42.1;-6.79;8.53;-61.99;338.55;0.23;-9.6;5.0;35.958717;-83.924736;723.23;NaN;0.0;667.8768;;0 / 4;64009;2022-11-01 17:30:01:919
3.0823;-0.3224;10.4186;1.8583;-0.168;9.6275;-1.0504;1.7762;-3.2994;-0.0223;-0.5897;0.6599;42.1;-6.79;8.53;-61.99;338.55;0.23;-9.6;5.0;35.958717;-83.924736;723.23;NaN;0.0;667.8768;;0 / 4;64509;2022-11-01 17:30:02:419
5.0668;-0.7777;7.8449;1.8583;-0.168;9.6275;-1.0504;1.7762;-3.2994;-0.0223;-0.5897;0.6599;37.7;-6.79;8.53;-61.99;338.55;0.23;-9.6;5.0;35.958717;-83.924736;723.23;NaN;0.0;667.8768;;0 / 4;65009;2022-11-01 17:30:02:919
0.4768;0.6254;11.8881;1.8583;-0.168;9.6275;-1.0504;1.7762;-3.2994;-0.0223;-0.5897;0.6599;30.3;-6.79;8.53;-61.99;338.55;0.23;-9.6;5.0;35.958717;-83.924736;723.23;NaN;0.0;667.8768;;0 / 4;65509;2022-11-01 17:30:03:419
1.844;-1.0238;12.5163;1.8583;-0.168;9.6275;-1.0504;1.7762;-3.2994;-0.0223;-0.5897;0.6599;25.8;-6.79;8.53;-61.99;338.55;0.23;-9.6;5.0;35.958717;-83.924736;723.23;NaN;0.0;667.8768;;0 / 4;66010;2022-11-01 17:30:03:920
2.33;1.2377;8.7628;1.8583;-0.168;9.6275;-1.0504;1.7762;-3.2994;-0.0223;-0.5897;0.6599;30.0;-6.79;8.53;-61.99;338.55;0.23;-9.6;5.0;35.958717;-83.924736;723.23;NaN;0.0;667.8768;;0 / 4;66510;2022-11-01 17:30:04:420
-0.1349;1.2981;12.3497;1.8583;-0.168;9.6275;-1.0504;1.7762;-3.2994;-0.0223;-0.5897;0.6599;32.3;-6.79;8.53;-61.99;338.55;0.23;-9.6;5.0;35.958717;-83.924736;723.23;NaN;0.0;667.8768;;0 / 4;67010;2022-11-01 17:30:04:920
1.3499;2.3707;12.7095;1.8583;-0.168;9.6275;-1.0504;1.7762;-3.2994;-0.0223;-0.5897;0.6599;21.4;-6.79;8.53;-61.99;338.55;0.23;-9.6;5.0;35.958717;-83.924736;723.23;NaN;0.0;667.8768;;0 / 4;67510;2022-11-01 17:30:05:420
3.923;0.4361;10.2165;1.8583;-0.168;9.6275;-1.0504;1.7762;-3.2994;-0.0223;-0.5897;0.6599;27.7;-6.79;8.53;-61.99;338.55;0.23;-9.6;5.0;35.958717;-83.924736;723.23;NaN;0.0;667.8768;;0 / 4;68009;2022-11-01 17:30:05:919
2.2283;0.8327;8.9602;1.8583;-0.168;9.6275;-1.0504;1.7762;-3.2994;-0.0223;-0.5897;0.6599;34.3;-6.79;8.53;-61.99;338.55;0.23;-9.6;5.0;35.958717;-83.924736;723.23;NaN;0.0;667.8768;;0 / 4;68510;2022-11-01 17:30:06:420
0.3275;-0.6574;9.2695;1.8583;-0.168;9.6275;-1.0504;1.7762;-3.2994;-0.0223;-0.5897;0.6599;71.2;-6.79;8.53;-61.99;338.55;0.23;-9.6;5.0;35.958717;-83.924736;723.23;NaN;0.0;667.8768;;0 / 4;69009;2022-11-01 17:30:06:919
2.6273;-1.1381;10.544;1.8583;-0.168;9.6275;-1.0504;1.7762;-3.2994;-0.0223;-0.5897;0.6599;71.2;-6.79;8.53;-61.99;338.55;0.23;-9.6;5.0;35.958717;-83.924736;723.23;NaN;0.0;667.8768;;0 / 4;69510;2022-11-01 17:30:07:420
1.2257;-0.1983;9.6425;1.8583;-0.168;9.6275;-1.0504;1.7762;-3.2994;-0.0223;-0.5897;0.6599;49.0;-6.79;8.53;-61.99;338.55;0.23;-9.6;5.0;35.958717;-83.924736;723.23;NaN;0.0;667.8768;;0 / 4;70010;2022-11-01 17:30:07:920
1.7641;-0.8647;9.801;1.8583;-0.168;9.6275;-1.0504;1.7762;-3.2994;-0.0223;-0.5897;0.6599;59.4;-6.79;8.53;-61.99;338.55;0.23;-9.6;5.0;35.958717;-83.924736;723.23;NaN;0.0;667.8768;;0 / 4;70509;2022-11-01 17:30:08:419
2.4153;3.1328;7.1492;1.8583;-0.168;9.6275;-1.0504;1.7762;-3.2994;-0.0223;-0.5897;0.6599;66.9;-6.79;8.53;-61.99;338.55;0.23;-9.6;5.0;35.958717;-83.924736;723.23;NaN;0.0;667.8768;;0 / 4;71010;2022-11-01 17:30:08:920
1.4677;2.3542;10.8075;1.8583;-0.168;9.6275;-1.0504;1.7762;-3.2994;-0.0223;-0.5897;0.6599;77.4;-6.79;8.53;-61.99;338.55;0.23;-9.6;5.0;35.958717;-83.924736;723.23;NaN;0.0;667.8768;;0 / 4;71509;2022-11-01 17:30:09:419
2.1503;3.8871;9.7412;1.8583;-0.168;9.6275;-1.0504;1.7762;-3.2994;-0.0223;-0.5897;0.6599;77.4;-6.79;8.53;-61.99;338.55;0.23;-9.6;5.0;35.958717;-83.924736;723.23;NaN;0.0;667.8768;;0 / 4;72009;2022-11-01 17:30:09:919
1.7231;3.6278;9.3197;1.8583;-0.168;9.6275;-1.0504;1.7762;-3.2994;-0.0223;-0.5897;0.6599;47.6;-6.79;8.53;-61.99;338.55;0.23;-9.6;5.0;35.958717;-83.924736;723.23;NaN;0.0;667.8768;;0 / 4;72510;2022-11-01 17:30:10:420
1.7964;4.0235;10.0035;1.8583;-0.168;9.6275;-1.0504;1.7762;-3.2994;-0.0223;-0.5897;0.6599;24.9;-6.79;8.53;-61.99;338.55;0.23;-9.6;5.0;35.958717;-83.924736;723.23;NaN;0.0;667.8768;;0 / 4;73009;2022-11-01 17:30:10:919
1.5096;2.7437;8.3225;1.8583;-0.168;9.6275;-1.0504;1.7762;-3.2994;-0.0223;-0.5897;0.6599;23.4;-6.79;8.53;-61.99;338.55;0.23;-9.6;5.0;35.958717;-83.924736;723.23;NaN;0.0;667.8768;;0 / 4;73510;2022-11-01 17:30:11:420
2.1837;2.8825;8.953;1.8583;-0.168;9.6275;-1.0504;1.7762;-3.2994;-0.0223;-0.5897;0.6599;15.5;-6.79;8.53;-61.99;338.55;0.23;-9.6;5.0;35.958717;-83.924736;723.23;NaN;0.0;667.8768;;0 / 4;74009;2022-11-01 17:30:11:919
1.0902;1.471;7.4662;1.8583;-0.168;9.6275;-1.0504;1.7762;-3.2994;-0.0223;-0.5897;0.6599;20.3;-6.79;8.53;-61.99;338.55;0.23;-9.6;5.0;35.958717;-83.924736;723.23;NaN;0.0;667.8768;;0 / 4;74510;2022-11-01 17:30:12:420
0.7451;1.1276;7.8987;1.8583;-0.168;9.6275;-1.0504;1.7762;-3.2994;-0.0223;-0.5897;0.6599;12.2;-6.79;8.53;-61.99;338.55;0.23;-9.6;5.0;35.958717;-83.924736;723.23;NaN;0.0;667.8768;;0 / 4;75009;2022-11-01 17:30:12:919
0.9102;0.6024;8.5819;1.8583;-0.168;9.6275;-1.0504;1.7762;-3.2994;-0.0223;-0.5897;0.6599;15.2;-6.79;8.53;-61.99;338.55;0.23;-9.6;5.0;35.958717;-83.924736;723.23;NaN;0.0;667.8768;;0 / 4;75509;2022-11-01 17:30:13:419
1.9119;2.3336;7.7037;1.8583;-0.168;9.6275;-1.0504;1.7762;-3.2994;-0.0223;-0.5897;0.6599;14.5;-6.79;8.53;-61.99;338.55;0.23;-9.6;5.0;35.958717;-83.924736;723.23;NaN;0.0;667.8768;;0 / 4;76009;2022-11-01 17:30:13:919
1.5347;2.4969;7.4982;1.8583;-0.168;9.6275;-1.0504;1.7762;-3.2994;-0.0223;-0.5897;0.6599;23.1;-6.79;8.53;-61.99;338.55;0.23;-9.6;5.0;35.958717;-83.924736;723.23;NaN;0.0;667.8768;;0 / 4;76510;2022-11-01 17:30:14:420
2.1867;2.5908;7.2296;1.8583;-0.168;9.6275;-1.0504;1.7762;-3.2994;-0.0223;-0.5897;0.6599;29.3;-6.79;8.53;-61.99;338.55;0.23;-9.6;5.0;35.958717;-83.924736;723.23;NaN;0.0;667.8768;;0 / 4;77009;2022-11-01 17:30:14:919
1.7136;2.8436;10.0041;1.8583;-0.168;9.6275;-1.0504;1.7762;-3.2994;-0.0223;-0.5897;0.6599;46.0;-6.79;8.53;-61.99;338.55;0.23;-9.6;5.0;35.958717;-83.924736;723.23;NaN;0.0;667.8768;;0 / 4;77510;2022-11-01 17:30:15:420
1.2559;2.6922;8.4751;1.8583;-0.168;9.6275;-1.0504;1.7762;-3.2994;-0.0223;-0.5897;0.6599;52.3;-6.79;8.53;-61.99;338.55;0.23;-9.6;5.0;35.958717;-83.924736;723.23;NaN;0.0;667.8768;;0 / 4;78009;2022-11-01 17:30:15:919
0.9221;2.8322;9.4361;1.8583;-0.168;9.6275;-1.0504;1.7762;-3.2994;-0.0223;-0.5897;0.6599;43.1;-6.79;8.53;-61.99;338.55;0.23;-9.6;5.0;35.958717;-83.924736;723.23;NaN;0.0;667.8768;;0 / 4;78510;2022-11-01 17:30:16:420
0.8847;1.774;8.3812;1.8583;-0.168;9.6275;-1.0504;1.7762;-3.2994;-0.0223;-0.5897;0.6599;52.3;-6.79;8.53;-61.99;338.55;0.23;-9.6;5.0;35.958717;-83.924736;723.23;NaN;0.0;667.8768;;0 / 4;79010;2022-11-01 17:30:16:920
0.5889;2.1293;9.2489;1.8583;-0.168;9.6275;-1.0504;1.7762;-3.2994;-0.0223;-0.5897;0.6599;33.4;-6.79;8.53;-61.99;338.55;0.23;-9.6;5.0;35.958717;-83.924736;723.23;NaN;0.0;667.8768;;0 / 4;79510;2022-11-01 17:30:17:420
2.1332;2.6465;7.2048;1.8583;-0.168;9.6275;-1.0504;1.7762;-3.2994;-0.0223;-0.5897;0.6599;23.4;-6.79;8.53;-61.99;338.55;0.23;-9.6;5.0;35.958717;-83.924736;723.23;NaN;0.0;667.8768;;0 / 4;80009;2022-11-01 17:30:17:919
0.749;2.158;6.9236;1.8583;-0.168;9.6275;-1.0504;1.7762;-3.2994;-0.0223;-0.5897;0.6599;22.5;-6.79;8.53;-61.99;338.55;0.23;-9.6;5.0;35.958717;-83.924736;723.23;NaN;0.0;667.8768;;0 / 4;80509;2022-11-01 17:30:18:419
1.0214;1.9842;9.4403;1.8583;-0.168;9.6275;-1.0504;1.7762;-3.2994;-0.0223;-0.5897;0.6599;34.1;-6.79;8.53;-61.99;338.55;0.23;-9.6;5.0;35.958717;-83.924736;723.23;NaN;0.0;667.8768;;0 / 4;81010;2022-11-01 17:30:18:920
-2.4703;2.5627;11.8866;1.8583;-0.168;9.6275;-1.0504;1.7762;-3.2994;-0.0223;-0.5897;0.6599;17.4;-6.79;8.53;-61.99;338.55;0.23;-9.6;5.0;35.958717;-83.924736;723.23;NaN;0.0;667.8768;;0 / 4;81510;2022-11-01 17:30:19:420
1.8616;1.3478;10.2458;1.8583;-0.168;9.6275;-1.0504;1.7762;-3.2994;-0.0223;-0.5897;0.6599;25.3;-6.79;8.53;-61.99;338.55;0.23;-9.6;5.0;35.958717;-83.924736;723.23;NaN;0.0;667.8768;;0 / 4;82009;2022-11-01 17:30:19:919
-0.035;3.2061;7.4701;1.8583;-0.168;9.6275;-1.0504;1.7762;-3.2994;-0.0223;-0.5897;0.6599;19.9;-6.79;8.53;-61.99;338.55;0.23;-9.6;5.0;35.958717;-83.924736;723.23;NaN;0.0;667.8768;;0 / 4;82510;2022-11-01 17:30:20:420
1.4973;3.8094;7.1186;1.8583;-0.168;9.6275;-1.0504;1.7762;-3.2994;-0.0223;-0.5897;0.6599;22.9;-6.79;8.53;-61.99;338.55;0.23;-9.6;5.0;35.958717;-83.924736;723.23;NaN;0.0;667.8768;;0 / 4;83009;2022-11-01 17:30:20:919
-1.4279;4.5846;7.4094;1.8583;-0.168;9.6275;-1.0504;1.7762;-3.2994;-0.0223;-0.5897;0.6599;12.8;-6.79;8.53;-61.99;338.55;0.23;-9.6;5.0;35.958717;-83.924736;723.23;NaN;0.0;667.8768;;0 / 4;83510;2022-11-01 17:30:21:420
1.2712;2.1269;8.4488;1.8583;-0.168;9.6275;-1.0504;1.7762;-3.2994;-0.0223;-0.5897;0.6599;15.7;-6.79;8.53;-61.99;338.55;0.23;-9.6;5.0;35.958717;-83.924736;723.23;NaN;0.0;667.8768;;0 / 4;84009;2022-11-01 17:30:21:919
-0.3353;3.5237;8.5412;1.8583;-0.168;9.6275;-1.0504;1.7762;-3.2994;-0.0223;-0.5897;0.6599;19.7;-6.79;8.53;-61.99;338.55;0.23;-9.6;5.0;35.958717;-83.924736;723.23;NaN;0.0;667.8768;;0 / 4;84510;2022-11-01 17:30:22:420
1.2194;3.5016;9.746;1.8583;-0.168;9.6275;-1.0504;1.7762;-3.2994;-0.0223;-0.5897;0.6599;17.8;-6.79;8.53;-61.99;338.55;0.23;-9.6;5.0;35.958717;-83.924736;723.23;NaN;0.0;667.8768;;0 / 4;85009;2022-11-01 17:30:22:919
0.2743;2.4784;6.0523;1.8583;-0.168;9.6275;-1.0504;1.7762;-3.2994;-0.0223;-0.5897;0.6599;28.4;-6.79;8.53;-61.99;338.55;0.23;-9.6;5.0;35.958717;-83.924736;723.23;NaN;0.0;667.8768;;0 / 4;85510;2022-11-01 17:30:23:420
1.049;3.2985;10.7372;1.8583;-0.168;9.6275;-1.0504;1.7762;-3.2994;-0.0223;-0.5897;0.6599;31.7;-6.79;8.53;-61.99;338.55;0.23;-9.6;5.0;35.958717;-83.924736;723.23;NaN;0.0;667.8768;;0 / 4;86010;2022-11-01 17:30:23:920
0.8321;2.9399;7.8503;1.8583;-0.168;9.6275;-1.0504;1.7762;-3.2994;-0.0223;-0.5897;0.6599;32.4;-6.79;8.53;-61.99;338.55;0.23;-9.6;5.0;35.958717;-83.924736;723.23;NaN;0.0;667.8768;;0 / 4;86509;2022-11-01 17:30:24:419
1.3513;2.2857;9.122;1.8583;-0.168;9.6275;-1.0504;1.7762;-3.2994;-0.0223;-0.5897;0.6599;24.4;-6.79;8.53;-61.99;338.55;0.23;-9.6;5.0;35.958717;-83.924736;723.23;NaN;0.0;667.8768;;0 / 4;87010;2022-11-01 17:30:24:920
-1.3466;1.794;9.6512;1.8583;-0.168;9.6275;-1.0504;1.7762;-3.2994;-0.0223;-0.5897;0.6599;31.6;-6.79;8.53;-61.99;338.55;0.23;-9.6;5.0;35.958717;-83.924736;723.23;NaN;0.0;667.8768;;0 / 4;87509;2022-11-01 17:30:25:419
1.1381;1.649;10.2562;1.8583;-0.168;9.6275;-1.0504;1.7762;-3.2994;-0.0223;-0.5897;0.6599;20.4;-6.79;8.53;-61.99;338.55;0.23;-9.6;5.0;35.958717;-83.924736;723.23;NaN;0.0;667.8768;;0 / 4;88010;2022-11-01 17:30:25:920
1.2072;-0.2438;9.5985;1.8583;-0.168;9.6275;-1.0504;1.7762;-3.2994;-0.0223;-0.5897;0.6599;11.6;-6.79;8.53;-61.99;338.55;0.23;-9.6;5.0;35.958717;-83.924736;723.23;NaN;0.0;667.8768;;0 / 4;88510;2022-11-01 17:30:26:420
-2.0503;-0.3476;8.5202;1.8583;-0.168;9.6275;-1.0504;1.7762;-3.2994;-0.0223;-0.5897;0.6599;11.6;-6.79;8.53;-61.99;338.55;0.23;-9.6;5.0;35.958717;-83.924736;723.23;NaN;0.0;667.8768;;0 / 4;89009;2022-11-01 17:30:26:919
-0.4304;2.9701;8.6121;1.8583;-0.168;9.6275;-1.0504;1.7762;-3.2994;-0.0223;-0.5897;0.6599;13.8;-6.79;8.53;-61.99;338.55;0.23;-9.6;5.0;35.958717;-83.924736;723.23;NaN;0.0;667.8768;;0 / 4;89510;2022-11-01 17:30:27:420
-3.4388;0.4457;12.1735;1.8583;-0.168;9.6275;-1.0504;1.7762;-3.2994;-0.0223;-0.5897;0.6599;15.0;-6.79;8.53;-61.99;338.55;0.23;-9.6;5.0;35.958717;-83.924736;723.23;NaN;0.0;667.8768;;0 / 4;90010;2022-11-01 17:30:27:920
1.2742;0.9356;8.8884;1.8583;-0.168;9.6275;-1.0504;1.7762;-3.2994;-0.0223;-0.5897;0.6599;13.6;-6.79;8.53;-61.99;338.55;0.23;-9.6;5.0;35.958717;-83.924736;723.23;NaN;0.0;667.8768;;0 / 4;90509;2022-11-01 17:30:28:419
-0.8438;0.221;9.8363;1.8583;-0.168;9.6275;-1.0504;1.7762;-3.2994;-0.0223;-0.5897;0.6599;17.4;-6.79;8.53;-61.99;338.55;0.23;-9.6;5.0;35.958717;-83.924736;723.23;NaN;0.0;667.8768;;0 / 4;91009;2022-11-01 17:30:28:919
1.6235;2.2786;8.1634;1.8583;-0.168;9.6275;-1.0504;1.7762;-3.2994;-0.0223;-0.5897;0.6599;18.8;-6.79;8.53;-61.99;338.55;0.23;-9.6;5.0;35.958717;-83.924736;723.23;NaN;0.0;667.8768;;0 / 4;91509;2022-11-01 17:30:29:419
-2.1467;1.3606;6.6838;1.8583;-0.168;9.6275;-1.0504;1.7762;-3.2994;-0.0223;-0.5897;0.6599;38.2;-6.79;8.53;-61.99;338.55;0.23;-9.6;5.0;35.958717;-83.924736;723.23;NaN;0.0;667.8768;;0 / 4;92009;2022-11-01 17:30:29:919
3.74;1.1279;8.7745;1.8583;-0.168;9.6275;-1.0504;1.7762;-3.2994;-0.0223;-0.5897;0.6599;47.8;-6.79;8.53;-61.99;338.55;0.23;-9.6;5.0;35.958717;-83.924736;723.23;NaN;0.0;667.8768;;0 / 4;92509;2022-11-01 17:30:30:419
-1.9391;1.2416;5.3306;1.8583;-0.168;9.6275;-1.0504;1.7762;-3.2994;-0.0223;-0.5897;0.6599;59.3;-6.79;8.53;-61.99;338.55;0.23;-9.6;5.0;35.958717;-83.924736;723.23;NaN;0.0;667.8768;;0 / 4;93010;2022-11-01 17:30:30:920
0.7962;-1.0875;6.9332;1.8583;-0.168;9.6275;-1.0504;1.7762;-3.2994;-0.0223;-0.5897;0.6599;45.8;-6.79;8.53;-61.99;338.55;0.23;-9.6;5.0;35.958717;-83.924736;723.23;NaN;0.0;667.8768;;0 / 4;93510;2022-11-01 17:30:31:420
-0.0709;-0.7101;8.1529;1.8583;-0.168;9.6275;-1.0504;1.7762;-3.2994;-0.0223;-0.5897;0.6599;32.4;-6.79;8.53;-61.99;338.55;0.23;-9.6;5.0;35.958717;-83.924736;723.23;NaN;0.0;667.8768;;0 / 4;94010;2022-11-01 17:30:31:920
-0.8432;-1.3528;11.4102;1.8583;-0.168;9.6275;-1.0504;1.7762;-3.2994;-0.0223;-0.5897;0.6599;39.0;-6.79;8.53;-61.99;338.55;0.23;-9.6;5.0;35.958717;-83.924736;723.23;NaN;0.0;667.8768;;0 / 4;94510;2022-11-01 17:30:32:420
1.1055;-1.3905;12.2465;1.8583;-0.168;9.6275;-1.0504;1.7762;-3.2994;-0.0223;-0.5897;0.6599;32.3;-6.79;8.53;-61.99;338.55;0.23;-9.6;5.0;35.958717;-83.924736;723.23;NaN;0.0;667.8768;;0 / 4;95009;2022-11-01 17:30:32:919
-0.4038;0.5318;8.9737;1.8583;-0.168;9.6275;-1.0504;1.7762;-3.2994;-0.0223;-0.5897;0.6599;17.0;-6.79;8.53;-61.99;338.55;0.23;-9.6;5.0;35.958717;-83.924736;723.23;NaN;0.0;667.8768;;0 / 4;95509;2022-11-01 17:30:33:419
3.1463;-0.2061;7.0588;1.8583;-0.168;9.6275;-1.0504;1.7762;-3.2994;-0.0223;-0.5897;0.6599;17.0;-6.79;8.53;-61.99;338.55;0.23;-9.6;5.0;35.958717;-83.924736;723.23;NaN;0.0;667.8768;;0 / 4;96009;2022-11-01 17:30:33:919
0.7202;0.2566;7.7237;1.8583;-0.168;9.6275;-1.0504;1.7762;-3.2994;-0.0223;-0.5897;0.6599;19.0;-6.79;8.53;-61.99;338.55;0.23;-9.6;5.0;35.958717;-83.924736;723.23;NaN;0.0;667.8768;;0 / 4;96510;2022-11-01 17:30:34:420
3.3583;-0.976;6.376;1.8583;-0.168;9.6275;-1.0504;1.7762;-3.2994;-0.0223;-0.5897;0.6599;16.6;-6.79;8.53;-61.99;338.55;0.23;-9.6;5.0;35.958717;-83.924736;723.23;NaN;0.0;667.8768;;0 / 4;97009;2022-11-01 17:30:34:919
1.5144;1.3014;5.8905;1.8583;-0.168;9.6275;-1.0504;1.7762;-3.2994;-0.0223;-0.5897;0.6599;16.0;-6.79;8.53;-61.99;338.55;0.23;-9.6;5.0;35.958717;-83.924736;723.23;NaN;0.0;667.8768;;0 / 4;97510;2022-11-01 17:30:35:420
1.0448;-0.8073;10.9783;1.8583;-0.168;9.6275;-1.0504;1.7762;-3.2994;-0.0223;-0.5897;0.6599;16.0;-6.79;8.53;-61.99;338.55;0.23;-9.6;5.0;35.958717;-83.924736;723.23;NaN;0.0;667.8768;;0 / 4;98009;2022-11-01 17:30:35:919
0.2629;0.6338;7.815;1.8583;-0.168;9.6275;-1.0504;1.7762;-3.2994;-0.0223;-0.5897;0.6599;13.7;-6.79;8.53;-61.99;338.55;0.23;-9.6;5.0;35.958717;-83.924736;723.23;NaN;0.0;667.8768;;0 / 4;98510;2022-11-01 17:30:36:420
0.2007;-1.6768;13.2168;1.8583;-0.168;9.6275;-1.0504;1.7762;-3.2994;-0.0223;-0.5897;0.6599;13.7;-6.79;8.53;-61.99;338.55;0.23;-9.6;5.0;35.958717;-83.924736;723.23;NaN;0.0;667.8768;;0 / 4;99009;2022-11-01 17:30:36:919
0.3796;-1.1357;10.9947;1.8583;-0.168;9.6275;-1.0504;1.7762;-3.2994;-0.0223;-0.5897;0.6599;13.7;-6.79;8.53;-61.99;338.55;0.23;-9.6;5.0;35.958717;-83.924736;723.23;NaN;0.0;667.8768;;0 / 4;99510;2022-11-01 17:30:37:420
1.1509;-0.1268;8.7206;1.8583;-0.168;9.6275;-1.0504;1.7762;-3.2994;-0.0223;-0.5897;0.6599;19.9;-6.79;8.53;-61.99;338.55;0.23;-9.6;5.0;35.958717;-83.924736;723.23;NaN;0.0;667.8768;;0 / 4;100009;2022-11-01 17:30:37:919
1.7707;-1.4847;12.6619;1.8583;-0.168;9.6275;-1.0504;1.7762;-3.2994;-0.0223;-0.5897;0.6599;30.2;-6.79;8.53;-61.99;338.55;0.23;-9.6;5.0;35.958717;-83.924736;723.23;NaN;0.0;667.8768;;0 / 4;100510;2022-11-01 17:30:38:420
0.1914;-1.174;11.3249;1.8583;-0.168;9.6275;-1.0504;1.7762;-3.2994;-0.0223;-0.5897;0.6599;30.2;-6.79;8.53;-61.99;338.55;0.23;-9.6;5.0;35.958717;-83.924736;723.23;NaN;0.0;667.8768;;0 / 4;101009;2022-11-01 17:30:38:919
1.2123;-1.4931;11.697;1.8583;-0.168;9.6275;-1.0504;1.7762;-3.2994;-0.0223;-0.5897;0.6599;24.1;-6.79;8.53;-61.99;338.55;0.23;-9.6;5.0;35.958717;-83.924736;723.23;NaN;0.0;667.8768;;0 / 4;101510;2022-11-01 17:30:39:420
1.5069;-0.9099;9.8169;1.8583;-0.168;9.6275;-1.0504;1.7762;-3.2994;-0.0223;-0.5897;0.6599;24.1;-6.79;8.53;-61.99;338.55;0.23;-9.6;5.0;35.958717;-83.924736;723.23;NaN;0.0;667.8768;;0 / 4;102009;2022-11-01 17:30:39:919
-0.5477;1.3929;7.3307;1.8583;-0.168;9.6275;-1.0504;1.7762;-3.2994;-0.0223;-0.5897;0.6599;32.4;-6.79;8.53;-61.99;338.55;0.23;-9.6;5.0;35.958717;-83.924736;723.23;NaN;0.0;667.8768;;0 / 4;102510;2022-11-01 17:30:40:420
-1.526;0.4911;11.9991;1.8583;-0.168;9.6275;-1.0504;1.7762;-3.2994;-0.0223;-0.5897;0.6599;36.1;-6.79;8.53;-61.99;338.55;0.23;-9.6;5.0;35.958717;-83.924736;723.23;NaN;0.0;667.8768;;0 / 4;103009;2022-11-01 17:30:40:919
0.8551;0.2943;11.0363;1.8583;-0.168;9.6275;-1.0504;1.7762;-3.2994;-0.0223;-0.5897;0.6599;13.8;-6.79;8.53;-61.99;338.55;0.23;-9.6;5.0;35.958717;-83.924736;723.23;NaN;0.0;667.8768;;0 / 4;103510;2022-11-01 17:30:41:420
0.2222;0.7056;7.3268;1.8583;-0.168;9.6275;-1.0504;1.7762;-3.2994;-0.0223;-0.5897;0.6599;15.9;-6.79;8.53;-61.99;338.55;0.23;-9.6;5.0;35.958717;-83.924736;723.23;NaN;0.0;667.8768;;0 / 4;104010;2022-11-01 17:30:41:920
1.4856;1.6035;7.9259;1.8583;-0.168;9.6275;-1.0504;1.7762;-3.2994;-0.0223;-0.5897;0.6599;16.5;-6.79;8.53;-61.99;338.55;0.23;-9.6;5.0;35.958717;-83.924736;723.23;NaN;0.0;667.8768;;0 / 4;104510;2022-11-01 17:30:42:420
1.7195;1.5757;8.3019;1.8583;-0.168;9.6275;-1.0504;1.7762;-3.2994;-0.0223;-0.5897;0.6599;17.2;-6.79;8.53;-61.99;338.55;0.23;-9.6;5.0;35.958717;-83.924736;723.23;NaN;0.0;667.8768;;0 / 4;105009;2022-11-01 17:30:42:919
-0.4295;0.9924;10.1946;1.8583;-0.168;9.6275;-1.0504;1.7762;-3.2994;-0.0223;-0.5897;0.6599;17.0;-6.79;8.53;-61.99;338.55;0.23;-9.6;5.0;35.958717;-83.924736;723.23;NaN;0.0;667.8768;;0 / 4;105510;2022-11-01 17:30:43:420
-1.0525;0.472;11.406;1.8583;-0.168;9.6275;-1.0504;1.7762;-3.2994;-0.0223;-0.5897;0.6599;15.0;-6.79;8.53;-61.99;338.55;0.23;-9.6;5.0;35.958717;-83.924736;723.23;NaN;0.0;667.8768;;0 / 4;106009;2022-11-01 17:30:43:919
0.4205;0.1211;12.5522;1.8583;-0.168;9.6275;-1.0504;1.7762;-3.2994;-0.0223;-0.5897;0.6599;18.0;-6.79;8.53;-61.99;338.55;0.23;-9.6;5.0;35.958717;-83.924736;723.23;NaN;0.0;667.8768;;0 / 4;106510;2022-11-01 17:30:44:420
2.1132;2.1096;8.9252;1.8583;-0.168;9.6275;-1.0504;1.7762;-3.2994;-0.0223;-0.5897;0.6599;18.4;-6.79;8.53;-61.99;338.55;0.23;-9.6;5.0;35.958717;-83.924736;723.23;NaN;0.0;667.8768;;0 / 4;107009;2022-11-01 17:30:44:919
2.6689;3.4642;10.5129;1.8583;-0.168;9.6275;-1.0504;1.7762;-3.2994;-0.0223;-0.5897;0.6599;23.6;-6.79;8.53;-61.99;338.55;0.23;-9.6;5.0;35.958717;-83.924736;723.23;NaN;0.0;667.8768;;0 / 4;107509;2022-11-01 17:30:45:419
1.5954;3.4035;10.5096;1.8583;-0.168;9.6275;-1.0504;1.7762;-3.2994;-0.0223;-0.5897;0.6599;28.8;-6.79;8.53;-61.99;338.55;0.23;-9.6;5.0;35.958717;-83.924736;723.23;NaN;0.0;667.8768;;0 / 4;108010;2022-11-01 17:30:45:920
1.6169;3.417;10.1644;1.8583;-0.168;9.6275;-1.0504;1.7762;-3.2994;-0.0223;-0.5897;0.6599;37.3;-6.79;8.53;-61.99;338.55;0.23;-9.6;5.0;35.958717;-83.924736;723.23;NaN;0.0;667.8768;;0 / 4;108510;2022-11-01 17:30:46:420
1.3244;2.3961;10.0155;1.8583;-0.168;9.6275;-1.0504;1.7762;-3.2994;-0.0223;-0.5897;0.6599;41.5;-6.79;8.53;-61.99;338.55;0.23;-9.6;5.0;35.958717;-83.924736;723.23;NaN;0.0;667.8768;;0 / 4;109009;2022-11-01 17:30:46:919
-1.6992;2.8101;9.259;1.8583;-0.168;9.6275;-1.0504;1.7762;-3.2994;-0.0223;-0.5897;0.6599;51.9;-6.79;8.53;-61.99;338.55;0.23;-9.6;5.0;35.958717;-83.924736;723.23;NaN;0.0;667.8768;;0 / 4;109509;2022-11-01 17:30:47:419
-0.5357;3.964;9.1537;1.8583;-0.168;9.6275;-1.0504;1.7762;-3.2994;-0.0223;-0.5897;0.6599;60.6;-6.79;8.53;-61.99;338.55;0.23;-9.6;5.0;35.958717;-83.924736;723.23;NaN;0.0;667.8768;;0 / 4;110009;2022-11-01 17:30:47:919
-1.1127;4.3974;8.6127;1.8583;-0.168;9.6275;-1.0504;1.7762;-3.2994;-0.0223;-0.5897;0.6599;60.6;-6.79;8.53;-61.99;338.55;0.23;-9.6;5.0;35.958717;-83.924736;723.23;NaN;0.0;667.8768;;0 / 4;110510;2022-11-01 17:30:48:420
-0.9332;4.6944;8.2774;1.8583;-0.168;9.6275;-1.0504;1.7762;-3.2994;-0.0223;-0.5897;0.6599;60.6;-6.79;8.53;-61.99;338.55;0.23;-9.6;5.0;35.958717;-83.924736;723.23;NaN;0.0;667.8768;;0 / 4;111010;2022-11-01 17:30:48:920
-3.332;5.8173;7.0062;-2.9048;5.8351;7.3269;-0.2807;0.0567;0.0774;0.1807;0.2359;-0.0544;60.6;36.81;11.48;-25.54;321.63;-36.51;21.63;2.0;35.958717;-83.924736;723.23;NaN;0.0;667.8768;;0 / 4;111509;2022-11-01 17:30:49:419