sep=;
ACCELEROMETER X (m/s²);ACCELEROMETER Y (m/s²);ACCELEROMETER Z (m/s²);GRAVITY X (m/s²);GRAVITY Y (m/s²);GRAVITY Z (m/s²);LINEAR ACCELERATION X (m/s²);LINEAR ACCELERATION Y (m/s²);LINEAR ACCELERATION Z (m/s²);GYROSCOPE X (rad/s);GYROSCOPE Y (rad/s);GYROSCOPE Z (rad/s);LIGHT (lux);MAGNETIC FIELD X (μT);MAGNETIC FIELD Y (μT);MAGNETIC FIELD Z (μT);ORIENTATION Z (azimuth °);ORIENTATION X (pitch °);ORIENTATION Y (roll °);PROXIMITY (i);SOUND LEVEL (dB);LOCATION Latitude : ;LOCATION Longitude : ;LOCATION Altitude ( m);LOCATION Altitude-google ( m);LOCATION Speed ( Kmh);LOCATION Accuracy ( m);LOCATION ORIENTATION (°);Satellites in range;Time since start in ms ;YYYY-MO-DD HH-MI-SS_SSS
-2.4296;2.4416;9.5198;-1.6289;2.5536;9.3272;-0.2419;0.4835;0.1205;-0.5005;-1.1567;0.004;151.2;-18.73;9.81;-19.29;59.2;-16.37;13.09;5.0;35.958317;-83.9247;;NaN;;230.03236;;0 / 13;6;2022-11-01 17:34:49:025
2.3133;2.2451;10.1399;0.5758;3.0566;9.3003;1.4752;-2.2047;0.3469;0.2445;-0.0108;0.4862;378.9;-37.5;14.03;-28.82;56.75;-18.16;-3.54;5.0;35.958317;-83.9247;;NaN;;230.03236;;0 / 13;506;2022-11-01 17:34:49:525
1.7315;3.5859;8.7347;1.8091;3.6472;8.9216;0.235;0.0502;-1.2095;0.1145;0.2868;0.5862;338.9;-50.4;12.43;-23.03;62.41;-21.83;-11.46;5.0;35.958153;-83.924515;800.51;NaN;2.66;59.655724;154.4;0 / 12;1006;2022-11-01 17:34:50:025
-1.8168;3.3153;8.1482;0.315;1.8754;9.6205;-1.0026;-0.8525;1.0859;-0.4365;-0.3268;-0.6055;379.2;-57.06;17.98;-26.7;67.54;-11.02;-1.88;5.0;35.958153;-83.924515;800.51;NaN;2.66;59.655724;154.4;0 / 12;1507;2022-11-01 17:34:50:526
0.2231;3.0497;15.5004;1.1477;3.0998;9.2328;0.2455;-2.0037;1.1374;0.5533;-2.1577;-2.2097;463.7;-58.09;23.68;-30.54;60.36;-15.61;-2.62;5.0;35.958153;-83.924515;800.51;NaN;2.66;59.655724;154.4;0 / 12;2006;2022-11-01 17:34:51:025
3.6945;1.8526;7.8775;3.8065;2.8119;8.5892;-0.6976;-0.5965;-1.0379;0.3268;0.3783;0.7861;356.9;-66.34;13.46;-15.34;66.09;-16.66;-23.9;5.0;35.958153;-83.924515;800.51;NaN;2.66;59.655724;154.4;0 / 12;2507;2022-11-01 17:34:51:526
2.4162;0.9763;7.5568;3.406;1.4816;9.076;-0.6661;-0.5568;0.1806;1.0912;0.315;1.4351;277.3;-75.83;23.93;-15.73;65.39;-8.69;-20.57;5.0;35.958153;-83.924515;800.51;NaN;2.66;59.655724;154.4;0 / 12;3007;2022-11-01 17:34:52:026
1.9134;0.6984;8.2463;3.1452;1.0189;9.2325;-0.0261;-0.4711;-1.9865;0.2832;0.212;0.2361;240.1;-86.21;56.44;-24.66;49.63;-5.63;-20.56;5.0;35.958153;-83.924515;800.51;NaN;2.66;59.655724;154.4;0 / 12;3507;2022-11-01 17:34:52:526
0.4074;0.1624;8.5696;5.5673;1.3219;7.9642;-4.3626;-0.6525;1.6571;0.5528;-0.6654;-0.6077;240.1;-96.17;74.21;-23.81;40.91;-6.78;-30.32;5.0;35.958153;-83.924515;800.51;NaN;2.66;59.655724;154.4;0 / 12;4007;2022-11-01 17:34:53:026
4.8864;1.1252;10.084;4.1672;1.8176;8.6891;1.0514;-0.9301;1.6221;1.4606;0.4491;-0.2454;240.1;-102.49;62.72;-8.31;51.1;-10.68;-25.62;5.0;35.958153;-83.924515;800.51;NaN;2.66;59.655724;154.4;0 / 12;4507;2022-11-01 17:34:53:526
1.7246;1.5458;9.4759;2.5713;1.957;9.259;-0.8202;-0.2889;-1.5641;-0.4292;-0.8758;-0.3714;212.5;-96.41;59.94;-21.04;51.97;-11.51;-15.52;5.0;35.958153;-83.924515;800.51;NaN;2.66;59.655724;154.4;0 / 12;5006;2022-11-01 17:34:54:025
5.1703;-1.9002;11.0082;3.1875;0.6064;9.2543;1.7134;-2.4864;6.2733;1.1411;-0.088;-0.6489;133.5;-48.38;17.76;-27.79;60.44;-3.54;-19.01;5.0;35.958153;-83.924515;800.51;NaN;2.66;59.655724;154.4;0 / 12;5506;2022-11-01 17:34:54:525
1.8954;3.4663;12.0081;2.6539;2.9468;8.969;0.6168;0.6235;0.568;-0.2303;0.5051;-0.4784;133.5;-32.76;19.59;-44.47;26.01;-19.74;-18.02;5.0;35.958153;-83.924515;800.51;NaN;2.66;59.655724;154.4;0 / 12;6006;2022-11-01 17:34:55:025
2.7185;3.1941;11.2038;2.8361;2.6125;9.0168;0.1089;0.5104;1.6882;0.1842;0.0768;0.6707;95.5;-15.34;18.99;-50.96;358.25;-15.45;-17.46;5.0;35.958153;-83.924515;800.51;NaN;2.66;59.655724;154.4;0 / 12;6506;2022-11-01 17:34:55:525
1.7157;1.8251;8.2513;2.1055;1.7626;9.4144;0.614;-0.7659;-2.8364;0.0446;0.4932;0.1504;82.4;-6.99;21.64;-47.16;351.61;-9.26;-13.69;5.0;35.958153;-83.924515;800.51;NaN;2.66;59.655724;154.4;0 / 12;7006;2022-11-01 17:34:56:025
0.0482;0.2955;8.8579;0.7135;1.7329;9.6259;0.0452;-1.2066;-1.7996;-0.4367;-0.4103;-0.6469;60.6;-6.62;13.33;-42.52;10.53;-10.18;-4.24;5.0;35.958153;-83.924515;800.51;NaN;2.66;59.655724;154.4;0 / 12;7507;2022-11-01 17:34:56:526
0.4184;0.3547;8.5199;1.7327;-1.8835;9.4668;-0.6099;2.0232;-1.8809;1.8564;0.1581;0.4462;50.1;-12.97;8.03;-31.42;109.89;17.65;-11.51;5.0;35.958153;-83.924515;800.51;NaN;2.66;59.655724;154.4;0 / 12;8006;2022-11-01 17:34:57:025
2.9339;-0.3676;7.7686;1.5543;0.9822;9.6327;1.187;-2.2203;1.6155;1.4859;0.6669;1.1723;35.5;-8.83;-0.97;-31.69;58.59;-5.75;-9.17;5.0;35.958153;-83.924515;800.51;NaN;2.66;59.655724;154.4;0 / 12;8506;2022-11-01 17:34:57:525
1.506;-0.8865;14.5173;0.797;-1.7633;9.6139;1.3129;0.4858;3.8496;0.4311;1.2623;0.6192;41.8;-3.24;-5.34;-35.29;204.03;8.55;-12.28;5.0;35.958153;-83.924515;800.51;NaN;2.66;59.655724;154.4;7 / 12;9006;2022-11-01 17:34:58:025
1.0645;0.7421;13.4587;1.7987;-0.1175;9.6396;0.4259;-0.4477;-1.3039;0.8063;1.1923;0.752;75.3;4.95;5.01;-45.69;288.5;0.69;-10.57;5.0;35.958153;-83.924515;800.51;NaN;2.66;59.655724;154.4;7 / 12;9506;2022-11-01 17:34:58:525
-0.1277;-1.4498;11.132;0.5285;1.914;9.6035;-0.9894;-3.947;3.6173;-0.5495;-1.1402;-0.7494;101.7;18.84;3.39;-60.38;312.23;-14.24;-0.41;5.0;35.958153;-83.924515;800.51;NaN;2.66;59.655724;154.4;7 / 12;10007;2022-11-01 17:34:59:026
-0.7899;0.8333;10.3807;0.7868;0.2633;9.7715;-0.1486;1.0889;-2.3012;0.1152;-0.2777;0.5222;168.1;4.61;18.23;-57.88;333.74;-1.54;-4.6;5.0;35.958153;-83.924515;800.51;NaN;2.66;59.655724;154.4;7 / 12;10506;2022-11-01 17:34:59:525
1.0427;0.3105;7.3107;0.8667;1.7557;9.6092;0.0664;-0.9564;-2.2401;1.4183;-0.5035;1.958;202.9;-5.85;19.99;-62.19;3.04;-7.95;-4.14;5.0;35.958153;-83.924515;800.51;NaN;2.66;59.655724;154.4;7 / 12;11007;2022-11-01 17:35:00:026
1.5999;0.5904;8.3734;1.3621;-2.3478;9.4235;0.1505;2.8416;-1.3607;0.3271;0.3543;1.1098;259.3;1.44;24.79;-56.89;319.75;13.85;-8.22;5.0;35.958153;-83.924515;800.51;NaN;2.66;59.655724;154.4;7 / 12;11507;2022-11-01 17:35:00:526
0.9736;-0.6652;8.1975;2.4142;-0.0887;9.5044;-1.3896;-0.4334;-1.6838;-0.1541;-0.3616;0.1951;290.4;7.48;27.23;-57.47;324.28;-0.39;-13.04;5.0;35.958153;-83.924515;800.51;NaN;2.66;59.655724;154.4;7 / 12;12007;2022-11-01 17:35:01:026
1.7207;-0.0206;12.6691;1.9128;-1.5582;9.4912;-0.026;1.6308;3.1064;-0.45;0.029;0.3192;349.9;-1.12;14.79;-56.98;299.85;9.14;-11.39;5.0;35.958153;-83.924515;800.51;NaN;2.66;59.655724;154.4;7 / 12;12506;2022-11-01 17:35:01:525
1.8485;-2.7021;9.5934;0.9703;-0.7625;9.7287;1.8246;-3.0617;1.1356;0.7202;-0.7381;0.2019;286.8;7.28;5.64;-50.87;266.54;7.39;-2.59;5.0;35.958153;-83.924515;800.51;NaN;2.66;59.655724;154.4;7 / 12;13007;2022-11-01 17:35:02:026
-0.8495;0.8142;8.5609;1.9918;-2.0294;9.3853;-2.8202;3.11;-2.296;-1.0509;-0.0868;0.9087;176.8;8.14;-14.63;-44.51;216.22;11.94;-11.98;5.0;35.958153;-83.924515;800.51;NaN;2.66;59.655724;154.4;7 / 12;13507;2022-11-01 17:35:02:526
-1.6451;-1.4557;8.4634;1.6246;-0.9043;9.6288;-3.3553;-2.2665;0.7754;0.6731;-0.4679;1.508;68.5;11.06;-20.59;-36.68;215.2;5.29;-9.58;5.0;35.958153;-83.924515;800.51;NaN;2.66;59.655724;154.4;7 / 12;14007;2022-11-01 17:35:03:026
1.4755;-2.1245;11.2558;0.7975;-0.8239;9.7394;0.6798;-1.2924;1.4416;-0.0668;-0.5583;-0.5063;111.1;4.39;-32.16;-31.26;190.71;4.82;-4.68;5.0;35.958153;-83.924515;800.51;NaN;2.66;59.655724;154.4;7 / 12;14507;2022-11-01 17:35:03:526
-0.0628;-0.993;8.913;1.0888;-1.2004;9.6718;-1.7207;0.5708;-1.0664;0.0178;0.0022;0.9988;95.4;2.59;-19.35;-41.98;199.35;6.78;-7.33;5.0;35.958153;-83.924515;800.51;NaN;2.66;59.655724;154.4;7 / 12;15006;2022-11-01 17:35:04:025
1.5404;0.5174;8.6357;1.2518;-0.8704;9.6874;0.5009;1.2549;-0.3692;0.8655;0.283;-0.0518;80.9;-1.71;-13.82;-43.14;191.24;5.09;-7.36;5.0;35.958153;-83.924515;800.51;NaN;2.66;59.655724;154.4;7 / 12;15506;2022-11-01 17:35:04:525
-0.0511;0.4923;13.4859;1.6535;0.425;9.6569;-1.1849;-1.2671;2.3847;0.7213;1.0831;-0.2743;71.1;-6.54;-16.39;-45.47;182.84;-2.48;-9.72;5.0;35.958153;-83.924515;800.51;NaN;2.66;59.655724;154.4;7 / 12;16006;2022-11-01 17:35:05:025
0.218;-1.0053;11.3734;0.2435;-0.8114;9.77;-0.0919;-0.2037;1.892;-0.6589;1.5096;0.4021;60.0;-8.12;-19.91;-40.39;163.25;4.75;-1.43;5.0;35.958153;-83.924515;800.51;NaN;2.66;59.655724;154.4;7 / 12;16506;2022-11-01 17:35:05:525
-1.5658;-0.9159;9.1762;0.3631;-0.3958;9.7919;-1.5565;-0.9949;-1.2669;-1.0244;-0.2646;-0.6702;52.3;-4.95;-24.32;-32.36;169.25;-0.91;-0.97;5.0;35.958153;-83.924515;800.51;NaN;2.66;59.655724;154.4;7 / 12;17006;2022-11-01 17:35:06:025
0.9344;-1.7671;9.6978;1.4327;-0.5634;9.6851;-0.8058;-0.5173;-1.2417;0.9051;-0.4478;1.1545;39.7;10.35;-38.59;-27.22;198.92;3.29;-8.41;5.0;35.958153;-83.924515;800.51;NaN;2.66;59.655724;154.4;7 / 12;17507;2022-11-01 17:35:06:526
-1.4686;-0.8016;10.3062;-0.4869;0.7194;9.7681;1.8044;-2.773;-1.5941;0.803;-0.3543;-1.1133;49.1;17.53;-45.92;-20.72;200.93;-4.21;2.85;5.0;35.958153;-83.924515;800.51;NaN;2.66;59.655724;154.4;5 / 12;18006;2022-11-01 17:35:07:025
-0.1537;-0.3221;9.5623;0.1024;-0.2407;9.8032;-0.246;-0.1099;-0.4326;1.4296;-0.4567;0.6247;39.7;22.8;-26.7;-27.69;220.09;1.41;-0.6;5.0;35.958153;-83.924515;800.51;NaN;2.66;59.655724;154.4;5 / 12;18506;2022-11-01 17:35:07:525
1.1734;-0.8378;7.6714;0.8078;-1.0226;9.7197;0.3607;0.8638;-2.6498;0.2026;-0.1351;-0.1473;40.2;13.8;-25.78;-27.19;208.8;6.86;-4.1;5.0;35.95827;-83.92438;822.78;NaN;6.44;116.93925;351.4;0 / 12;19006;2022-11-01 17:35:08:025
3.8492;-0.6864;8.7386;1.9532;-1.324;9.5185;1.8573;0.5299;-0.3059;-0.886;0.5711;1.1077;49.6;-4.26;-17.12;-27.32;184.2;7.76;-11.6;5.0;35.95827;-83.92438;822.78;NaN;6.44;116.93925;351.4;0 / 12;19507;2022-11-01 17:35:08:526
1.4459;0.2474;7.2185;2.5948;-2.5468;9.1077;-1.4187;3.2614;-1.4726;0.4729;0.0786;0.9731;56.9;-26.76;2.63;-26.42;106.32;15.05;-15.9;5.0;35.95827;-83.92438;822.78;NaN;6.44;116.93925;351.4;0 / 12;20007;2022-11-01 17:35:09:026
1.5467;-2.286;8.6785;2.6771;-1.0699;9.3733;-1.3424;-0.8508;-0.6212;-0.1917;-0.0928;0.3916;78.6;-45.39;3.13;-25.48;90.27;5.07;-15.02;5.0;35.95827;-83.92438;822.78;NaN;6.44;116.93925;351.4;0 / 12;20506;2022-11-01 17:35:09:525
0.3736;0.1917;14.321;1.9049;-0.5651;9.6032;0.177;0.8143;3.7668;0.7932;0.4203;-0.0938;62.7;-31.57;3.23;-30.39;93.25;7.11;-11.36;5.0;35.95827;-83.92438;822.78;NaN;6.44;116.93925;351.4;0 / 12;21006;2022-11-01 17:35:10:025
3.6266;-1.7082;10.1369;1.973;-0.4898;9.5936;1.8966;-1.4321;0.4598;0.3681;-0.1498;0.2496;75.5;-25.8;17.89;-46.11;46.33;2.86;-11.62;5.0;35.95827;-83.92438;822.78;NaN;6.44;116.93925;351.4;0 / 12;21507;2022-11-01 17:35:10:526
1.7728;-0.5928;8.3043;2.2847;-0.8808;9.496;-0.8705;0.2068;-1.2788;-0.2344;0.1986;0.3635;63.1;-34.56;38.78;-53.91;32.65;5.15;-13.53;5.0;35.95827;-83.92438;822.78;NaN;6.44;116.93925;351.4;0 / 12;22006;2022-11-01 17:35:11:025
-0.8865;-2.19;8.5528;0.4285;-1.7197;9.6452;-2.0899;1.0042;-2.4758;0.5058;0.8178;3.2854;76.1;-36.6;34.5;-49.93;53.82;10.1;-2.54;5.0;35.95827;-83.92438;822.78;NaN;6.44;116.93925;351.4;0 / 12;22506;2022-11-01 17:35:11:525
-0.865;-1.8598;8.6169;0.9705;-1.6759;9.6135;-1.2868;-0.3938;-1.6746;-0.2685;-0.7374;-0.9658;59.3;-11.1;49.39;-56.63;9.02;11.57;-5.2;5.0;35.95827;-83.92438;822.78;NaN;6.44;116.93925;351.4;0 / 12;23007;2022-11-01 17:35:12:026
1.8939;-2.0581;12.0535;2.629;-1.7827;9.278;-0.7448;-0.4972;2.1854;-0.4776;-0.6659;0.1776;49.3;-20.57;12.68;-43.67;63.76;10.47;-15.82;5.0;35.95827;-83.92438;822.78;NaN;6.44;116.93925;351.4;0 / 12;23506;2022-11-01 17:35:12:525
1.4207;-1.8879;9.8868;2.5403;-1.9939;9.2597;-1.355;-0.8997;0.4006;0.0429;-0.7214;-0.013;49.3;-13.56;2.51;-37.26;136.51;12.52;-13.05;5.0;35.95827;-83.92438;822.78;NaN;6.44;116.93925;351.4;0 / 12;24006;2022-11-01 17:35:13:025
1.5185;-2.1069;7.0229;1.2764;-0.8565;9.6854;-0.0937;-1.2335;-2.3829;0.277;0.1187;0.1097;44.3;-6.02;-9.88;-29.36;170.23;5.01;-7.51;5.0;35.95827;-83.92438;822.78;NaN;6.44;116.93925;351.4;0 / 12;24507;2022-11-01 17:35:13:526
1.7572;-0.1783;6.3308;1.4509;-1.7731;9.5353;-0.1625;2.1719;-3.1012;0.7055;-0.0862;0.4515;55.1;7.84;-10.16;-32.72;217.66;12.86;-8.73;5.0;35.95827;-83.92438;822.78;NaN;6.44;116.93925;351.4;0 / 12;25006;2022-11-01 17:35:14:025
0.7567;-2.1613;10.6376;-0.0552;-0.6805;9.7829;2.2687;-1.3237;-2.7567;-0.5014;0.2472;0.4551;47.4;14.34;3.23;-42.28;270.3;3.98;0.32;5.0;35.95827;-83.92438;822.78;NaN;6.44;116.93925;351.4;0 / 12;25506;2022-11-01 17:35:14:525
1.363;-1.3277;8.1739;0.875;-2.1284;9.5328;0.6491;1.557;-0.7934;-0.2889;0.2799;-0.9782;47.4;12.41;9.99;-47.38;266.88;13.37;-4.82;5.0;35.95827;-83.92438;822.78;NaN;6.44;116.93925;351.4;0 / 12;26007;2022-11-01 17:35:15:026
2.5253;-1.1674;9.7193;1.1149;-1.1618;9.6736;1.8936;-0.1099;-1.0205;0.5177;0.033;0.4174;38.3;-2.12;20.01;-47.23;346.65;6.8;-6.57;5.0;35.95827;-83.92438;822.78;NaN;6.44;116.93925;351.4;0 / 12;26506;2022-11-01 17:35:15:525
2.2932;-0.6093;8.49;0.8175;-3.2423;9.219;1.2685;2.894;0.2303;0.0605;-0.4184;-0.4941;34.3;2.68;19.46;-42.96;299.94;20.28;-2.93;5.0;35.95827;-83.92438;822.78;NaN;6.44;116.93925;351.4;3 / 7;27007;2022-11-01 17:35:16:026
4.145;-3.1552;8.2795;1.3175;-0.8128;9.6837;-1.0145;-0.958;4.2193;0.4784;0.3708;1.945;26.5;2.72;24.79;-45.09;336.96;4.75;-7.75;5.0;35.95827;-83.92438;822.78;NaN;6.44;116.93925;351.4;3 / 7;27506;2022-11-01 17:35:16:525
1.1474;0.4944;13.0232;1.0612;-1.5133;9.6309;-0.0277;0.9922;3.5422;-0.9719;1.1495;-1.0055;26.5;12.69;26.36;-52.14;314.82;7.84;-6.77;5.0;35.95827;-83.92438;822.78;NaN;6.44;116.93925;351.4;3 / 7;28007;2022-11-01 17:35:17:026
1.7572;-1.946;12.5593;1.2947;-0.8763;9.6812;0.6694;-0.8903;0.4376;0.1445;1.486;1.2189;31.1;7.61;43.5;-55.54;338.49;5.13;-7.62;5.0;35.95827;-83.92438;822.78;NaN;6.44;116.93925;351.4;3 / 7;28506;2022-11-01 17:35:17:525
-0.1642;-3.5695;13.9343;1.4962;-2.7792;9.2848;-1.1356;-0.2362;5.3102;-1.339;1.0242;0.9906;38.3;-2.49;56.76;-68.74;340.6;11.13;-14.31;5.0;35.95827;-83.92438;822.78;NaN;6.44;116.93925;351.4;3 / 7;29006;2022-11-01 17:35:18:025
0.358;-2.013;11.4362;-2.1512;-0.9719;9.5183;2.47;-1.1917;1.8976;-0.379;-0.216;0.9117;38.3;-0.26;56.78;-51.07;12.25;5.69;12.74;5.0;35.95827;-83.92438;822.78;NaN;6.44;116.93925;351.4;3 / 7;29507;2022-11-01 17:35:18:526
-1.567;-0.317;7.905;0.5874;-1.8313;9.6162;-2.4225;0.7265;-2.5722;-0.5311;-0.0418;-0.433;47.1;1.74;29.38;-59.19;343.36;8.27;-3.94;5.0;35.95827;-83.92438;822.78;NaN;6.44;116.93925;351.4;3 / 7;30007;2022-11-01 17:35:19:026
-0.5644;-3.5213;14.9219;0.316;-0.7379;9.7737;-1.0938;-2.2019;4.4403;-0.4638;0.1107;1.0975;47.1;6.64;7.89;-53.4;294.72;4.32;-1.85;5.0;35.95827;-83.92438;822.78;NaN;6.44;116.93925;351.4;3 / 7;30506;2022-11-01 17:35:19:525
3.1023;-2.0261;11.8256;1.6159;-0.6291;9.6521;1.2448;0.8185;-1.1062;-0.3325;-0.4062;0.0136;41.7;7.33;4.14;-55.43;272.1;3.68;-9.5;5.0;35.95827;-83.92438;822.78;NaN;6.44;116.93925;351.4;3 / 7;31007;2022-11-01 17:35:20:026
2.2014;0.0236;7.6068;2.1548;-0.3034;9.5622;0.0225;0.318;-1.9613;0.6;-0.1452;1.2489;41.7;-19.12;6.34;-60.38;52.8;1.77;-12.7;5.0;35.95827;-83.92438;822.78;NaN;6.44;116.93925;351.4;3 / 7;31507;2022-11-01 17:35:20:526
2.8065;-0.6933;6.9341;2.0467;-1.3661;9.4929;0.4121;1.5669;-4.7741;0.3003;0.7044;1.7506;35.2;-33.15;-7.46;-60.41;133.42;7.08;-15.28;5.0;35.95827;-83.92438;822.78;NaN;6.44;116.93925;351.4;3 / 7;32006;2022-11-01 17:35:21:025
0.0885;-1.8652;8.394;1.9824;-1.0225;9.5496;-1.6615;-1.3829;-1.2795;0.0113;-0.0309;-0.8659;31.9;-32.55;-1.07;-59.47;110.8;5.98;-11.73;5.0;35.95827;-83.92438;822.78;NaN;6.44;116.93925;351.4;3 / 7;32506;2022-11-01 17:35:21:525
0.8671;-0.2264;10.285;1.9324;-0.5803;9.5968;-2.2942;0.8402;-1.1985;0.7196;0.0619;1.7812;31.9;-30.66;-18.22;-50.7;136.33;3.39;-11.39;5.0;35.95827;-83.92438;822.78;NaN;6.44;116.93925;351.4;3 / 7;33006;2022-11-01 17:35:22:025
1.2224;-0.926;10.826;1.6357;0.7572;9.6396;-0.4421;-1.6922;1.1824;0.418;-0.7351;0.6021;31.9;-28.18;-19.41;-48.21;127.33;-4.43;-9.63;5.0;35.95827;-83.92438;822.78;NaN;6.44;116.93925;351.4;3 / 7;33507;2022-11-01 17:35:22:526
1.9974;1.3804;7.7874;2.9463;0.7261;9.3254;-0.7217;0.1788;-2.8009;0.2073;0.673;0.7794;31.9;-34.03;-27.56;-41.53;144.03;-4.26;-20.09;5.0;35.95827;-83.92438;822.78;NaN;6.44;116.93925;351.4;3 / 7;34007;2022-11-01 17:35:23:026
3.0757;2.214;7.4818;3.2502;1.3963;9.1464;0.34;0.6726;-2.0122;-0.0036;0.1124;0.0622;31.9;-34.24;-34.18;-33.39;142.76;-8.19;-19.56;5.0;35.95827;-83.92438;822.78;NaN;6.44;116.93925;351.4;3 / 7;34506;2022-11-01 17:35:23:525
2.7401;1.1246;4.8003;1.9648;1.7276;9.4512;-0.7393;0.2255;0.9207;0.6083;0.87;0.2597;27.7;-30.13;-38.51;-31.05;144.19;-10.15;-11.74;5.0;35.95827;-83.92438;822.78;NaN;6.44;116.93925;351.4;3 / 7;35007;2022-11-01 17:35:24:026
-1.4228;2.8747;16.459;0.7469;1.1615;9.7089;-2.195;1.9255;6.2942;-0.7691;-0.8017;-0.2863;31.4;-14.64;-40.43;-41.98;155.01;-10.96;-0.59;5.0;35.95827;-83.92438;822.78;NaN;6.44;116.93925;351.4;3 / 7;35506;2022-11-01 17:35:24:525
4.328;0.9757;8.0444;4.5316;2.5228;8.3229;-1.2391;-1.0571;-0.171;0.1762;-0.8986;-0.8331;26.9;-21.97;-38.98;-36.13;170.56;-13.21;-25.01;5.0;35.95827;-83.92438;822.78;NaN;6.44;116.93925;351.4;3 / 6;36007;2022-11-01 17:35:25:026
2.9001;0.8692;6.5575;3.2452;2.2835;8.968;-0.8241;-1.1552;-1.9398;-1.1887;-1.3918;-0.1562;31.3;-18.06;-41.87;-32.06;169.45;-13.46;-19.89;5.0;35.95827;-83.92438;822.78;NaN;6.44;116.93925;351.4;3 / 6;36506;2022-11-01 17:35:25:525
1.2691;0.5031;10.0454;3.0766;-1.2412;9.2284;-1.2749;-0.284;-2.4215;-0.2249;0.5502;-0.9677;36.1;-17.42;-23.66;-48.56;178.81;7.27;-18.44;5.0;35.95855;-83.92486;868.86;NaN;2.56;731.1879;120.4;0 / 6;37006;2022-11-01 17:35:26:025
0.7232;-0.0891;8.901;0.7312;0.3998;9.7712;-0.218;-2.0126;0.4995;1.4618;0.2159;0.6007;94.8;-20.4;-4.44;-54.3;111.75;2.53;-4.04;5.0;35.95855;-83.92486;868.86;NaN;2.56;731.1879;120.4;0 / 6;37506;2022-11-01 17:35:26:525
1.308;0.6123;5.9554;2.1319;-1.122;9.5061;-1.2087;2.4355;-3.1139;0.0972;-1.3705;0.795;83.1;-23.36;11.46;-58.31;74.52;7.24;-11.01;5.0;35.95855;-83.92486;868.86;NaN;2.56;731.1879;120.4;0 / 6;38007;2022-11-01 17:35:27:026
4.85;-1.4581;9.9694;3.3536;0.2011;9.2132;1.5179;-1.9784;1.8004;0.3824;0.4661;1.4198;109.2;-43.87;41.81;-56.18;27.09;-1.17;-20.0;5.0;35.95855;-83.92486;868.86;NaN;2.56;731.1879;120.4;0 / 6;38506;2022-11-01 17:35:27:525
3.9993;0.4989;9.184;4.6274;-0.3622;8.6387;1.1301;-0.6785;0.7887;1.4122;-0.0341;0.7702;65.0;-39.9;41.94;-69.88;3.24;2.12;-28.18;5.0;35.95855;-83.92486;868.86;NaN;2.56;731.1879;120.4;0 / 6;39006;2022-11-01 17:35:28:025
5.5361;0.6808;7.7363;4.6932;0.4316;8.5999;0.3152;0.1713;-1.4907;-0.2246;-0.026;0.316;60.1;-38.4;27.83;-78.23;352.81;-2.52;-28.62;5.0;35.95855;-83.92486;868.86;NaN;2.56;731.1879;120.4;0 / 6;39507;2022-11-01 17:35:28:526
-0.3787;1.2407;12.1205;-0.4548;1.0018;9.7447;-0.1509;0.3839;2.0255;-0.3904;1.4376;0.4245;46.3;-63.34;56.61;-90.21;44.12;-6.97;1.45;5.0;35.95855;-83.92486;868.86;NaN;2.56;731.1879;120.4;0 / 6;40006;2022-11-01 17:35:29:025
-2.6186;-0.7098;9.6942;2.0083;-1.0705;9.5389;-4.9461;0.3289;0.6613;0.3591;-0.9781;0.5024;145.7;-74.72;37.24;-67.22;64.88;6.27;-11.89;5.0;35.95855;-83.92486;868.86;NaN;2.56;731.1879;120.4;0 / 6;40506;2022-11-01 17:35:29:525
-0.5207;0.1932;9.6275;0.124;-0.1697;9.8044;0.9125;-0.543;-1.1672;-0.046;-1.2185;-0.358;76.5;-37.78;38.89;-59.44;46.48;-0.05;3.09;5.0;35.95855;-83.92486;868.86;NaN;2.56;731.1879;120.4;0 / 6;41007;2022-11-01 17:35:30:026
-0.256;1.3364;7.2583;0.8819;1.5929;9.6362;-0.4605;0.0585;-2.8478;0.2586;-0.0359;0.8081;76.5;-29.51;24.68;-53.08;36.63;-9.35;-5.23;5.0;35.95855;-83.92486;868.86;NaN;2.56;731.1879;120.4;0 / 6;41506;2022-11-01 17:35:30:525
1.9286;2.2977;6.6885;0.6978;1.3775;9.6843;1.0904;0.8601;-2.7492;-0.4281;0.0547;-0.057;99.9;-19.09;14.48;-53.96;33.05;-9.52;-4.26;5.0;35.95855;-83.92486;868.86;NaN;2.56;731.1879;120.4;0 / 6;42007;2022-11-01 17:35:31:026
2.3115;-0.7484;8.2795;1.3466;0.1334;9.7128;0.2492;-1.5617;-0.0559;0.858;0.581;0.2562;52.3;-16.86;17.1;-45.09;31.15;-0.78;-7.89;5.0;35.95855;-83.92486;868.86;NaN;2.56;731.1879;120.4;0 / 6;42506;2022-11-01 17:35:31:525
3.4427;-0.9111;10.0974;2.3928;-1.4628;9.3971;0.3909;-1.0902;2.9812;0.5637;-0.0232;-0.8149;33.5;-13.16;17.08;-41.68;17.05;10.09;-13.58;5.0;35.95855;-83.92486;868.86;NaN;2.56;731.1879;120.4;0 / 6;43006;2022-11-01 17:35:32:025
0.8282;-0.134;11.1003;3.1667;-1.2471;9.1971;-2.0856;1.2308;0.9984;-0.5607;1.0089;0.5714;39.1;-11.04;13.09;-38.06;345.94;7.31;-19.0;5.0;35.95855;-83.92486;868.86;NaN;2.56;731.1879;120.4;0 / 6;43507;2022-11-01 17:35:32:526
-0.9111;-0.3;10.8529;1.4341;-0.4668;9.69;-2.1868;-0.2132;0.2147;-0.9693;-0.4162;0.0502;28.0;3.86;8.79;-39.3;317.25;-0.94;-7.26;5.0;35.95855;-83.92486;868.86;NaN;2.56;731.1879;120.4;0 / 6;44007;2022-11-01 17:35:33:026
1.4288;-0.4702;9.4125;2.8249;-0.7488;9.3611;-1.0253;-0.5042;-1.3656;1.3552;-0.2284;-0.1617;30.7;-1.52;17.21;-40.59;324.48;4.38;-16.79;5.0;35.95855;-83.92486;868.86;NaN;2.56;731.1879;120.4;0 / 6;44506;2022-11-01 17:35:33:525
0.9284;-2.1817;8.1171;1.7361;0.0233;9.6517;-0.2964;-2.1194;-3.0905;0.8812;-0.3647;0.566;27.9;-0.22;21.49;-43.89;337.52;3.01;-10.13;5.0;35.95855;-83.92486;868.86;NaN;2.56;731.1879;120.4;3 / 4;45006;2022-11-01 17:35:34:025
1.8434;0.5171;7.3531;2.0489;-1.3173;9.4993;-0.4418;2.1701;-2.4675;0.0521;-0.3802;-0.4544;28.0;-2.38;25.73;-47.14;337.84;7.72;-12.17;5.0;35.95855;-83.92486;868.86;NaN;2.56;731.1879;120.4;3 / 4;45507;2022-11-01 17:35:34:526
1.7803;-0.9212;5.2496;2.3065;0.8714;9.4916;-0.2209;-2.0471;-3.5368;0.882;-0.8944;0.0923;20.3;-11.19;29.53;-49.52;2.5;-2.25;-10.85;5.0;35.95855;-83.92486;868.86;NaN;2.56;731.1879;120.4;0 / 4;46007;2022-11-01 17:35:35:026
2.9444;2.7715;7.6385;3.8101;1.1781;8.9591;-0.9203;1.6853;-1.2966;0.6861;-0.531;1.118;33.2;-11.55;22.18;-49.29;343.7;-6.9;-23.04;5.0;35.95855;-83.92486;868.86;NaN;2.56;731.1879;120.4;0 / 4;46507;2022-11-01 17:35:35:526
3.845;0.3754;8.3163;4.5162;0.471;8.6921;-1.0436;-0.1481;1.8066;0.5745;0.0787;0.7097;33.2;-5.94;21.02;-39.19;331.54;-1.75;-26.45;5.0;35.95855;-83.92486;868.86;NaN;2.56;731.1879;120.4;0 / 4;47006;2022-11-01 17:35:36:025
0.0843;1.1988;8.4924;2.591;0.9855;9.4067;-3.9001;1.1384;1.0296;1.2209;0.8916;0.9407;43.4;17.98;6.79;-35.32;290.33;-5.77;-15.4;5.0;35.95855;-83.92486;868.86;NaN;2.56;731.1879;120.4;0 / 4;47507;2022-11-01 17:35:36:526
-1.0926;-1.223;11.8217;0.7849;-0.2595;9.7717;1.4921;0.6911;-0.6543;-1.0824;0.7742;0.3696;50.3;29.06;-9.11;-26.76;252.75;1.52;-4.59;5.0;35.95855;-83.92486;868.86;NaN;2.56;731.1879;120.4;0 / 4;48007;2022-11-01 17:35:37:026
0.6751;-0.1334;7.771;1.0854;0.9861;9.6964;-0.4413;-1.1493;-1.9474;0.4451;-0.4135;0.5555;35.6;25.86;-15.75;-23.64;244.15;-5.77;-6.39;5.0;35.95855;-83.92486;868.86;NaN;2.56;731.1879;120.4;0 / 4;48506;2022-11-01 17:35:37:525
1.1674;0.9748;10.0672;2.0823;0.3095;9.578;-0.0494;0.1213;-0.7361;0.6282;-0.2475;-0.1256;35.6;17.94;-19.84;-23.23;227.73;0.6;-11.48;5.0;35.95855;-83.92486;868.86;NaN;2.56;731.1879;120.4;0 / 4;49006;2022-11-01 17:35:38:025
3.2465;-2.7084;8.3303;1.4965;1.0777;9.6317;1.6024;-1.5474;-0.7059;0.5485;0.1729;1.5519;39.7;-2.1;-33.6;-23.89;183.14;-6.31;-8.83;5.0;35.95855;-83.92486;868.86;NaN;2.56;731.1879;120.4;0 / 4;49506;2022-11-01 17:35:38:525
0.571;-2.8741;11.2872;-0.416;-0.7843;9.7664;1.0721;0.3039;-0.9792;2.2743;1.0961;2.4295;31.5;-6.96;-22.14;-20.01;161.54;4.59;2.44;5.0;35.95855;-83.92486;868.86;NaN;2.56;731.1879;120.4;0 / 4;50007;2022-11-01 17:35:39:026
-0.2375;0.2988;8.3785;1.3566;1.1672;9.642;-1.5886;-0.8571;-1.4515;0.1973;-0.4117;-0.3667;31.5;-11.31;-9.77;-22.91;132.46;-6.84;-8.01;5.0;35.95855;-83.92486;868.86;NaN;2.56;731.1879;120.4;0 / 4;50507;2022-11-01 17:35:39:526
1.2682;0.1585;8.4858;1.0145;0.2033;9.7519;0.6836;1.1095;-0.6894;0.004;0.3157;0.8182;32.3;-20.01;-11.36;-17.12;120.61;-1.4;-6.97;5.0;35.958572;-83.9247;816.27;NaN;;833.242;;0 / 4;51006;2022-11-01 17:35:40:025
-0.7759;2.47;13.7686;0.8885;1.2518;9.6858;-0.4104;0.6209;1.583;0.8607;1.5264;0.7209;42.7;-20.64;-5.34;-17.53;97.18;-7.33;-5.24;5.0;35.958572;-83.9247;816.27;NaN;;833.242;;0 / 4;51506;2022-11-01 17:35:40:525
-0.8575;1.4749;15.4352;1.4477;0.9401;9.6535;-0.777;-0.5025;-0.7677;-1.2279;-0.2185;0.0833;32.4;-17.36;-6.51;-19.8;109.23;-5.5;-8.53;5.0;35.958572;-83.9247;816.27;NaN;;833.242;;0 / 4;52006;2022-11-01 17:35:41:025
0.3075;1.8156;9.262;2.1082;0.3157;9.5721;-1.862;1.6972;0.0545;0.3371;-0.0512;0.6357;32.4;-11.14;-8.55;-16.67;140.33;-1.15;-12.23;5.0;35.958572;-83.9247;816.27;NaN;;833.242;;0 / 4;52506;2022-11-01 17:35:41:525
1.9834;0.4023;12.2877;1.3505;0.9483;9.6668;0.6115;-1.3049;-1.5861;0.12;0.4565;-0.0579;29.3;-7.67;-15.41;-17.53;159.81;-5.06;-9.63;5.0;35.958572;-83.9247;816.27;NaN;;833.242;;0 / 4;53006;2022-11-01 17:35:42:025
0.7415;0.3628;10.4279;1.821;0.1971;9.6341;-1.3875;0.5027;0.3096;0.1815;-0.3946;0.0184;26.0;-2.32;-21.34;-21.02;185.37;-1.15;-10.7;5.0;35.958572;-83.9247;816.27;NaN;;833.242;;0 / 4;53507;2022-11-01 17:35:42:526
2.5866;-1.0774;9.5172;1.3287;0.6022;9.6975;-1.403;-0.5801;-1.8936;-0.3851;0.1274;0.1787;23.1;-0.09;-19.76;-24.22;189.99;-3.52;-7.8;5.0;35.958572;-83.9247;816.27;NaN;;833.242;;3 / 3;54007;2022-11-01 17:35:43:026
0.0933;2.062;11.5872;2.0957;0.3704;9.5729;-1.2611;-0.9557;-0.2372;0.2698;-0.9464;-1.9102;23.1;-5.02;-8.78;-29.61;188.04;-0.62;-11.77;5.0;35.958572;-83.9247;816.27;NaN;;833.242;;3 / 3;54506;2022-11-01 17:35:43:525
0.8632;0.486;9.7555;1.1458;1.0456;9.6832;-0.6721;-0.0796;-0.3361;1.0084;-0.0618;1.1229;32.5;-14.57;-4.44;-30.22;94.13;-5.73;-6.23;5.0;35.958572;-83.9247;816.27;NaN;;833.242;;0 / 3;55006;2022-11-01 17:35:44:025
0.055;-0.2865;9.2441;1.4878;-0.8144;9.6589;-1.4334;0.7315;-0.3453;0.1485;-0.717;0.254;41.8;-17.81;0.77;-29.21;96.87;4.76;-8.76;5.0;35.958572;-83.9247;816.27;NaN;;833.242;;0 / 3;55507;2022-11-01 17:35:44:526
1.8063;0.7759;7.5162;1.224;0.2271;9.7273;0.5126;0.1856;-0.9801;-0.1076;-0.3796;1.3768;77.7;-16.95;16.88;-31.07;36.2;-1.33;-7.17;5.0;35.958572;-83.9247;816.27;NaN;;833.242;;0 / 3;56006;2022-11-01 17:35:45:025
1.3382;-0.9532;7.3606;0.9576;-1.8329;9.5861;0.3938;0.2853;-2.6672;0.274;0.1779;0.782;77.7;-27.69;48.13;-25.42;31.15;10.77;-5.7;5.0;35.958572;-83.9247;816.27;NaN;;833.242;;0 / 3;56506;2022-11-01 17:35:45:525
2.0076;-0.8785;7.3394;1.953;-0.125;9.6094;-0.5018;-1.0269;-2.9655;0.1523;-0.2117;0.9298;115.1;-41.34;60.51;-30.86;28.39;0.6;-13.35;5.0;35.958572;-83.9247;816.27;NaN;;833.242;;0 / 3;57006;2022-11-01 17:35:46:025
-1.6929;-0.7379;13.6463;1.6013;-1.0062;9.6226;-2.9814;0.0868;4.3432;0.0626;-0.6506;0.6573;90.3;-29.74;63.08;-30.56;22.55;5.89;-9.45;5.0;35.958572;-83.9247;816.27;NaN;;833.242;;0 / 3;57507;2022-11-01 17:35:46:526
2.1999;-0.0954;12.411;1.2272;-0.6702;9.7064;1.3956;0.3183;0.8655;0.5459;-1.0636;0.3788;77.1;-16.99;60.11;-27.99;14.2;4.91;-5.01;5.0;35.958572;-83.9247;816.27;NaN;;833.242;;0 / 3;58007;2022-11-01 17:35:47:026
0.571;-0.3126;8.1371;1.8247;-0.3295;9.6298;-1.3455;-0.2423;-2.103;-0.0536;0.1179;0.8618;77.1;-13.27;6.11;-31.65;54.51;1.93;-10.73;5.0;35.958572;-83.9247;816.27;NaN;;833.242;;0 / 3;58506;2022-11-01 17:35:47:525
2.5798;1.3053;9.632;1.9797;-1.5541;9.4782;0.6262;2.332;2.332;0.1661;-0.461;0.225;68.6;0.34;-6.41;-28.74;205.85;9.92;-10.42;5.0;35.958572;-83.9247;816.27;NaN;;833.242;;0 / 3;59006;2022-11-01 17:35:48:025
2.9462;-2.3088;11.2071;1.6611;-0.9996;9.6131;0.0917;0.8149;3.5867;-0.4691;0.9291;0.7874;48.2;1.84;-9.06;-24.13;208.13;5.85;-9.8;5.0;35.958572;-83.9247;816.27;NaN;;833.242;;0 / 3;59506;2022-11-01 17:35:48:525
2.1096;-1.0044;13.0056;1.8895;-0.4722;9.6113;0.7193;-0.1011;3.3352;-0.5819;0.5064;0.0887;37.8;1.39;-14.36;-22.59;201.58;2.34;-12.34;5.0;35.958572;-83.9247;816.27;NaN;;833.242;;0 / 3;60007;2022-11-01 17:35:49:026
1.7145;0.7839;9.8067;2.8345;-0.296;9.3834;-1.439;1.3825;-0.0581;-0.2105;0.3128;0.348;37.8;4.39;-18.19;-28.03;212.44;1.73;-16.81;5.0;35.958572;-83.9247;816.27;NaN;;833.242;;0 / 3;60506;2022-11-01 17:35:49:525
2.9118;-1.6011;8.6288;1.8098;-1.3699;9.5403;1.2102;-0.1018;-0.1667;0.5304;-0.0892;0.3896;26.4;6.56;-18.21;-30.24;209.81;8.03;-10.74;5.0;35.958572;-83.9247;816.27;NaN;;833.242;;0 / 3;61007;2022-11-01 17:35:50:026
1.5308;-0.3362;7.2254;1.8098;-1.3699;9.5403;1.2102;-0.1018;-0.1667;0.5304;-0.0892;0.3896;31.1;6.56;-18.21;-30.24;209.81;8.03;-10.74;5.0;35.958572;-83.9247;816.27;NaN;;833.242;;0 / 3;61507;2022-11-01 17:35:50:526
1.8138;-1.043;9.0386;1.8098;-1.3699;9.5403;1.2102;-0.1018;-0.1667;0.5304;-0.0892;0.3896;17.8;6.56;-18.21;-30.24;209.81;8.03;-10.74;5.0;35.958572;-83.9247;816.27;NaN;;833.242;;0 / 3;62006;2022-11-01 17:35:51:025
1.7587;-0.3978;7.8727;1.8098;-1.3699;9.5403;1.2102;-0.1018;-0.1667;0.5304;-0.0892;0.3896;22.1;6.56;-18.21;-30.24;209.81;8.03;-10.74;5.0;35.958572;-83.9247;816.27;NaN;;833.242;;0 / 3;62506;2022-11-01 17:35:51:525
2.8074;-1.8685;10.585;1.8098;-1.3699;9.5403;1.2102;-0.1018;-0.1667;0.5304;-0.0892;0.3896;17.9;6.56;-18.21;-30.24;209.81;8.03;-10.74;5.0;35.958572;-83.9247;816.27;NaN;;833.242;;0 / 3;63007;2022-11-01 17:35:52:026
0.1092;0.2441;8.7906;1.8098;-1.3699;9.5403;1.2102;-0.1018;-0.1667;0.5304;-0.0892;0.3896;26.5;6.56;-18.21;-30.24;209.81;8.03;-10.74;5.0;35.958572;-83.9247;816.27;NaN;;833.242;;0 / 3;63506;2022-11-01 17:35:52:525
2.7182;-3.6703;12.1884;1.8098;-1.3699;9.5403;1.2102;-0.1018;-0.1667;0.5304;-0.0892;0.3896;35.5;6.56;-18.21;-30.24;209.81;8.03;-10.74;5.0;35.958572;-83.9247;816.27;NaN;;833.242;;0 / 3;64007;2022-11-01 17:35:53:026
1.6232;-0.035;13.416;1.8098;-1.3699;9.5403;1.2102;-0.1018;-0.1667;0.5304;-0.0892;0.3896;35.5;6.56;-18.21;-30.24;209.81;8.03;-10.74;5.0;35.958572;-83.9247;816.27;NaN;;833.242;;0 / 3;64507;2022-11-01 17:35:53:526
1.8242;0.612;10.861;1.8098;-1.3699;9.5403;1.2102;-0.1018;-0.1667;0.5304;-0.0892;0.3896;49.3;6.56;-18.21;-30.24;209.81;8.03;-10.74;5.0;35.958572;-83.9247;816.27;NaN;;833.242;;0 / 3;65006;2022-11-01 17:35:54:025
0.9434;-1.0047;10.4145;1.8098;-1.3699;9.5403;1.2102;-0.1018;-0.1667;0.5304;-0.0892;0.3896;49.3;6.56;-18.21;-30.24;209.81;8.03;-10.74;5.0;35.958572;-83.9247;816.27;NaN;;833.242;;0 / 3;65506;2022-11-01 17:35:54:525
0.9547;-0.0867;8.9186;1.8098;-1.3699;9.5403;1.2102;-0.1018;-0.1667;0.5304;-0.0892;0.3896;49.3;6.56;-18.21;-30.24;209.81;8.03;-10.74;5.0;35.958572;-83.9247;816.27;NaN;;833.242;;0 / 3;66007;2022-11-01 17:35:55:026
1.3531;-0.6966;11.6204;1.8098;-1.3699;9.5403;1.2102;-0.1018;-0.1667;0.5304;-0.0892;0.3896;43.6;6.56;-18.21;-30.24;209.81;8.03;-10.74;5.0;35.958572;-83.9247;816.27;NaN;;833.242;;0 / 3;66506;2022-11-01 17:35:55:525
1.1354;-0.6661;11.4102;1.8098;-1.3699;9.5403;1.2102;-0.1018;-0.1667;0.5304;-0.0892;0.3896;35.2;6.56;-18.21;-30.24;209.81;8.03;-10.74;5.0;35.958572;-83.9247;816.27;NaN;;833.242;;0 / 3;67007;2022-11-01 17:35:56:026
2.8983;-1.4955;11.4395;1.8098;-1.3699;9.5403;1.2102;-0.1018;-0.1667;0.5304;-0.0892;0.3896;21.7;6.56;-18.21;-30.24;209.81;8.03;-10.74;5.0;35.958572;-83.9247;816.27;NaN;;833.242;;0 / 3;67507;2022-11-01 17:35:56:526
2.4936;-1.4871;8.7532;1.8098;-1.3699;9.5403;1.2102;-0.1018;-0.1667;0.5304;-0.0892;0.3896;27.9;6.56;-18.21;-30.24;209.81;8.03;-10.74;5.0;35.958572;-83.9247;816.27;NaN;;833.242;;0 / 3;68006;2022-11-01 17:35:57:025
2.8017;-1.989;9.5554;1.8098;-1.3699;9.5403;1.2102;-0.1018;-0.1667;0.5304;-0.0892;0.3896;33.6;6.56;-18.21;-30.24;209.81;8.03;-10.74;5.0;35.958572;-83.9247;816.27;NaN;;833.242;;0 / 3;68506;2022-11-01 17:35:57:525
0.676;-2.5262;10.4234;1.8098;-1.3699;9.5403;1.2102;-0.1018;-0.1667;0.5304;-0.0892;0.3896;41.3;6.56;-18.21;-30.24;209.81;8.03;-10.74;5.0;35.958572;-83.9247;816.27;NaN;;833.242;;0 / 3;69006;2022-11-01 17:35:58:025
0.2327;-1.4318;8.4724;1.8098;-1.3699;9.5403;1.2102;-0.1018;-0.1667;0.5304;-0.0892;0.3896;36.4;6.56;-18.21;-30.24;209.81;8.03;-10.74;5.0;35.958572;-83.9247;816.27;NaN;;833.242;;0 / 3;69506;2022-11-01 17:35:58:525
2.0231;-0.329;5.9288;1.8098;-1.3699;9.5403;1.2102;-0.1018;-0.1667;0.5304;-0.0892;0.3896;40.6;6.56;-18.21;-30.24;209.81;8.03;-10.74;5.0;35.958572;-83.9247;816.27;NaN;;833.242;;0 / 3;70006;2022-11-01 17:35:59:025
0.8168;-2.4344;11.112;1.8098;-1.3699;9.5403;1.2102;-0.1018;-0.1667;0.5304;-0.0892;0.3896;35.1;6.56;-18.21;-30.24;209.81;8.03;-10.74;5.0;35.958572;-83.9247;816.27;NaN;;833.242;;0 / 3;70506;2022-11-01 17:35:59:525
1.7294;-0.827;10.0439;1.8098;-1.3699;9.5403;1.2102;-0.1018;-0.1667;0.5304;-0.0892;0.3896;31.8;6.56;-18.21;-30.24;209.81;8.03;-10.74;5.0;35.958572;-83.9247;816.27;NaN;;833.242;;0 / 3;71007;2022-11-01 17:36:00:026
1.1396;-0.6182;10.4411;1.8098;-1.3699;9.5403;1.2102;-0.1018;-0.1667;0.5304;-0.0892;0.3896;31.8;6.56;-18.21;-30.24;209.81;8.03;-10.74;5.0;35.958572;-83.9247;816.27;NaN;;833.242;;0 / 3;71506;2022-11-01 17:36:00:525
2.6614;-2.7159;9.5922;1.8098;-1.3699;9.5403;1.2102;-0.1018;-0.1667;0.5304;-0.0892;0.3896;28.8;6.56;-18.21;-30.24;209.81;8.03;-10.74;5.0;35.958572;-83.9247;816.27;NaN;;833.242;;0 / 3;72006;2022-11-01 17:36:01:025
2.7236;-1.2757;7.3448;1.8098;-1.3699;9.5403;1.2102;-0.1018;-0.1667;0.5304;-0.0892;0.3896;28.8;6.56;-18.21;-30.24;209.81;8.03;-10.74;5.0;35.958572;-83.9247;816.27;NaN;;833.242;;0 / 3;72507;2022-11-01 17:36:01:526
1.0606;-0.9538;7.0789;1.8098;-1.3699;9.5403;1.2102;-0.1018;-0.1667;0.5304;-0.0892;0.3896;28.8;6.56;-18.21;-30.24;209.81;8.03;-10.74;5.0;35.958572;-83.9247;816.27;NaN;;833.242;;0 / 3;73007;2022-11-01 17:36:02:026
1.2051;0.099;9.4056;1.8098;-1.3699;9.5403;1.2102;-0.1018;-0.1667;0.5304;-0.0892;0.3896;28.8;6.56;-18.21;-30.24;209.81;8.03;-10.74;5.0;35.958572;-83.9247;816.27;NaN;;833.242;;0 / 3;73507;2022-11-01 17:36:02:526
2.4727;-3.3;10.9723;1.8098;-1.3699;9.5403;1.2102;-0.1018;-0.1667;0.5304;-0.0892;0.3896;49.6;6.56;-18.21;-30.24;209.81;8.03;-10.74;5.0;35.958572;-83.9247;816.27;NaN;;833.242;;0 / 3;74007;2022-11-01 17:36:03:026
1.4366;-3.0538;13.1393;1.8098;-1.3699;9.5403;1.2102;-0.1018;-0.1667;0.5304;-0.0892;0.3896;60.6;6.56;-18.21;-30.24;209.81;8.03;-10.74;5.0;35.958572;-83.9247;816.27;NaN;;833.242;;0 / 3;74507;2022-11-01 17:36:03:526
2.8869;-1.1584;12.7415;1.8098;-1.3699;9.5403;1.2102;-0.1018;-0.1667;0.5304;-0.0892;0.3896;72.2;6.56;-18.21;-30.24;209.81;8.03;-10.74;5.0;35.958572;-83.9247;816.27;NaN;;833.242;;0 / 3;75006;2022-11-01 17:36:04:025
3.4427;0.0709;7.7928;1.8098;-1.3699;9.5403;1.2102;-0.1018;-0.1667;0.5304;-0.0892;0.3896;55.3;6.56;-18.21;-30.24;209.81;8.03;-10.74;5.0;35.958572;-83.9247;816.27;NaN;;833.242;;0 / 3;75506;2022-11-01 17:36:04:525
1.1554;2.158;8.985;1.8098;-1.3699;9.5403;1.2102;-0.1018;-0.1667;0.5304;-0.0892;0.3896;68.7;6.56;-18.21;-30.24;209.81;8.03;-10.74;5.0;35.958572;-83.9247;816.27;NaN;;833.242;;0 / 3;76007;2022-11-01 17:36:05:026
1.6092;0.3987;10.8021;1.8098;-1.3699;9.5403;1.2102;-0.1018;-0.1667;0.5304;-0.0892;0.3896;81.2;6.56;-18.21;-30.24;209.81;8.03;-10.74;5.0;35.958572;-83.9247;816.27;NaN;;833.242;;0 / 3;76506;2022-11-01 17:36:05:525
1.8814;0.8231;9.4552;1.8098;-1.3699;9.5403;1.2102;-0.1018;-0.1667;0.5304;-0.0892;0.3896;68.6;6.56;-18.21;-30.24;209.81;8.03;-10.74;5.0;35.958572;-83.9247;816.27;NaN;;833.242;;0 / 3;77007;2022-11-01 17:36:06:026
2.4903;2.0584;8.519;1.8098;-1.3699;9.5403;1.2102;-0.1018;-0.1667;0.5304;-0.0892;0.3896;85.9;6.56;-18.21;-30.24;209.81;8.03;-10.74;5.0;35.958572;-83.9247;816.27;NaN;;833.242;;0 / 3;77507;2022-11-01 17:36:06:526
1.9187;0.8964;9.5602;1.8098;-1.3699;9.5403;1.2102;-0.1018;-0.1667;0.5304;-0.0892;0.3896;85.9;6.56;-18.21;-30.24;209.81;8.03;-10.74;5.0;35.958572;-83.9247;816.27;NaN;;833.242;;0 / 3;78006;2022-11-01 17:36:07:025
2.1251;-0.5498;13.7507;1.8098;-1.3699;9.5403;1.2102;-0.1018;-0.1667;0.5304;-0.0892;0.3896;76.5;6.56;-18.21;-30.24;209.81;8.03;-10.74;5.0;35.958572;-83.9247;816.27;NaN;;833.242;;0 / 3;78506;2022-11-01 17:36:07:525
1.4432;-0.9114;7.9983;1.8098;-1.3699;9.5403;1.2102;-0.1018;-0.1667;0.5304;-0.0892;0.3896;60.4;6.56;-18.21;-30.24;209.81;8.03;-10.74;5.0;35.958572;-83.9247;816.27;NaN;;833.242;;0 / 3;79006;2022-11-01 17:36:08:025
1.471;-2.0743;7.9179;1.8098;-1.3699;9.5403;1.2102;-0.1018;-0.1667;0.5304;-0.0892;0.3896;36.7;6.56;-18.21;-30.24;209.81;8.03;-10.74;5.0;35.958572;-83.9247;816.27;NaN;;833.242;;0 / 3;79506;2022-11-01 17:36:08:525
0.8749;-0.51;10.1587;1.8098;-1.3699;9.5403;1.2102;-0.1018;-0.1667;0.5304;-0.0892;0.3896;36.4;6.56;-18.21;-30.24;209.81;8.03;-10.74;5.0;35.958572;-83.9247;816.27;NaN;;833.242;;0 / 3;80006;2022-11-01 17:36:09:025
2.3261;-3.9933;12.2198;1.8098;-1.3699;9.5403;1.2102;-0.1018;-0.1667;0.5304;-0.0892;0.3896;21.3;6.56;-18.21;-30.24;209.81;8.03;-10.74;5.0;35.958572;-83.9247;816.27;NaN;;833.242;;0 / 3;80507;2022-11-01 17:36:09:526
2.3174;-1.937;10.5111;1.8098;-1.3699;9.5403;1.2102;-0.1018;-0.1667;0.5304;-0.0892;0.3896;28.6;6.56;-18.21;-30.24;209.81;8.03;-10.74;5.0;35.958572;-83.9247;816.27;NaN;;833.242;;0 / 3;81007;2022-11-01 17:36:10:026
3.0634;1.6074;9.1277;1.8098;-1.3699;9.5403;1.2102;-0.1018;-0.1667;0.5304;-0.0892;0.3896;21.5;6.56;-18.21;-30.24;209.81;8.03;-10.74;5.0;35.958572;-83.9247;816.27;NaN;;833.242;;0 / 3;81506;2022-11-01 17:36:10:525
1.864;0.5755;7.3561;1.8098;-1.3699;9.5403;1.2102;-0.1018;-0.1667;0.5304;-0.0892;0.3896;19.5;6.56;-18.21;-30.24;209.81;8.03;-10.74;5.0;35.958572;-83.9247;816.27;NaN;;833.242;;0 / 3;82006;2022-11-01 17:36:11:025
2.4407;1.6696;11.1413;1.8098;-1.3699;9.5403;1.2102;-0.1018;-0.1667;0.5304;-0.0892;0.3896;22.9;6.56;-18.21;-30.24;209.81;8.03;-10.74;5.0;35.958572;-83.9247;816.27;NaN;;833.242;;0 / 3;82507;2022-11-01 17:36:11:526
2.1541;0.1899;10.2425;1.8098;-1.3699;9.5403;1.2102;-0.1018;-0.1667;0.5304;-0.0892;0.3896;17.4;6.56;-18.21;-30.24;209.81;8.03;-10.74;5.0;35.958572;-83.9247;816.27;NaN;;833.242;;0 / 3;83006;2022-11-01 17:36:12:025
1.3436;-0.0293;12.4804;1.8098;-1.3699;9.5403;1.2102;-0.1018;-0.1667;0.5304;-0.0892;0.3896;20.4;6.56;-18.21;-30.24;209.81;8.03;-10.74;5.0;35.958572;-83.9247;816.27;NaN;;833.242;;0 / 3;83506;2022-11-01 17:36:12:525
1.5215;-1.841;12.9129;1.8098;-1.3699;9.5403;1.2102;-0.1018;-0.1667;0.5304;-0.0892;0.3896;15.8;6.56;-18.21;-30.24;209.81;8.03;-10.74;5.0;35.958572;-83.9247;816.27;NaN;;833.242;;0 / 3;84006;2022-11-01 17:36:13:025
2.2546;-1.9944;9.5874;1.8098;-1.3699;9.5403;1.2102;-0.1018;-0.1667;0.5304;-0.0892;0.3896;26.1;6.56;-18.21;-30.24;209.81;8.03;-10.74;5.0;35.958572;-83.9247;816.27;NaN;;833.242;;0 / 3;84507;2022-11-01 17:36:13:526
3.3748;-0.4567;8.4742;1.8098;-1.3699;9.5403;1.2102;-0.1018;-0.1667;0.5304;-0.0892;0.3896;33.4;6.56;-18.21;-30.24;209.81;8.03;-10.74;5.0;35.958572;-83.9247;816.27;NaN;;833.242;;0 / 3;85006;2022-11-01 17:36:14:025
0.9165;-0.7457;7.1898;1.8098;-1.3699;9.5403;1.2102;-0.1018;-0.1667;0.5304;-0.0892;0.3896;26.3;6.56;-18.21;-30.24;209.81;8.03;-10.74;5.0;35.958572;-83.9247;816.27;NaN;;833.242;;0 / 3;85506;2022-11-01 17:36:14:525
2.6641;-0.4271;9.539;1.8098;-1.3699;9.5403;1.2102;-0.1018;-0.1667;0.5304;-0.0892;0.3896;33.1;6.56;-18.21;-30.24;209.81;8.03;-10.74;5.0;35.958572;-83.9247;816.27;NaN;;833.242;;0 / 3;86007;2022-11-01 17:36:15:026
0.0015;-2.4239;9.6344;1.8098;-1.3699;9.5403;1.2102;-0.1018;-0.1667;0.5304;-0.0892;0.3896;28.7;6.56;-18.21;-30.24;209.81;8.03;-10.74;5.0;35.958572;-83.9247;816.27;NaN;;833.242;;0 / 3;86506;2022-11-01 17:36:15:525
-2.1012;0.0772;11.4389;1.8098;-1.3699;9.5403;1.2102;-0.1018;-0.1667;0.5304;-0.0892;0.3896;23.3;6.56;-18.21;-30.24;209.81;8.03;-10.74;5.0;35.958572;-83.9247;816.27;NaN;;833.242;;0 / 3;87007;2022-11-01 17:36:16:026
1.4943;-1.0325;9.7914;1.8098;-1.3699;9.5403;1.2102;-0.1018;-0.1667;0.5304;-0.0892;0.3896;33.9;6.56;-18.21;-30.24;209.81;8.03;-10.74;5.0;35.958572;-83.9247;816.27;NaN;;833.242;;0 / 3;87506;2022-11-01 17:36:16:525
0.6927;-0.4807;7.4396;1.8098;-1.3699;9.5403;1.2102;-0.1018;-0.1667;0.5304;-0.0892;0.3896;19.7;6.56;-18.21;-30.24;209.81;8.03;-10.74;5.0;35.958572;-83.9247;816.27;NaN;;833.242;;0 / 3;88006;2022-11-01 17:36:17:025
1.8497;-0.2575;13.2772;1.8098;-1.3699;9.5403;1.2102;-0.1018;-0.1667;0.5304;-0.0892;0.3896;23.3;6.56;-18.21;-30.24;209.81;8.03;-10.74;5.0;35.958572;-83.9247;816.27;NaN;;833.242;;0 / 3;88506;2022-11-01 17:36:17:525
0.5501;0.2955;9.9341;1.8098;-1.3699;9.5403;1.2102;-0.1018;-0.1667;0.5304;-0.0892;0.3896;29.7;6.56;-18.21;-30.24;209.81;8.03;-10.74;5.0;35.958572;-83.9247;816.27;NaN;;833.242;;0 / 3;89006;2022-11-01 17:36:18:025
2.0647;-1.3657;8.2032;1.8098;-1.3699;9.5403;1.2102;-0.1018;-0.1667;0.5304;-0.0892;0.3896;27.5;6.56;-18.21;-30.24;209.81;8.03;-10.74;5.0;35.958572;-83.9247;816.27;NaN;;833.242;;0 / 3;89506;2022-11-01 17:36:18:525
2.6396;0.5318;6.6514;1.8098;-1.3699;9.5403;1.2102;-0.1018;-0.1667;0.5304;-0.0892;0.3896;33.0;6.56;-18.21;-30.24;209.81;8.03;-10.74;5.0;35.958572;-83.9247;816.27;NaN;;833.242;;0 / 3;90007;2022-11-01 17:36:19:026
2.4568;-0.5321;8.0079;1.8098;-1.3699;9.5403;1.2102;-0.1018;-0.1667;0.5304;-0.0892;0.3896;23.8;6.56;-18.21;-30.24;209.81;8.03;-10.74;5.0;35.958572;-83.9247;816.27;NaN;;833.242;;0 / 3;90507;2022-11-01 17:36:19:526
2.1634;2.2101;10.4192;1.8098;-1.3699;9.5403;1.2102;-0.1018;-0.1667;0.5304;-0.0892;0.3896;27.1;6.56;-18.21;-30.24;209.81;8.03;-10.74;5.0;35.958572;-83.9247;816.27;NaN;;833.242;;0 / 3;91006;2022-11-01 17:36:20:025
2.8241;-1.5562;10.0654;1.8098;-1.3699;9.5403;1.2102;-0.1018;-0.1667;0.5304;-0.0892;0.3896;22.1;6.56;-18.21;-30.24;209.81;8.03;-10.74;5.0;35.958572;-83.9247;816.27;NaN;;833.242;;0 / 3;91507;2022-11-01 17:36:20:526
1.774;-1.847;13.3783;1.8098;-1.3699;9.5403;1.2102;-0.1018;-0.1667;0.5304;-0.0892;0.3896;20.3;6.56;-18.21;-30.24;209.81;8.03;-10.74;5.0;35.958572;-83.9247;816.27;NaN;;833.242;;0 / 3;92006;2022-11-01 17:36:21:025
2.93;-2.3124;9.8163;1.8098;-1.3699;9.5403;1.2102;-0.1018;-0.1667;0.5304;-0.0892;0.3896;15.6;6.56;-18.21;-30.24;209.81;8.03;-10.74;5.0;35.958572;-83.9247;816.27;NaN;;833.242;;0 / 3;92506;2022-11-01 17:36:21:525
2.8941;-2.342;13.0262;1.8098;-1.3699;9.5403;1.2102;-0.1018;-0.1667;0.5304;-0.0892;0.3896;17.0;6.56;-18.21;-30.24;209.81;8.03;-10.74;5.0;35.958572;-83.9247;816.27;NaN;;833.242;;0 / 3;93007;2022-11-01 17:36:22:026
1.5697;-2.2178;13.7417;1.8098;-1.3699;9.5403;1.2102;-0.1018;-0.1667;0.5304;-0.0892;0.3896;13.6;6.56;-18.21;-30.24;209.81;8.03;-10.74;5.0;35.958572;-83.9247;816.27;NaN;;833.242;;0 / 3;93506;2022-11-01 17:36:22:525
1.2517;-1.372;7.7225;1.8098;-1.3699;9.5403;1.2102;-0.1018;-0.1667;0.5304;-0.0892;0.3896;19.0;6.56;-18.21;-30.24;209.81;8.03;-10.74;5.0;35.958572;-83.9247;816.27;NaN;;833.242;;0 / 3;94007;2022-11-01 17:36:23:026
2.0216;0.6464;4.739;1.8098;-1.3699;9.5403;1.2102;-0.1018;-0.1667;0.5304;-0.0892;0.3896;24.2;6.56;-18.21;-30.24;209.81;8.03;-10.74;5.0;35.958572;-83.9247;816.27;NaN;;833.242;;0 / 3;94507;2022-11-01 17:36:23:526
2.5268;-0.2022;7.5811;1.8098;-1.3699;9.5403;1.2102;-0.1018;-0.1667;0.5304;-0.0892;0.3896;29.1;6.56;-18.21;-30.24;209.81;8.03;-10.74;5.0;35.958572;-83.9247;816.27;NaN;;833.242;;0 / 3;95006;2022-11-01 17:36:24:025
-0.6996;0.786;7.3394;1.8098;-1.3699;9.5403;1.2102;-0.1018;-0.1667;0.5304;-0.0892;0.3896;32.4;6.56;-18.21;-30.24;209.81;8.03;-10.74;5.0;35.958572;-83.9247;816.27;NaN;;833.242;;0 / 3;95506;2022-11-01 17:36:24:525
0.2886;0.2246;7.7282;1.8098;-1.3699;9.5403;1.2102;-0.1018;-0.1667;0.5304;-0.0892;0.3896;18.4;6.56;-18.21;-30.24;209.81;8.03;-10.74;5.0;35.958572;-83.9247;816.27;NaN;;833.242;;0 / 3;96007;2022-11-01 17:36:25:026
1.4821;-1.8712;11.6689;1.8098;-1.3699;9.5403;1.2102;-0.1018;-0.1667;0.5304;-0.0892;0.3896;24.0;6.56;-18.21;-30.24;209.81;8.03;-10.74;5.0;35.958572;-83.9247;816.27;NaN;;833.242;;0 / 3;96506;2022-11-01 17:36:25:525
2.2777;-2.3315;9.6673;1.8098;-1.3699;9.5403;1.2102;-0.1018;-0.1667;0.5304;-0.0892;0.3896;24.0;6.56;-18.21;-30.24;209.81;8.03;-10.74;5.0;35.958572;-83.9247;816.27;NaN;;833.242;;0 / 3;97007;2022-11-01 17:36:26:026
0.2231;-2.1099;8.2717;1.8098;-1.3699;9.5403;1.2102;-0.1018;-0.1667;0.5304;-0.0892;0.3896;24.0;6.56;-18.21;-30.24;209.81;8.03;-10.74;5.0;35.958572;-83.9247;816.27;NaN;;833.242;;0 / 3;97506;2022-11-01 17:36:26:525
-1.6693;-0.5276;9.8258;1.8098;-1.3699;9.5403;1.2102;-0.1018;-0.1667;0.5304;-0.0892;0.3896;16.3;6.56;-18.21;-30.24;209.81;8.03;-10.74;5.0;35.958572;-83.9247;816.27;NaN;;833.242;;0 / 3;98007;2022-11-01 17:36:27:026
3.3296;-2.219;9.5865;1.8098;-1.3699;9.5403;1.2102;-0.1018;-0.1667;0.5304;-0.0892;0.3896;16.3;6.56;-18.21;-30.24;209.81;8.03;-10.74;5.0;35.958572;-83.9247;816.27;NaN;;833.242;;0 / 3;98506;2022-11-01 17:36:27:525
-0.0096;-1.0217;8.2008;1.8098;-1.3699;9.5403;1.2102;-0.1018;-0.1667;0.5304;-0.0892;0.3896;16.3;6.56;-18.21;-30.24;209.81;8.03;-10.74;5.0;35.958572;-83.9247;816.27;NaN;;833.242;;0 / 3;99007;2022-11-01 17:36:28:026
2.272;-3.6281;11.5328;1.8098;-1.3699;9.5403;1.2102;-0.1018;-0.1667;0.5304;-0.0892;0.3896;14.4;6.56;-18.21;-30.24;209.81;8.03;-10.74;5.0;35.958572;-83.9247;816.27;NaN;;833.242;;0 / 3;99507;2022-11-01 17:36:28:526
0.5276;-1.3971;12.3096;1.8098;-1.3699;9.5403;1.2102;-0.1018;-0.1667;0.5304;-0.0892;0.3896;15.7;6.56;-18.21;-30.24;209.81;8.03;-10.74;5.0;35.958572;-83.9247;816.27;NaN;;833.242;;0 / 3;100006;2022-11-01 17:36:29:025
2.2137;-1.4318;7.7426;1.8098;-1.3699;9.5403;1.2102;-0.1018;-0.1667;0.5304;-0.0892;0.3896;13.0;6.56;-18.21;-30.24;209.81;8.03;-10.74;5.0;35.958572;-83.9247;816.27;NaN;;833.242;;0 / 3;100507;2022-11-01 17:36:29:526
2.0504;-1.5724;8.9091;1.8098;-1.3699;9.5403;1.2102;-0.1018;-0.1667;0.5304;-0.0892;0.3896;13.0;6.56;-18.21;-30.24;209.81;8.03;-10.74;5.0;35.958572;-83.9247;816.27;NaN;;833.242;;0 / 3;101007;2022-11-01 17:36:30:026
2.3261;-1.864;8.6704;1.8098;-1.3699;9.5403;1.2102;-0.1018;-0.1667;0.5304;-0.0892;0.3896;13.3;6.56;-18.21;-30.24;209.81;8.03;-10.74;5.0;35.958572;-83.9247;816.27;NaN;;833.242;;0 / 3;101506;2022-11-01 17:36:30:525
1.4758;-0.0368;10.2497;1.8098;-1.3699;9.5403;1.2102;-0.1018;-0.1667;0.5304;-0.0892;0.3896;19.3;6.56;-18.21;-30.24;209.81;8.03;-10.74;5.0;35.958572;-83.9247;816.27;NaN;;833.242;;0 / 3;102006;2022-11-01 17:36:31:025
2.63;-3.236;10.3277;1.8098;-1.3699;9.5403;1.2102;-0.1018;-0.1667;0.5304;-0.0892;0.3896;17.2;6.56;-18.21;-30.24;209.81;8.03;-10.74;5.0;35.958572;-83.9247;816.27;NaN;;833.242;;0 / 3;102507;2022-11-01 17:36:31:526
2.9022;-1.6998;11.2385;1.8098;-1.3699;9.5403;1.2102;-0.1018;-0.1667;0.5304;-0.0892;0.3896;23.0;6.56;-18.21;-30.24;209.81;8.03;-10.74;5.0;35.958572;-83.9247;816.27;NaN;;833.242;;0 / 3;103006;2022-11-01 17:36:32:025
1.864;-1.3657;11.3572;1.8098;-1.3699;9.5403;1.2102;-0.1018;-0.1667;0.5304;-0.0892;0.3896;29.5;6.56;-18.21;-30.24;209.81;8.03;-10.74;5.0;35.958572;-83.9247;816.27;NaN;;833.242;;0 / 3;103506;2022-11-01 17:36:32:525
2.5756;-2.2065;11.6225;1.8098;-1.3699;9.5403;1.2102;-0.1018;-0.1667;0.5304;-0.0892;0.3896;34.3;6.56;-18.21;-30.24;209.81;8.03;-10.74;5.0;35.958572;-83.9247;816.27;NaN;;833.242;;0 / 3;104006;2022-11-01 17:36:33:025
2.4855;-1.3603;10.7348;1.8098;-1.3699;9.5403;1.2102;-0.1018;-0.1667;0.5304;-0.0892;0.3896;33.8;6.56;-18.21;-30.24;209.81;8.03;-10.74;5.0;35.958572;-83.9247;816.27;NaN;;833.242;;0 / 3;104506;2022-11-01 17:36:33:525
0.9419;-2.1434;8.7398;1.8098;-1.3699;9.5403;1.2102;-0.1018;-0.1667;0.5304;-0.0892;0.3896;23.6;6.56;-18.21;-30.24;209.81;8.03;-10.74;5.0;35.958572;-83.9247;816.27;NaN;;833.242;;0 / 3;105007;2022-11-01 17:36:34:026
-2.5597;-0.1475;9.3437;1.8098;-1.3699;9.5403;1.2102;-0.1018;-0.1667;0.5304;-0.0892;0.3896;30.8;6.56;-18.21;-30.24;209.81;8.03;-10.74;5.0;35.958572;-83.9247;816.27;NaN;;833.242;;0 / 3;105506;2022-11-01 17:36:34:525
1.8607;-1.6504;9.5462;1.8098;-1.3699;9.5403;1.2102;-0.1018;-0.1667;0.5304;-0.0892;0.3896;24.3;6.56;-18.21;-30.24;209.81;8.03;-10.74;5.0;35.958572;-83.9247;816.27;NaN;;833.242;;0 / 3;106007;2022-11-01 17:36:35:026
0.7705;-1.215;9.7702;1.8098;-1.3699;9.5403;1.2102;-0.1018;-0.1667;0.5304;-0.0892;0.3896;28.7;6.56;-18.21;-30.24;209.81;8.03;-10.74;5.0;35.958572;-83.9247;816.27;NaN;;833.242;;0 / 3;106506;2022-11-01 17:36:35:525
-0.9891;-0.9413;7.899;1.8098;-1.3699;9.5403;1.2102;-0.1018;-0.1667;0.5304;-0.0892;0.3896;25.9;6.56;-18.21;-30.24;209.81;8.03;-10.74;5.0;35.958572;-83.9247;816.27;NaN;;833.242;;0 / 3;107006;2022-11-01 17:36:36:025
0.6784;-2.688;10.9232;1.8098;-1.3699;9.5403;1.2102;-0.1018;-0.1667;0.5304;-0.0892;0.3896;22.7;6.56;-18.21;-30.24;209.81;8.03;-10.74;5.0;35.958572;-83.9247;816.27;NaN;;833.242;;0 / 3;107507;2022-11-01 17:36:36:526
1.4192;-1.5808;8.3372;1.8098;-1.3699;9.5403;1.2102;-0.1018;-0.1667;0.5304;-0.0892;0.3896;21.8;6.56;-18.21;-30.24;209.81;8.03;-10.74;5.0;35.958572;-83.9247;816.27;NaN;;833.242;;0 / 3;108006;2022-11-01 17:36:37:025
3.1454;-0.5752;6.9434;1.8098;-1.3699;9.5403;1.2102;-0.1018;-0.1667;0.5304;-0.0892;0.3896;25.9;6.56;-18.21;-30.24;209.81;8.03;-10.74;5.0;35.958572;-83.9247;816.27;NaN;;833.242;;0 / 3;108507;2022-11-01 17:36:37:526
2.112;-1.643;7.9618;1.8098;-1.3699;9.5403;1.2102;-0.1018;-0.1667;0.5304;-0.0892;0.3896;20.8;6.56;-18.21;-30.24;209.81;8.03;-10.74;5.0;35.958572;-83.9247;816.27;NaN;;833.242;;0 / 3;109007;2022-11-01 17:36:38:026
1.4665;-0.5704;13.2197;1.8098;-1.3699;9.5403;1.2102;-0.1018;-0.1667;0.5304;-0.0892;0.3896;20.8;6.56;-18.21;-30.24;209.81;8.03;-10.74;5.0;35.958572;-83.9247;816.27;NaN;;833.242;;0 / 3;109507;2022-11-01 17:36:38:526
2.5947;-2.2729;12.239;1.8098;-1.3699;9.5403;1.2102;-0.1018;-0.1667;0.5304;-0.0892;0.3896;18.0;6.56;-18.21;-30.24;209.81;8.03;-10.74;5.0;35.958572;-83.9247;816.27;NaN;;833.242;;0 / 3;110007;2022-11-01 17:36:39:026
2.2137;-1.9331;8.9318;1.8098;-1.3699;9.5403;1.2102;-0.1018;-0.1667;0.5304;-0.0892;0.3896;22.3;6.56;-18.21;-30.24;209.81;8.03;-10.74;5.0;35.958572;-83.9247;816.27;NaN;;833.242;;0 / 3;110506;2022-11-01 17:36:39:525
1.2975;-0.9245;10.4833;1.8098;-1.3699;9.5403;1.2102;-0.1018;-0.1667;0.5304;-0.0892;0.3896;22.3;6.56;-18.21;-30.24;209.81;8.03;-10.74;5.0;35.958572;-83.9247;816.27;NaN;;833.242;;0 / 3;111006;2022-11-01 17:36:40:025
1.4112;-1.7539;8.6186;1.8098;-1.3699;9.5403;1.2102;-0.1018;-0.1667;0.5304;-0.0892;0.3896;18.0;6.56;-18.21;-30.24;209.81;8.03;-10.74;5.0;35.958572;-83.9247;816.27;NaN;;833.242;;0 / 3;111507;2022-11-01 17:36:40:526
2.7081;-0.542;6.3177;1.8098;-1.3699;9.5403;1.2102;-0.1018;-0.1667;0.5304;-0.0892;0.3896;20.1;6.56;-18.21;-30.24;209.81;8.03;-10.74;5.0;35.958572;-83.9247;816.27;NaN;;833.242;;0 / 3;112007;2022-11-01 17:36:41:026
2.5866;-0.97;11.1781;1.8098;-1.3699;9.5403;1.2102;-0.1018;-0.1667;0.5304;-0.0892;0.3896;14.6;6.56;-18.21;-30.24;209.81;8.03;-10.74;5.0;35.958572;-83.9247;816.27;NaN;;833.242;;0 / 3;112506;2022-11-01 17:36:41:525
1.1079;1.9038;12.2874;1.8098;-1.3699;9.5403;1.2102;-0.1018;-0.1667;0.5304;-0.0892;0.3896;20.7;6.56;-18.21;-30.24;209.81;8.03;-10.74;5.0;35.958572;-83.9247;816.27;NaN;;833.242;;0 / 3;113006;2022-11-01 17:36:42:025
4.1883;0.9359;7.8449;1.8098;-1.3699;9.5403;1.2102;-0.1018;-0.1667;0.5304;-0.0892;0.3896;24.9;6.56;-18.21;-30.24;209.81;8.03;-10.74;5.0;35.958572;-83.9247;816.27;NaN;;833.242;;0 / 3;113506;2022-11-01 17:36:42:525
2.9575;-0.0781;5.7996;1.8098;-1.3699;9.5403;1.2102;-0.1018;-0.1667;0.5304;-0.0892;0.3896;24.9;6.56;-18.21;-30.24;209.81;8.03;-10.74;5.0;35.958572;-83.9247;816.27;NaN;;833.242;;0 / 3;114007;2022-11-01 17:36:43:026
2.1987;-2.7254;10.0977;1.8098;-1.3699;9.5403;1.2102;-0.1018;-0.1667;0.5304;-0.0892;0.3896;28.9;6.56;-18.21;-30.24;209.81;8.03;-10.74;5.0;35.958572;-83.9247;816.27;NaN;;833.242;;0 / 3;114507;2022-11-01 17:36:43:526
0.195;-1.9777;10.005;1.8098;-1.3699;9.5403;1.2102;-0.1018;-0.1667;0.5304;-0.0892;0.3896;16.5;6.56;-18.21;-30.24;209.81;8.03;-10.74;5.0;35.958572;-83.9247;816.27;NaN;;833.242;;0 / 3;115006;2022-11-01 17:36:44:025
-1.3675;-1.0923;11.7712;1.8098;-1.3699;9.5403;1.2102;-0.1018;-0.1667;0.5304;-0.0892;0.3896;18.6;6.56;-18.21;-30.24;209.81;8.03;-10.74;5.0;35.958572;-83.9247;816.27;NaN;;833.242;;0 / 3;115506;2022-11-01 17:36:44:525
2.464;-3.4472;9.9084;1.8098;-1.3699;9.5403;1.2102;-0.1018;-0.1667;0.5304;-0.0892;0.3896;20.9;6.56;-18.21;-30.24;209.81;8.03;-10.74;5.0;35.958572;-83.9247;816.27;NaN;;833.242;;0 / 3;116006;2022-11-01 17:36:45:025
0.9123;-2.409;10.4372;1.8098;-1.3699;9.5403;1.2102;-0.1018;-0.1667;0.5304;-0.0892;0.3896;20.9;6.56;-18.21;-30.24;209.81;8.03;-10.74;5.0;35.958572;-83.9247;816.27;NaN;;833.242;;0 / 3;116507;2022-11-01 17:36:45:526
0.3108;0.1588;7.7856;1.8098;-1.3699;9.5403;1.2102;-0.1018;-0.1667;0.5304;-0.0892;0.3896;17.2;6.56;-18.21;-30.24;209.81;8.03;-10.74;5.0;35.958572;-83.9247;816.27;NaN;;833.242;;0 / 3;117006;2022-11-01 17:36:46:025
-0.0176;-2.5597;12.4101;1.8098;-1.3699;9.5403;1.2102;-0.1018;-0.1667;0.5304;-0.0892;0.3896;15.8;6.56;-18.21;-30.24;209.81;8.03;-10.74;5.0;35.958572;-83.9247;816.27;NaN;;833.242;;0 / 3;117507;2022-11-01 17:36:46:526
1.4354;-2.0503;8.4613;1.8098;-1.3699;9.5403;1.2102;-0.1018;-0.1667;0.5304;-0.0892;0.3896;15.8;6.56;-18.21;-30.24;209.81;8.03;-10.74;5.0;35.958572;-83.9247;816.27;NaN;;833.242;;0 / 3;118007;2022-11-01 17:36:47:026
2.7957;-0.885;9.1962;1.8098;-1.3699;9.5403;1.2102;-0.1018;-0.1667;0.5304;-0.0892;0.3896;21.2;6.56;-18.21;-30.24;209.81;8.03;-10.74;5.0;35.958572;-83.9247;816.27;NaN;;833.242;;0 / 3;118506;2022-11-01 17:36:47:525
2.9309;-1.9277;7.3026;1.8098;-1.3699;9.5403;1.2102;-0.1018;-0.1667;0.5304;-0.0892;0.3896;14.4;6.56;-18.21;-30.24;209.81;8.03;-10.74;5.0;35.958572;-83.9247;816.27;NaN;;833.242;;0 / 3;119006;2022-11-01 17:36:48:025
2.5502;0.2183;6.5249;1.8098;-1.3699;9.5403;1.2102;-0.1018;-0.1667;0.5304;-0.0892;0.3896;19.4;6.56;-18.21;-30.24;209.81;8.03;-10.74;5.0;35.958572;-83.9247;816.27;NaN;;833.242;;0 / 3;119507;2022-11-01 17:36:48:526
3.1196;-1.7115;13.0223;1.8098;-1.3699;9.5403;1.2102;-0.1018;-0.1667;0.5304;-0.0892;0.3896;15.1;6.56;-18.21;-30.24;209.81;8.03;-10.74;5.0;35.958572;-83.9247;816.27;NaN;;833.242;;0 / 3;120007;2022-11-01 17:36:49:026
2.2624;-1.3953;8.7036;1.8098;-1.3699;9.5403;1.2102;-0.1018;-0.1667;0.5304;-0.0892;0.3896;18.6;6.56;-18.21;-30.24;209.81;8.03;-10.74;5.0;35.958572;-83.9247;816.27;NaN;;833.242;;0 / 3;120507;2022-11-01 17:36:49:526
0.8342;-0.1059;12.3521;1.8098;-1.3699;9.5403;1.2102;-0.1018;-0.1667;0.5304;-0.0892;0.3896;15.1;6.56;-18.21;-30.24;209.81;8.03;-10.74;5.0;35.958572;-83.9247;816.27;NaN;;833.242;;0 / 3;121006;2022-11-01 17:36:50:025
1.448;-1.5197;6.4205;1.8098;-1.3699;9.5403;1.2102;-0.1018;-0.1667;0.5304;-0.0892;0.3896;20.7;6.56;-18.21;-30.24;209.81;8.03;-10.74;5.0;35.958572;-83.9247;816.27;NaN;;833.242;;0 / 3;121506;2022-11-01 17:36:50:525
0.3377;0.7636;9.4059;1.8098;-1.3699;9.5403;1.2102;-0.1018;-0.1667;0.5304;-0.0892;0.3896;20.7;6.56;-18.21;-30.24;209.81;8.03;-10.74;5.0;35.958572;-83.9247;816.27;NaN;;833.242;;0 / 3;122006;2022-11-01 17:36:51:025
2.7691;-0.1202;10.3343;1.8098;-1.3699;9.5403;1.2102;-0.1018;-0.1667;0.5304;-0.0892;0.3896;28.8;6.56;-18.21;-30.24;209.81;8.03;-10.74;5.0;35.958572;-83.9247;816.27;NaN;;833.242;;0 / 3;122507;2022-11-01 17:36:51:526
4.3385;0.5892;7.7728;1.8098;-1.3699;9.5403;1.2102;-0.1018;-0.1667;0.5304;-0.0892;0.3896;30.3;6.56;-18.21;-30.24;209.81;8.03;-10.74;5.0;35.958572;-83.9247;816.27;NaN;;833.242;;0 / 3;123007;2022-11-01 17:36:52:026
3.3209;1.0968;8.3904;1.8098;-1.3699;9.5403;1.2102;-0.1018;-0.1667;0.5304;-0.0892;0.3896;29.4;6.56;-18.21;-30.24;209.81;8.03;-10.74;5.0;35.958572;-83.9247;816.27;NaN;;833.242;;0 / 3;123507;2022-11-01 17:36:52:526
0.6144;1.8266;9.3446;1.8098;-1.3699;9.5403;1.2102;-0.1018;-0.1667;0.5304;-0.0892;0.3896;44.3;6.56;-18.21;-30.24;209.81;8.03;-10.74;5.0;35.958572;-83.9247;816.27;NaN;;833.242;;0 / 3;124007;2022-11-01 17:36:53:026
-4.06;3.8755;8.8232;1.8098;-1.3699;9.5403;1.2102;-0.1018;-0.1667;0.5304;-0.0892;0.3896;25.2;6.56;-18.21;-30.24;209.81;8.03;-10.74;5.0;35.958572;-83.9247;816.27;NaN;;833.242;;0 / 3;124507;2022-11-01 17:36:53:526
-2.6306;1.6083;10.3101;1.8098;-1.3699;9.5403;1.2102;-0.1018;-0.1667;0.5304;-0.0892;0.3896;35.9;6.56;-18.21;-30.24;209.81;8.03;-10.74;5.0;35.958572;-83.9247;816.27;NaN;;833.242;;0 / 3;125007;2022-11-01 17:36:54:026
-1.0241;3.0162;9.137;1.8098;-1.3699;9.5403;1.2102;-0.1018;-0.1667;0.5304;-0.0892;0.3896;44.5;6.56;-18.21;-30.24;209.81;8.03;-10.74;5.0;35.958572;-83.9247;816.27;NaN;;833.242;;0 / 3;125506;2022-11-01 17:36:54:525
-0.6245;3.1525;7.7339;1.8098;-1.3699;9.5403;1.2102;-0.1018;-0.1667;0.5304;-0.0892;0.3896;52.2;6.56;-18.21;-30.24;209.81;8.03;-10.74;5.0;35.958572;-83.9247;816.27;NaN;;833.242;;0 / 3;126007;2022-11-01 17:36:55:026
-4.9193;4.3519;7.6597;-4.3084;4.6913;7.4565;-0.6024;0.155;-0.1279;0.0044;-0.0993;-0.4711;52.2;32.57;-16.22;-2.19;259.34;-29.47;28.72;2.0;35.958572;-83.9247;816.27;NaN;;833.242;;0 / 3;126506;2022-11-01 17:36:55:525