sep=;
ACCELEROMETER X (m/s²);ACCELEROMETER Y (m/s²);ACCELEROMETER Z (m/s²);GRAVITY X (m/s²);GRAVITY Y (m/s²);GRAVITY Z (m/s²);LINEAR ACCELERATION X (m/s²);LINEAR ACCELERATION Y (m/s²);LINEAR ACCELERATION Z (m/s²);GYROSCOPE X (rad/s);GYROSCOPE Y (rad/s);GYROSCOPE Z (rad/s);LIGHT (lux);MAGNETIC FIELD X (μT);MAGNETIC FIELD Y (μT);MAGNETIC FIELD Z (μT);ORIENTATION Z (azimuth °);ORIENTATION X (pitch °);ORIENTATION Y (roll °);PROXIMITY (i);LOCATION Latitude : ;LOCATION Longitude : ;LOCATION Altitude ( m);LOCATION Altitude-google ( m);LOCATION Speed ( Kmh);LOCATION Accuracy ( m);LOCATION ORIENTATION (°);Satellites in range;Time since start in ms ;YYYY-MO-DD HH-MI-SS_SSS
-0.2886;3.3015;9.3368;-1.1001;4.1621;8.8112;0.3908;-0.6938;0.4361;-0.1339;-0.1141;0.1604;97.8;42.02;-15.06;-19.01;265.1;-25.11;7.12;5.0;35.958256;-83.92469;;NaN;;794.83875;;0 / 5;4;2022-11-09 17:13:23:508
-0.5022;3.4469;8.4449;-0.8828;4.0915;8.8685;0.0114;-0.1944;-0.2488;0.0385;0.1053;-0.0186;76.8;35.14;-9.53;-20.27;270.85;-24.44;5.38;5.0;35.958256;-83.92469;;NaN;;794.83875;;0 / 6;504;2022-11-09 17:13:24:008
-1.2948;3.7798;8.7203;-1.0707;3.4447;9.1191;0.2819;0.6716;-0.7907;-0.0095;0.0605;-0.002;66.1;35.18;-8.85;-19.65;270.85;-21.5;7.06;5.0;35.958256;-83.92469;;NaN;;794.83875;;0 / 6;1004;2022-11-09 17:13:24:508
-2.3148;2.5277;11.3345;-0.9647;3.4046;9.1459;-0.1093;0.5325;1.0069;-0.3112;-0.2167;-0.2268;66.1;39.15;-6.84;-18.24;271.66;-20.31;6.02;5.0;35.958256;-83.92469;;NaN;;794.83875;;0 / 7;1505;2022-11-09 17:13:25:009
-0.9021;2.7861;8.2176;-0.8628;3.2895;9.1981;-0.0631;-0.0435;-1.4351;0.2853;0.0759;-0.0073;66.1;44.48;-4.71;-15.88;272.29;-19.01;4.94;5.0;35.95843;-83.9245;701.38;NaN;0.0;207.25357;;0 / 7;2004;2022-11-09 17:13:25:508
-0.7633;3.4612;7.5425;-1.3753;3.588;9.0225;0.6256;-0.3457;0.1664;0.1141;0.0995;0.0773;59.7;50.01;-5.81;-10.29;270.94;-21.46;8.67;5.0;35.95843;-83.9245;701.38;NaN;0.0;207.25357;;0 / 7;2505;2022-11-09 17:13:26:009
-1.4934;3.6553;9.7546;-1.2932;2.7021;9.3379;-0.1298;0.568;-0.0617;0.0342;0.1852;-0.0056;47.3;3.64;2.79;-67.97;12.34;-15.83;7.31;5.0;35.95843;-83.9245;701.38;NaN;0.0;207.25357;;0 / 7;3004;2022-11-09 17:13:26:508
-0.5668;3.2219;11.1096;-0.912;3.1582;9.2393;0.5345;-0.1615;1.6906;-1.0668;0.1919;-0.3232;34.8;-1.82;1.82;-69.75;17.91;-20.91;5.44;5.0;35.95843;-83.9245;701.38;NaN;0.0;207.25357;;1 / 7;3505;2022-11-09 17:13:27:009
-0.1816;3.0736;14.648;-0.02;2.7688;9.4076;-0.0264;-0.173;5.0058;-0.1745;-0.3292;-0.1235;26.5;-8.38;5.85;-70.67;17.53;-16.4;0.12;5.0;35.95843;-83.9245;701.38;NaN;0.0;207.25357;;1 / 7;4004;2022-11-09 17:13:27:508
-0.4615;3.9544;10.1877;-0.3912;3.7456;9.0547;-0.195;0.1233;0.8838;-0.0468;-0.3786;-0.2805;23.6;-13.29;1.35;-70.5;30.94;-22.22;2.69;5.0;35.95843;-83.9245;701.38;NaN;0.0;207.25357;;1 / 7;4505;2022-11-09 17:13:28:009
-1.0768;4.0454;9.283;-0.7277;3.8583;8.9864;-0.3668;0.2552;0.698;0.0093;0.0447;0.3115;23.6;-14.51;0.43;-71.79;37.02;-23.34;4.87;5.0;35.95843;-83.9245;701.38;NaN;0.0;207.25357;;1 / 7;5004;2022-11-09 17:13:28:508
-0.5859;2.8938;6.0604;-0.0243;3.309;9.2315;-0.5138;-0.7744;-2.9001;-0.0661;0.0618;-0.2151;17.6;-19.28;3.84;-70.11;34.56;-19.72;-0.11;5.0;35.95843;-83.9245;701.38;NaN;0.0;207.25357;;0 / 9;5505;2022-11-09 17:13:29:009
-1.3355;1.6322;7.6262;-0.9059;2.106;9.5349;-0.3472;-0.6226;-1.8278;0.6143;0.0569;0.4648;14.7;-18.58;8.83;-72.28;47.23;-12.4;5.43;5.0;35.95843;-83.9245;701.38;NaN;0.0;207.25357;;0 / 9;6004;2022-11-09 17:13:29:508
-1.0026;2.6713;6.9846;-0.0136;2.0604;9.5877;-1.008;0.6021;-2.7477;0.0909;-0.0048;-0.1736;16.8;-24.71;12.43;-68.76;43.94;-11.81;-0.06;5.0;35.95843;-83.9245;701.38;NaN;0.0;207.25357;;2 / 10;6504;2022-11-09 17:13:30:008
-0.0162;2.2881;11.6243;-1.1278;1.7416;9.5846;-0.0183;0.3424;2.9766;0.1252;0.3788;1.6676;13.5;-28.41;11.23;-71.4;57.77;-10.23;6.71;5.0;35.95843;-83.9245;701.38;NaN;0.0;207.25357;;2 / 10;7004;2022-11-09 17:13:30:508
0.3834;1.0146;15.5985;0.0394;3.0191;9.3303;0.6431;-1.8817;6.564;-0.0654;-0.9364;0.692;18.9;-25.74;15.43;-76.46;37.02;-18.95;2.31;5.0;35.95843;-83.9245;701.38;NaN;0.0;207.25357;;3 / 10;7505;2022-11-09 17:13:31:009
-0.3682;3.478;7.2096;-0.1118;3.2677;9.2455;-0.4407;-0.5559;-0.7831;0.5427;0.3519;0.678;37.3;-15.51;21.99;-77.27;20.16;-18.56;0.47;5.0;35.95843;-83.9245;701.38;NaN;0.0;207.25357;;3 / 10;8004;2022-11-09 17:13:31:508
-0.6652;2.6737;7.2574;-0.2528;3.3416;9.2163;-0.2452;-0.694;-2.7963;-0.2873;0.4093;0.5106;42.8;-0.58;16.41;-79.97;3.84;-20.05;1.33;5.0;35.95843;-83.9245;701.38;NaN;0.0;207.25357;;3 / 10;8504;2022-11-09 17:13:32:008
-0.6341;2.7718;11.1718;-0.4122;3.3602;9.2038;-0.1859;-0.6511;2.1103;-1.0219;-0.2504;0.2168;48.1;8.33;5.94;-76.48;351.78;-20.04;2.56;5.0;35.95843;-83.9245;701.38;NaN;0.0;207.25357;;3 / 10;9005;2022-11-09 17:13:32:509
-2.0441;3.253;7.2359;-0.4102;3.3217;9.2179;-1.6385;-0.0388;-2.1601;-0.1626;0.2255;0.5876;54.3;6.0;3.75;-76.82;354.25;-19.93;2.21;5.0;35.95843;-83.9245;701.38;NaN;0.0;207.25357;;3 / 10;9505;2022-11-09 17:13:33:009
-0.4807;2.5229;7.3173;-0.2682;3.4181;9.1878;-0.1832;-0.925;-1.9366;0.2349;0.3593;0.5992;48.8;6.84;-2.55;-77.76;348.09;-19.96;1.44;5.0;35.95843;-83.9245;701.38;NaN;0.0;207.25357;;3 / 10;10004;2022-11-09 17:13:33:508
-0.0667;2.7909;9.9748;0.3127;3.5292;9.1443;-0.4918;-0.3632;0.3573;-0.7452;0.3263;0.6719;42.5;8.94;-10.59;-72.23;325.51;-22.19;-2.07;5.0;35.95843;-83.9245;701.38;NaN;0.0;207.25357;;3 / 10;10504;2022-11-09 17:13:34:008
-0.8112;1.6059;10.6977;-0.2342;2.4486;9.4932;-0.2594;-0.9493;1.7258;-0.0573;0.6745;0.0696;31.0;19.78;-20.38;-69.77;266.48;-14.97;0.72;5.0;35.95843;-83.9245;701.38;NaN;0.0;207.25357;;3 / 10;11004;2022-11-09 17:13:34:508
0.2949;2.135;11.9788;-0.013;2.8941;9.3699;0.3695;-1.2375;2.7885;-0.1876;-0.2852;0.6059;25.7;16.16;-22.42;-69.37;268.84;-17.39;0.75;5.0;35.95843;-83.9245;701.38;NaN;0.0;207.25357;;3 / 10;11504;2022-11-09 17:13:35:008
-0.2725;2.2355;8.3707;-0.4824;3.1439;9.2765;0.2493;-0.9742;-0.9282;0.0486;0.0208;-0.286;12.6;13.59;-20.78;-71.23;286.62;-18.7;2.98;5.0;35.95843;-83.9245;701.38;NaN;0.0;207.25357;;3 / 10;12004;2022-11-09 17:13:35:508
-0.7178;2.9803;6.8865;-0.6761;3.356;9.1897;-0.0421;-0.3953;-2.3706;-0.1271;0.4662;-0.1546;12.6;21.98;-16.29;-83.64;310.04;-20.2;3.31;5.0;35.95843;-83.9245;701.38;NaN;0.0;207.25357;;2 / 10;12505;2022-11-09 17:13:36:009
-0.5955;3.9449;7.9756;-0.2443;3.2898;9.2352;-0.6202;0.5522;-0.2118;0.1594;0.1656;0.2125;12.6;31.16;-11.98;-103.07;309.75;-19.6;1.52;5.0;35.95843;-83.9245;701.38;NaN;0.0;207.25357;;2 / 10;13004;2022-11-09 17:13:36:508
1.5135;3.7343;10.4369;0.5172;3.9257;8.9717;0.0619;1.1645;0.8005;-1.4394;1.0703;0.3713;12.6;32.48;-14.06;-123.3;312.49;-25.66;-5.1;5.0;35.95843;-83.9245;701.38;NaN;0.0;207.25357;;2 / 10;13504;2022-11-09 17:13:37:008
0.8432;3.411;11.9501;0.0124;3.804;9.0388;0.8164;-0.3174;2.8562;-0.8175;-0.4098;-0.1571;12.6;34.52;-16.03;-136.74;320.89;-24.02;0.59;5.0;35.95843;-83.9245;701.38;NaN;0.0;207.25357;;2 / 10;14005;2022-11-09 17:13:37:509
-2.5277;4.1844;7.3125;-0.4077;3.5938;9.1153;-1.3041;0.1956;-2.8748;-0.0218;0.1326;-0.5217;14.4;36.09;-8.59;-168.36;332.09;-21.5;2.56;5.0;35.95843;-83.9245;701.38;NaN;0.0;207.25357;;2 / 10;14504;2022-11-09 17:13:38:008
-0.792;2.3985;7.4898;-1.1621;2.8441;9.3129;0.2843;-0.4011;-1.4119;0.2492;0.0483;0.149;17.5;36.26;-8.33;-187.67;345.4;-16.58;7.18;5.0;35.95843;-83.9245;701.38;NaN;0.0;207.25357;;2 / 10;15005;2022-11-09 17:13:38:509
-1.8526;1.6777;8.0429;-1.0558;2.7431;9.3558;-0.7053;-1.0415;-1.4149;0.5246;-0.2889;0.1166;14.9;35.59;-7.14;-188.33;343.51;-15.24;6.99;5.0;35.958347;-83.92447;738.44;NaN;0.0;52.66798;;1 / 11;15512;2022-11-09 17:13:39:016
-0.8279;2.9321;6.9081;-1.331;3.0425;9.2272;0.6162;-0.0506;-2.4699;-0.2468;0.3391;-0.1216;19.3;29.23;-17.27;-189.22;355.41;-18.34;7.67;5.0;35.958347;-83.92447;738.44;NaN;0.0;52.66798;;1 / 11;16005;2022-11-09 17:13:39:509
-1.2494;3.7247;7.643;-0.4783;2.0047;9.5876;-0.7171;1.6241;-1.8144;0.3096;0.2664;-0.275;16.0;15.6;-19.8;-195.66;343.21;-11.8;2.86;5.0;35.958347;-83.92447;738.44;NaN;0.0;52.66798;;2 / 11;16505;2022-11-09 17:13:40:009
-2.269;-0.0963;14.1574;-2.0252;2.3183;9.311;-1.6253;-2.6142;6.9682;0.2866;0.526;2.3725;22.3;11.79;-25.33;-199.76;55.1;-13.0;11.76;5.0;35.958347;-83.92447;738.44;NaN;0.0;52.66798;;2 / 11;17005;2022-11-09 17:13:40:509
-2.4296;5.1299;10.657;-1.1178;3.4135;9.1252;-1.425;1.8607;0.7673;0.1439;-0.86;0.2296;27.7;-9.04;-23.55;-215.49;34.31;-20.37;6.98;5.0;35.958347;-83.92447;738.44;NaN;0.0;52.66798;;2 / 11;17505;2022-11-09 17:13:41:009
-1.2757;2.4679;9.3356;0.1062;3.0408;9.3227;-1.6725;-0.9705;0.11;-0.01;0.636;0.4843;62.5;-12.9;-21.37;-227.02;9.09;-17.91;-1.27;5.0;35.958347;-83.92447;738.44;NaN;0.0;52.66798;;2 / 11;18005;2022-11-09 17:13:41:509
-0.7944;2.6785;8.6366;0.2482;3.0117;9.3294;-1.0503;-0.2728;-0.9019;-0.3384;0.1913;0.9498;78.8;-17.79;-41.66;-223.22;22.15;-18.55;-1.36;5.0;35.958347;-83.92447;738.44;NaN;0.0;52.66798;;2 / 11;18506;2022-11-09 17:13:42:010
-1.625;0.1528;9.714;0.8399;3.5177;9.1154;-2.8106;-3.686;0.3793;0.0517;0.5254;1.3145;64.5;-29.1;-46.95;-211.74;16.03;-21.02;-5.26;5.0;35.958347;-83.92447;738.44;NaN;0.0;52.66798;;2 / 11;19004;2022-11-09 17:13:42:508
0.9126;0.8806;12.3568;0.9505;2.1592;9.5186;0.0033;-1.3058;3.0337;0.3021;0.4949;0.5222;64.5;-34.18;-34.28;-212.64;39.46;-12.35;-6.26;5.0;35.958347;-83.92447;738.44;NaN;0.0;52.66798;;2 / 11;19504;2022-11-09 17:13:43:008
0.6589;1.7806;8.2702;0.5875;2.9601;9.3308;-0.2521;-0.8457;-1.495;0.1103;0.3177;0.6541;57.7;-27.6;-31.44;-208.46;23.86;-17.57;-3.6;5.0;35.958347;-83.92447;738.44;NaN;0.0;52.66798;;2 / 11;20005;2022-11-09 17:13:43:509
-0.4831;1.9053;7.9564;0.799;2.7074;9.3916;-1.2985;-0.8245;-1.4487;0.2685;-0.3414;-0.1015;57.7;-26.06;-25.86;-204.92;14.92;-16.03;-4.86;5.0;35.958347;-83.92447;738.44;NaN;0.0;52.66798;;2 / 11;20505;2022-11-09 17:13:44:009
0.393;2.5421;6.8794;0.1407;2.0355;9.592;0.3057;0.5438;-2.4005;0.8991;-0.6212;-0.2108;49.0;-18.9;-21.9;-204.43;37.48;-11.98;-0.84;5.0;35.958347;-83.92447;738.44;NaN;0.0;52.66798;;2 / 11;21005;2022-11-09 17:13:44:509
0.1585;2.1589;11.8205;0.355;2.6346;9.4395;-0.1472;-0.5088;2.292;-0.5745;-0.1899;0.1697;49.0;-19.86;-20.51;-199.07;20.53;-15.58;-2.15;5.0;35.958347;-83.92447;738.44;NaN;0.0;52.66798;;2 / 11;21505;2022-11-09 17:13:45:009
2.5262;2.1685;12.9841;0.3043;2.7855;9.3978;1.0023;0.291;2.6701;-0.7689;-0.4721;0.138;34.7;-19.14;-16.11;-197.38;17.89;-17.24;-1.47;5.0;35.958347;-83.92447;738.44;NaN;0.0;52.66798;;2 / 11;22004;2022-11-09 17:13:45:508
-0.5022;2.5158;6.6278;-0.3488;2.5912;9.4517;-0.2158;-0.0897;-2.7382;0.7988;-0.3878;0.2504;29.2;-14.63;-9.79;-199.95;27.47;-15.32;2.11;5.0;35.958347;-83.92447;738.44;NaN;0.0;52.66798;;1 / 11;22505;2022-11-09 17:13:46:009
0.1609;1.9986;7.8583;0.3252;2.7123;9.4185;-0.2979;-0.8296;-0.8664;0.9788;-0.5051;-0.1204;23.0;-16.39;-8.78;-198.04;14.98;-14.68;-1.41;5.0;35.958347;-83.92447;738.44;NaN;0.0;52.66798;;1 / 11;23004;2022-11-09 17:13:46:508
-0.6245;2.7168;7.43;-0.3681;2.2754;9.5319;-0.2506;0.3961;-2.1593;0.294;0.1925;0.1258;20.1;-16.93;-5.04;-199.18;30.96;-13.0;1.97;5.0;35.958347;-83.92447;738.44;NaN;0.0;52.66798;;2 / 11;23505;2022-11-09 17:13:47:009
-0.9715;3.0712;7.6071;0.2242;2.0646;9.5842;-1.2158;0.7649;-1.4328;-0.1913;-0.2577;-0.2377;19.3;-21.67;-6.24;-197.79;25.8;-12.15;-1.34;5.0;35.958347;-83.92447;738.44;NaN;0.0;52.66798;;2 / 11;24004;2022-11-09 17:13:47:508
1.5135;2.8029;9.3643;-0.6811;1.8953;9.5976;1.9069;1.0797;-1.2088;0.3078;-0.0128;1.4006;16.5;-22.44;-5.34;-200.81;51.83;-10.35;4.9;5.0;35.958347;-83.92447;738.44;NaN;0.0;52.66798;;1 / 11;24504;2022-11-09 17:13:48:008
0.1705;2.0512;13.2021;0.1152;2.4406;9.4974;0.1529;-0.5487;3.8562;-0.2617;0.1045;-0.1284;14.1;-27.94;1.84;-201.51;26.04;-14.41;-0.69;5.0;35.958347;-83.92447;738.44;NaN;0.0;52.66798;;1 / 11;25004;2022-11-09 17:13:48:508
0.5198;3.1884;11.7631;0.2694;3.275;9.2397;0.8589;-0.4329;3.4353;-0.2736;-0.3896;0.4006;14.1;-30.99;-3.41;-196.71;23.19;-20.08;-0.92;5.0;35.958347;-83.92447;738.44;NaN;0.0;52.66798;;1 / 11;25505;2022-11-09 17:13:49:009
-0.5022;2.7072;9.216;-1.2591;2.5448;9.3867;0.8044;0.1513;-0.2508;-0.3621;0.3831;0.4984;17.6;-22.41;14.63;-198.49;36.66;-15.04;7.64;5.0;35.958347;-83.92447;738.44;NaN;0.0;52.66798;;1 / 11;26005;2022-11-09 17:13:49:509
-0.6341;1.5389;10.2885;0.2917;2.4068;9.5022;-0.5109;-1.0414;0.4768;-0.1247;0.2817;0.0977;33.3;-21.06;31.52;-186.21;11.25;-14.21;-1.76;5.0;35.958347;-83.92447;738.44;NaN;0.0;52.66798;;2 / 11;26504;2022-11-09 17:13:50:008
0.4289;1.8957;6.7929;0.1805;3.3474;9.2159;0.2771;-1.5375;-2.5295;0.3464;-0.0054;0.1264;43.0;-7.95;45.28;-186.47;2.19;-19.66;-1.22;5.0;35.958347;-83.92447;738.44;NaN;0.0;52.66798;;2 / 11;27005;2022-11-09 17:13:50:509
-0.6245;1.6131;9.4911;-0.0028;3.0429;9.3226;-0.5031;-1.8358;0.6865;0.1351;0.8766;1.392;43.0;18.53;50.79;-180.66;348.7;-18.03;-0.59;5.0;35.958347;-83.92447;738.44;NaN;0.0;52.66798;;2 / 12;27504;2022-11-09 17:13:51:008
-0.4184;1.4049;9.7403;0.5064;2.3215;9.5144;-1.0657;-0.8586;-0.3534;0.9788;-0.0842;-0.1125;49.4;36.32;31.56;-171.43;325.68;-11.76;-3.0;5.0;35.958347;-83.92447;738.44;NaN;0.0;52.66798;;2 / 12;28004;2022-11-09 17:13:51:508
0.1466;2.8268;7.7172;-1.3903;2.3041;9.4302;1.9038;0.3035;-1.2223;0.1943;-0.207;0.8588;49.4;31.91;14.87;-164.89;352.7;-12.88;8.7;5.0;35.958347;-83.92447;738.44;NaN;0.0;52.66798;;3 / 12;28504;2022-11-09 17:13:52:008
1.6283;-1.0516;18.9096;0.5172;2.2547;9.5299;1.2881;-3.2157;9.22;-0.1758;-1.5882;0.6627;40.3;23.21;-0.21;-167.25;331.04;-14.18;0.12;5.0;35.958347;-83.92447;738.44;NaN;0.0;52.66798;;3 / 12;29004;2022-11-09 17:13:52:508
-0.1696;2.0489;9.6491;0.3348;2.1979;9.5513;-0.4966;-0.1657;0.0175;0.0436;0.1797;0.072;31.7;12.98;-11.31;-168.49;323.29;-12.88;-2.33;5.0;35.958347;-83.92447;738.44;NaN;0.0;52.66798;;3 / 12;29505;2022-11-09 17:13:53:009
-1.0528;2.6354;8.2391;0.1292;2.233;9.5482;-0.8992;0.2179;-1.4083;-0.1277;0.1736;0.1575;13.0;9.68;-15.54;-169.95;331.96;-13.16;-0.78;5.0;35.958347;-83.92447;738.44;NaN;0.0;52.66798;;3 / 12;30005;2022-11-09 17:13:53:509
0.9748;1.9675;12.8213;0.4546;1.9243;9.6052;0.679;0.1481;2.9037;-0.5266;0.603;0.1551;19.8;-1.86;-11.77;-172.5;344.4;-11.32;-2.71;5.0;35.958347;-83.92447;738.44;NaN;0.0;52.66798;;2 / 11;30505;2022-11-09 17:13:54:009
1.1139;3.684;8.4185;1.6077;2.6238;9.3114;0.2894;0.7904;0.1907;0.3433;-0.2546;-0.4808;12.8;1.24;-7.56;-173.68;321.26;-15.52;-9.8;5.0;35.958347;-83.92447;738.44;NaN;0.0;52.66798;;2 / 11;31005;2022-11-09 17:13:54:509
-0.0858;2.2881;11.0043;-0.1974;2.2348;9.5466;0.1472;0.0367;1.5347;-0.0337;0.2273;0.1068;16.2;8.53;-1.82;-176.68;352.09;-13.17;1.18;5.0;35.958347;-83.92447;738.44;NaN;0.0;52.66798;;3 / 11;31505;2022-11-09 17:13:55:009
-0.2797;2.2738;5.8762;0.466;3.2311;9.2474;-0.711;-0.9186;-3.2017;0.3165;-0.0714;-0.3635;12.1;12.49;2.76;-177.21;340.62;-18.42;-2.78;5.0;35.958347;-83.92447;738.44;NaN;0.0;52.66798;;3 / 11;32005;2022-11-09 17:13:55:509
-1.9986;2.281;7.7913;-1.6491;2.4268;9.3574;-0.2726;-0.1743;-1.5466;0.1819;-0.3634;0.367;17.1;18.99;4.29;-175.54;16.93;-13.9;10.72;5.0;35.958347;-83.92447;738.44;NaN;0.0;52.66798;;3 / 11;32504;2022-11-09 17:13:56:008
-1.0576;1.8718;8.141;-0.6355;2.6366;9.4242;-0.4217;-0.729;-1.3627;0.5987;-0.5253;0.2302;12.4;16.22;0.17;-177.09;357.23;-14.81;4.46;5.0;35.958347;-83.92447;738.44;NaN;0.0;52.66798;;3 / 11;33004;2022-11-09 17:13:56:508
0.216;2.9827;5.5696;-0.4348;2.8529;9.3724;0.5909;0.1036;-3.9223;0.2193;0.0239;0.0543;12.4;10.05;-4.33;-179.42;358.12;-16.4;2.71;5.0;35.958347;-83.92447;738.44;NaN;0.0;52.66798;;2 / 11;33505;2022-11-09 17:13:57:009
-1.0624;3.3272;6.1083;-0.3904;2.3835;9.5046;-0.6935;0.9985;-3.4366;0.0062;-0.2412;0.1343;15.6;6.58;-8.53;-181.26;0.65;-13.71;2.34;5.0;35.958347;-83.92447;738.44;NaN;0.0;52.66798;;2 / 11;34005;2022-11-09 17:13:57:509
0.7451;3.2076;7.6286;-1.1695;2.7632;9.3364;1.9673;0.394;-2.1601;0.9147;-0.0561;1.2638;17.8;5.38;-14.33;-183.36;31.52;-14.47;7.71;5.0;35.958347;-83.92447;738.44;NaN;0.0;52.66798;;1 / 11;34504;2022-11-09 17:13:58:008
-0.2151;3.7989;9.8647;-0.3187;3.0266;9.3225;0.0799;0.8756;0.2061;-1.1029;0.0037;-0.3568;15.4;-5.51;-21.24;-184.26;18.5;-17.98;1.96;5.0;35.958347;-83.92447;738.44;NaN;0.0;52.66798;;1 / 11;35005;2022-11-09 17:13:58:509
2.7583;0.2318;16.2616;0.3234;2.971;9.3402;2.3549;-2.7612;6.9218;-1.3453;0.5926;1.1257;22.5;-28.82;-26.34;-187.58;29.97;-20.11;-1.72;5.0;35.958347;-83.92447;738.44;NaN;0.0;52.66798;;1 / 10;35504;2022-11-09 17:13:59:008
1.3723;2.9441;13.3505;0.2287;2.9262;9.3571;0.9959;0.5614;3.1683;-0.8481;-0.6761;0.8295;67.4;-47.49;-12.38;-197.1;42.16;-18.79;0.04;5.0;35.958347;-83.92447;738.44;NaN;0.0;52.66798;;1 / 10;36005;2022-11-09 17:13:59:509
-1.4982;3.1406;11.8517;0.0935;2.5599;9.4662;-1.4742;0.5715;2.3595;-0.1371;-0.5668;0.386;67.4;-45.73;1.13;-200.34;41.75;-15.35;0.57;5.0;35.958347;-83.92447;738.44;NaN;0.0;52.66798;;1 / 10;36505;2022-11-09 17:14:00:009
-0.9069;0.7992;10.2933;0.7178;2.0682;9.5592;-1.7023;-1.3184;0.7591;0.1003;0.4894;2.1716;77.2;-25.29;10.99;-199.69;10.81;-12.51;-4.17;5.0;35.958347;-83.92447;738.44;NaN;0.0;52.66798;;1 / 10;37004;2022-11-09 17:14:00:508
-0.7872;1.1677;9.1442;0.3769;2.4011;9.5007;-1.144;-1.3226;-0.2483;0.1408;0.7123;0.2113;69.0;7.71;11.63;-197.29;345.19;-14.17;-2.27;5.0;35.958347;-83.92447;738.44;NaN;0.0;52.66798;;1 / 10;37505;2022-11-09 17:14:01:009
-0.8686;3.1932;9.7714;-0.2701;3.142;9.2857;-0.6455;0.2244;1.0716;0.1115;-0.1984;-0.3599;47.7;19.35;6.11;-191.62;348.97;-18.28;1.82;5.0;35.958347;-83.92447;738.44;NaN;0.0;52.66798;;1 / 10;38005;2022-11-09 17:14:01:509
-1.9053;3.186;8.6581;-1.4596;3.0024;9.2209;-0.5328;0.5296;-0.1556;0.3315;-0.0201;0.3414;47.7;24.99;4.52;-184.82;4.48;-17.16;9.14;5.0;35.958347;-83.92447;738.44;NaN;0.0;52.66798;;1 / 10;38504;2022-11-09 17:14:02:008
-1.381;2.4464;6.137;-0.2092;3.1847;9.2728;-1.1097;-0.7699;-3.1831;-0.0137;0.0514;-0.3452;35.5;18.71;-0.75;-184.58;345.96;-18.95;1.29;5.0;35.958347;-83.92447;738.44;NaN;0.0;52.66798;;1 / 10;39005;2022-11-09 17:14:02:509
-1.0863;1.946;6.7116;-0.9486;3.0666;9.2664;-0.1887;-1.1645;-2.238;0.0529;-0.0854;0.1545;22.3;16.39;-0.13;-186.94;3.05;-18.22;5.84;5.0;35.958347;-83.92447;738.44;NaN;0.0;52.66798;;2 / 10;39505;2022-11-09 17:14:03:009
-0.2198;1.8117;6.3694;0.1232;2.8663;9.3776;-0.4087;-1.027;-2.9982;0.2317;-0.6089;-0.2163;17.0;9.88;2.19;-193.67;351.39;-16.26;0.44;5.0;35.958347;-83.92447;738.44;NaN;0.0;52.66798;;2 / 10;40005;2022-11-09 17:14:03:509
0.9676;1.7016;5.3806;0.6096;2.8255;9.371;0.2929;-1.1343;-3.7314;-0.1527;0.0752;-0.1803;14.7;4.24;3.92;-199.01;343.72;-16.93;-4.03;5.0;35.958347;-83.92447;738.44;NaN;0.0;52.66798;;3 / 10;40506;2022-11-09 17:14:04:010
-0.2629;1.4432;6.1298;0.5362;1.9397;9.5979;-0.8994;-0.4396;-2.8782;0.782;-0.4794;-0.1058;14.7;-0.45;8.87;-204.21;346.96;-11.41;-3.2;5.0;35.958347;-83.92447;738.44;NaN;0.0;52.66798;;3 / 10;41005;2022-11-09 17:14:04:509
-0.2581;2.0632;6.0724;-0.1937;2.2142;9.5514;-0.0513;-0.2524;-3.4721;0.3389;0.5987;0.1361;14.7;-2.36;5.91;-207.38;2.77;-12.64;0.13;5.0;35.958347;-83.92447;738.44;NaN;0.0;52.66798;;2 / 10;41504;2022-11-09 17:14:05:008
-0.5812;1.8622;6.082;-0.1388;2.0875;9.5809;-0.4876;-0.2617;-3.5532;0.7458;-0.273;0.1624;12.7;-4.03;6.6;-206.14;7.85;-12.29;0.83;5.0;35.958347;-83.92447;738.44;NaN;0.0;52.66798;;2 / 10;42005;2022-11-09 17:14:05:509
1.0947;3.186;6.8312;0.3681;3.3086;9.2243;0.7228;-0.119;-2.4738;0.0853;0.1852;0.4849;15.1;-6.41;1.58;-206.17;358.22;-19.58;-2.28;5.0;35.958347;-83.92447;738.44;NaN;0.0;52.66798;;2 / 10;42505;2022-11-09 17:14:06:009
-1.5437;3.8874;6.9081;-0.6698;2.794;9.3763;-0.8044;0.9892;-2.6688;0.2106;0.1766;0.7116;14.9;-3.54;5.91;-206.59;16.23;-15.85;3.9;5.0;35.958347;-83.92447;738.44;NaN;0.0;52.66798;;2 / 10;43004;2022-11-09 17:14:06:508
0.3691;2.3791;15.5339;-0.3548;2.853;9.3758;0.8676;-0.4356;5.8288;-0.787;0.1155;0.3194;18.9;-5.08;2.48;-209.98;10.87;-18.37;2.2;5.0;35.958347;-83.92447;738.44;NaN;0.0;52.66798;;2 / 10;43505;2022-11-09 17:14:07:009
-2.1111;2.7239;10.6427;0.0859;3.4091;9.1946;-2.1874;-0.6876;1.5282;-0.0412;0.5071;1.1819;38.6;0.96;-3.79;-214.52;357.57;-20.34;-0.54;5.0;35.958347;-83.92447;738.44;NaN;0.0;52.66798;;2 / 10;44005;2022-11-09 17:14:07:509
0.0437;0.8542;10.7671;-0.1444;1.9209;9.6156;0.3078;-1.0511;1.2564;-1.0493;0.1387;0.0952;49.1;6.49;-4.78;-217.48;354.01;-12.87;0.38;5.0;35.958347;-83.92447;738.44;NaN;0.0;52.66798;;2 / 10;44504;2022-11-09 17:14:08:008
-0.7944;1.3738;7.995;-0.3279;1.1188;9.7371;-0.4452;0.2523;-1.7921;0.0903;0.3281;0.6816;57.5;8.64;-2.48;-217.46;355.75;-6.55;1.93;5.0;35.958347;-83.92447;738.44;NaN;0.0;52.66798;;2 / 10;45004;2022-11-09 17:14:08:508
-0.7705;1.8284;7.6238;-0.3463;0.5461;9.7853;-0.5083;1.2244;-2.37;0.0754;0.0337;-0.1314;64.1;7.03;-4.03;-214.61;1.19;-3.1;1.91;5.0;35.958347;-83.92447;738.44;NaN;0.0;52.66798;;1 / 10;45504;2022-11-09 17:14:09:008
0.1777;2.3169;6.8913;0.6849;0.8309;9.7473;-0.4654;1.8005;-3.7951;-0.3066;-0.5625;1.1782;46.2;4.91;-7.99;-213.58;296.78;-4.86;-4.02;5.0;35.958347;-83.92447;738.44;NaN;0.0;52.66798;;1 / 10;46005;2022-11-09 17:14:09:509
0.5489;-1.0899;14.0734;1.4336;0.6618;9.6787;-0.9599;-2.0286;5.2584;0.5838;0.6451;1.642;30.9;-1.26;-9.21;-213.69;278.3;-3.73;-9.09;5.0;35.958347;-83.92447;738.44;NaN;0.0;52.66798;;0 / 9;46504;2022-11-09 17:14:10:008
-0.3203;0.1095;11.3731;0.0127;0.7974;9.7742;-0.289;-0.8022;1.0799;0.9277;-0.017;0.1887;19.2;5.46;-5.23;-218.57;319.64;-3.49;-0.55;5.0;35.958347;-83.92447;738.44;NaN;0.0;52.66798;;0 / 9;47004;2022-11-09 17:14:10:508
0.259;0.4256;9.769;-0.0966;1.594;9.6757;0.4085;-0.9114;-1.0771;-0.4948;0.3189;0.9003;12.6;12.94;-9.02;-219.39;337.98;-9.35;0.57;5.0;35.958347;-83.92447;738.44;NaN;0.0;52.66798;;1 / 9;47505;2022-11-09 17:14:11:009
-0.6987;0.2151;7.3771;-0.373;1.2005;9.7257;-0.5405;-1.0926;-1.9817;0.8785;-0.2479;0.1972;12.6;19.73;-8.01;-217.07;320.95;-6.03;2.09;5.0;35.958347;-83.92447;738.44;NaN;0.0;52.66798;;1 / 9;48005;2022-11-09 17:14:11:509
-0.2773;1.4073;5.3183;-0.1435;1.2013;9.7317;-0.1663;0.1347;-4.294;0.0087;0.1882;-0.3733;10.5;21.11;-7.63;-213.92;313.66;-7.0;0.53;5.0;35.958347;-83.92447;738.44;NaN;0.0;52.66798;;1 / 9;48505;2022-11-09 17:14:12:009
-0.574;0.9978;7.0325;-0.1622;0.9353;9.7606;-0.5836;0.2992;-3.3596;0.266;-0.3255;0.4019;10.5;19.37;-3.77;-212.55;316.6;-4.99;1.4;5.0;35.958347;-83.92447;738.44;NaN;0.0;52.66798;;1 / 9;49005;2022-11-09 17:14:12:509
-0.6556;1.4527;5.8618;-0.8825;1.4148;9.6638;0.2125;0.0607;-3.8544;-0.1664;1.0452;-0.0746;11.9;13.93;-2.03;-213.84;2.67;-8.31;4.1;5.0;35.958347;-83.92447;738.44;NaN;0.0;52.66798;;1 / 9;49504;2022-11-09 17:14:13:008
0.7546;-0.0126;7.6549;-0.7784;0.0031;9.7757;0.2391;1.2436;-0.9899;0.7452;-0.4923;-0.4943;13.0;5.33;6.71;-215.17;59.67;-0.02;4.55;5.0;35.958347;-83.92447;738.44;NaN;0.0;52.66798;;1 / 9;50005;2022-11-09 17:14:13:509
-0.1983;-0.6924;9.0841;-0.5234;-2.4652;9.4773;0.2035;1.971;-1.0757;0.795;0.1027;-0.0618;11.7;-5.27;17.79;-212.49;158.44;16.03;3.04;5.0;35.958347;-83.92447;738.44;NaN;0.0;52.66798;;1 / 9;50505;2022-11-09 17:14:14:009
-0.725;1.7877;7.5185;0.1342;-0.3619;9.7991;-0.2212;1.9398;-2.0452;0.7271;-0.229;0.1074;17.6;-5.53;4.88;-212.12;132.41;2.11;-0.78;5.0;35.958347;-83.92447;738.44;NaN;0.0;52.66798;;1 / 9;51005;2022-11-09 17:14:14:509
0.3619;1.5006;7.8416;-0.5501;-0.4774;9.7796;0.372;2.1752;-2.965;0.0766;2.0612;1.1703;18.6;-2.55;0.64;-209.16;171.36;3.01;-0.41;5.0;35.958347;-83.92447;738.44;NaN;0.0;52.66798;;2 / 9;51505;2022-11-09 17:14:15:009
-1.4097;1.3235;8.7132;-0.5523;0.2476;9.788;-0.8357;1.0284;-1.1869;0.0492;0.9249;0.5301;30.8;6.09;-7.57;-200.31;186.05;-1.32;1.62;5.0;35.958347;-83.92447;738.44;NaN;0.0;52.66798;;2 / 9;52005;2022-11-09 17:14:15:509
-0.9906;-1.255;11.9716;-0.7373;0.8775;9.7394;-0.2872;-1.9295;1.5079;-0.0555;0.9335;2.2015;39.1;1.97;-18.09;-193.03;97.31;-5.01;3.1;5.0;35.958347;-83.92447;738.44;NaN;0.0;52.66798;;3 / 9;52505;2022-11-09 17:14:16:009
-3.3655;0.9787;9.2423;-1.3093;1.344;9.6255;-2.2691;-1.264;0.8857;0.5346;-0.0787;1.59;60.6;-7.61;-14.16;-201.09;73.02;-7.16;7.84;5.0;35.958347;-83.92447;738.44;NaN;0.0;52.66798;;3 / 9;53005;2022-11-09 17:14:16:509
-0.3467;1.503;10.6331;-0.0788;1.3572;9.712;-0.3607;0.1915;0.6056;-0.7714;-0.0182;-0.3819;69.1;-16.35;-12.02;-202.46;39.44;-9.28;0.3;5.0;35.958347;-83.92447;738.44;NaN;0.0;52.66798;;3 / 9;53505;2022-11-09 17:14:17:009
-1.1103;-0.6015;9.1633;0.0314;1.0742;9.7476;-1.3371;-1.4818;-1.8837;-0.8611;-0.017;1.1728;69.1;-12.88;-8.89;-204.6;35.21;-7.62;-0.03;5.0;35.958347;-83.92447;738.44;NaN;0.0;52.66798;;3 / 9;54004;2022-11-09 17:14:17:508
-1.0241;-2.4257;9.3045;-0.2053;0.1319;9.8036;-1.2877;-2.7591;-0.6296;0.4261;-0.9621;1.6407;69.1;0.71;8.38;-200.76;16.69;-0.77;1.2;5.0;35.958347;-83.92447;738.44;NaN;0.0;52.66798;;3 / 8;54504;2022-11-09 17:14:18:008
-0.3586;2.3719;11.9548;-0.3098;1.464;9.6918;-0.5228;1.1186;1.9539;-0.1496;-0.2033;-0.0893;50.9;5.4;1.09;-195.39;4.01;-8.83;2.1;5.0;35.958347;-83.92447;738.44;NaN;0.0;52.66798;;3 / 8;55005;2022-11-09 17:14:18:509
-0.5859;0.9811;7.7507;-1.0777;1.65;9.6066;0.614;-0.6984;-1.9072;-0.4356;0.5761;0.0983;32.4;7.82;-2.53;-189.28;17.86;-10.49;5.49;5.0;35.958347;-83.92447;738.44;NaN;0.0;52.66798;;3 / 8;55504;2022-11-09 17:14:19:008
-1.0792;2.0824;3.1062;-0.6849;3.0546;9.2936;-0.0246;-1.4418;-5.6593;0.4784;0.909;-0.1687;32.4;7.71;-7.93;-183.32;6.32;-18.15;4.21;5.0;35.958347;-83.92447;738.44;NaN;0.0;52.66798;;3 / 8;56004;2022-11-09 17:14:19:508
-1.3116;1.0193;6.8025;-1.6298;1.6142;9.5346;0.3165;-0.5751;-2.747;-0.4723;0.1613;-0.0221;28.3;4.29;-6.07;-181.89;44.37;-10.34;9.43;5.0;35.958347;-83.92447;738.44;NaN;0.0;52.66798;;3 / 8;56505;2022-11-09 17:14:20:009
-1.8168;0.2366;7.0325;-1.3752;0.5542;9.6939;-0.431;-0.1103;-2.9391;0.2654;-0.2937;-0.0691;16.3;-2.61;-3.82;-182.14;77.81;-3.24;8.07;5.0;35.958347;-83.92447;738.44;NaN;0.0;52.66798;;3 / 8;57006;2022-11-09 17:14:20:510
-0.361;1.582;6.1513;-0.4595;0.6629;9.7734;0.2344;1.0128;-3.788;0.0523;0.5071;0.1826;13.1;-9.0;-2.03;-179.83;55.46;-3.81;1.73;5.0;35.958347;-83.92447;738.44;NaN;0.0;52.66798;;2 / 8;57505;2022-11-09 17:14:21:009
-1.503;1.491;7.0923;-0.5046;-0.0784;9.7933;-0.9768;1.5344;-2.6267;0.1071;0.2756;0.1716;13.1;-12.6;4.09;-181.46;83.45;0.46;2.95;5.0;35.958347;-83.92447;738.44;NaN;0.0;52.66798;;2 / 8;58005;2022-11-09 17:14:21:509
-0.16;1.3834;8.1075;-0.9206;-0.6646;9.7407;0.9613;1.9734;-1.2913;0.4704;0.5535;0.441;11.9;-15.43;8.98;-184.86;96.01;3.89;5.4;5.0;35.958347;-83.92447;738.44;NaN;0.0;52.66798;;1 / 8;58505;2022-11-09 17:14:22:009
-1.5269;1.0504;8.9859;-1.0782;0.0295;9.7472;-0.4546;1.0074;-0.8635;0.3258;0.2285;0.1807;13.4;-18.96;11.7;-186.56;74.55;0.45;5.9;5.0;35.958347;-83.92447;738.44;NaN;0.0;52.66798;;1 / 8;59004;2022-11-09 17:14:22:508
-0.4089;0.8949;10.9947;-1.5181;-0.335;9.6826;1.4776;1.6704;0.19;0.438;1.0074;1.4159;11.5;-25.24;7.74;-187.48;92.47;3.17;7.29;5.0;35.958347;-83.92447;738.44;NaN;0.0;52.66798;;1 / 8;59505;2022-11-09 17:14:23:009
-0.7753;-1.2502;12.7663;-0.0987;-0.2712;9.8024;-0.3741;-1.169;3.595;-0.1907;0.1009;0.0622;16.1;-29.34;16.78;-185.02;68.94;1.58;0.58;5.0;35.958347;-83.92447;738.44;NaN;0.0;52.66798;;1 / 8;60004;2022-11-09 17:14:23:508
0.58;0.1358;15.4262;-0.1603;-0.4339;9.7957;0.9681;1.1067;4.7225;-0.7596;1.1772;1.2448;30.6;-30.79;13.16;-186.47;82.0;2.54;0.94;5.0;35.958347;-83.92447;738.44;NaN;0.0;52.66798;;1 / 8;60505;2022-11-09 17:14:24:009
-1.0385;-0.2136;15.929;-0.0517;1.7116;9.656;-0.7801;-2.0401;6.7183;0.7508;-0.16;0.9553;52.8;-17.27;23.21;-195.58;17.62;-10.05;0.31;5.0;35.958347;-83.92447;738.44;NaN;0.0;52.66798;;1 / 8;61005;2022-11-09 17:14:24:509
-0.0162;2.2379;11.4329;-0.2638;2.2865;9.5327;0.3946;-0.2224;1.8698;-0.7035;-0.1557;0.1001;59.3;6.51;23.78;-206.68;359.85;-14.61;1.88;5.0;35.958347;-83.92447;738.44;NaN;0.0;52.66798;;1 / 8;61504;2022-11-09 17:14:25:008
0.0126;2.5516;9.5797;0.042;1.9837;9.6038;-0.1701;0.6728;0.0107;0.1164;0.1736;0.5588;46.1;18.43;15.34;-202.41;340.62;-11.43;-0.35;5.0;35.958347;-83.92447;738.44;NaN;0.0;52.66798;;1 / 8;62005;2022-11-09 17:14:25:509
0.2542;-0.5177;10.0202;0.1789;0.1405;9.804;0.0531;-0.6905;0.0898;-0.3627;-0.411;0.5088;37.0;20.53;10.05;-198.83;304.21;-1.65;-0.61;5.0;35.958347;-83.92447;738.44;NaN;0.0;52.66798;;1 / 8;62505;2022-11-09 17:14:26:009
2.7248;-2.1769;8.6486;2.3066;-0.4066;9.5229;0.2644;-1.7322;-1.3626;0.8355;0.2127;1.3927;53.9;7.43;14.64;-198.43;275.68;2.87;-13.98;5.0;35.958347;-83.92447;738.44;NaN;0.0;52.66798;;1 / 8;63005;2022-11-09 17:14:26:509
2.1359;-1.5401;10.171;2.0637;0.2128;9.5847;0.0376;-1.404;0.3965;0.6554;-0.2375;1.3132;48.0;13.03;22.58;-198.45;294.37;-0.43;-12.02;5.0;35.958347;-83.92447;738.44;NaN;0.0;52.66798;;1 / 8;63505;2022-11-09 17:14:27:009
1.6427;-1.3053;7.7722;2.3862;-0.667;9.4885;-0.9256;-0.5686;-1.8197;0.0947;0.2701;0.0219;31.9;27.09;33.71;-200.94;285.68;3.9;-14.12;5.0;35.958347;-83.92447;738.44;NaN;0.0;52.66798;;1 / 8;64005;2022-11-09 17:14:27:509
0.824;1.0792;5.1577;1.9354;-0.545;9.5983;-1.0944;1.7353;-4.5475;0.0903;0.5138;0.1148;11.4;37.18;35.91;-199.39;287.63;3.38;-12.28;5.0;35.958347;-83.92447;738.44;NaN;0.0;52.66798;;1 / 8;64505;2022-11-09 17:14:28:009
0.7259;-0.5225;7.6143;2.0525;-1.3961;9.4873;-1.7656;1.4213;-2.5846;0.3887;-0.3414;-0.1681;11.4;42.94;37.09;-193.2;277.61;8.18;-12.21;5.0;35.958347;-83.92447;738.44;NaN;0.0;52.66798;;1 / 8;65004;2022-11-09 17:14:28:508
1.6549;-0.0891;6.2207;2.2422;-1.0987;9.4835;-0.6995;1.1504;-4.0474;0.5912;-0.3591;0.1642;11.4;36.45;33.32;-190.01;277.59;7.28;-12.73;5.0;35.958347;-83.92447;738.44;NaN;0.0;52.66798;;1 / 8;65504;2022-11-09 17:14:29:008
0.702;-0.2806;6.8698;1.3977;-1.0004;9.6549;-0.8031;0.8188;-2.8767;0.1022;-0.0268;0.1245;11.4;33.34;23.59;-187.2;274.72;6.03;-8.3;5.0;35.958347;-83.92447;738.44;NaN;0.0;52.66798;;1 / 8;66004;2022-11-09 17:14:29:508
0.3523;0.6458;5.5935;0.1593;-0.7287;9.7782;0.22;1.4;-4.2939;0.4025;0.0098;0.2217;9.8;28.2;19.22;-183.43;279.86;4.26;-0.93;5.0;35.958347;-83.92447;738.44;NaN;0.0;52.66798;;0 / 8;66504;2022-11-09 17:14:30:008
-1.6322;0.0329;7.5209;0.4666;-0.7603;9.766;-2.2766;0.8022;-1.3253;1.2405;0.1192;-0.0752;11.2;25.11;22.13;-177.67;276.65;5.82;-2.95;5.0;35.958347;-83.92447;738.44;NaN;0.0;52.66798;;0 / 8;67005;2022-11-09 17:14:30:509
1.0633;2.1422;8.6175;0.4311;0.774;9.7666;0.7661;1.4002;-0.7424;0.2467;0.4338;0.3243;11.2;24.58;25.86;-182.76;317.75;-4.1;-3.25;5.0;35.958347;-83.92447;738.44;NaN;0.0;52.66798;;0 / 8;67505;2022-11-09 17:14:31:009
0.1513;-0.1083;12.5031;0.6908;1.0014;9.7309;-0.622;-1.0637;2.7812;-0.4256;-0.1966;0.2663;9.7;29.98;34.82;-184.56;321.16;-5.86;-4.06;5.0;35.958347;-83.92447;738.44;NaN;0.0;52.66798;;0 / 8;68005;2022-11-09 17:14:31:509
1.1545;-0.7786;12.6515;0.5251;0.2885;9.7883;0.6999;-0.9455;2.2849;0.6231;0.8327;-0.0697;9.8;35.87;47.08;-179.53;314.56;-0.67;-4.44;5.0;35.958347;-83.92447;738.44;NaN;0.0;52.66798;;1 / 8;68504;2022-11-09 17:14:32:008
-0.0978;0.7657;10.0059;-0.3221;0.8202;9.767;-0.0671;0.3798;-0.5093;-0.0356;-0.3622;0.1313;11.1;55.88;42.68;-170.25;318.64;-4.8;1.89;5.0;35.958347;-83.92447;738.44;NaN;0.0;52.66798;;1 / 8;69005;2022-11-09 17:14:32:509
-1.0648;1.1127;6.1777;0.0703;0.713;9.7804;-1.1218;0.2626;-3.0856;-0.3621;-0.3316;0.0073;17.2;59.96;29.33;-162.3;304.6;-4.48;-0.09;5.0;35.958347;-83.92447;738.44;NaN;0.0;52.66798;;0 / 7;69504;2022-11-09 17:14:33:008
0.2614;0.119;6.7044;-0.0745;-0.2;9.8043;0.3168;0.2734;-3.1439;0.3408;-0.1557;0.6725;22.5;33.23;7.24;-164.16;276.56;1.17;0.44;5.0;35.958347;-83.92447;738.44;NaN;0.0;52.66798;;0 / 7;70005;2022-11-09 17:14:33:509
-1.235;-1.2335;6.6733;-0.3289;-0.6985;9.7762;-0.3673;-0.9469;-2.318;-0.4755;-0.8838;0.6376;46.4;8.78;10.86;-170.7;204.94;3.82;2.95;5.0;35.958347;-83.92447;738.44;NaN;0.0;52.66798;;0 / 6;70505;2022-11-09 17:14:34:009
0.0245;-0.7403;5.6151;0.8322;-0.3859;9.7637;-0.7841;-0.3952;-4.3135;0.0062;0.0819;0.6804;46.4;5.98;26.1;-178.71;311.87;2.26;-4.87;5.0;35.958347;-83.92447;738.44;NaN;0.0;52.66798;;0 / 6;71004;2022-11-09 17:14:34:508
-2.5971;-3.151;7.7411;0.5929;-1.0271;9.7347;-3.1044;-1.7525;-1.566;1.2075;-0.623;0.791;34.4;25.29;25.28;-182.23;279.45;6.01;-3.49;5.0;35.958347;-83.92447;738.44;NaN;0.0;52.66798;;0 / 6;71504;2022-11-09 17:14:35:008
1.6717;-2.5047;13.3385;1.3074;-1.7355;9.5629;0.4137;-0.8526;3.5954;-0.9409;0.107;-0.3916;31.0;23.42;1.84;-186.86;237.83;10.19;-7.79;5.0;35.958347;-83.92447;738.44;NaN;0.0;52.66798;;0 / 6;72004;2022-11-09 17:14:35:508
0.1896;-0.6972;10.8248;1.6383;-1.2142;9.5923;-1.7208;0.7408;1.0138;0.1202;-0.0335;0.9467;38.0;19.56;-18.6;-195.79;231.84;7.03;-9.95;5.0;35.958347;-83.92447;738.44;NaN;0.0;52.66798;;0 / 6;72504;2022-11-09 17:14:36:008
2.2152;-2.1721;7.5138;1.5821;-0.7317;9.6505;0.5944;-1.4657;-2.415;0.0093;-0.5155;1.653;38.0;-13.89;-30.9;-201.77;200.26;3.66;-8.55;5.0;35.958347;-83.92447;738.44;NaN;0.0;52.66798;;0 / 6;73004;2022-11-09 17:14:36:508
1.523;-3.0505;8.0285;1.3051;-1.9142;9.5291;0.0584;-1.3554;-1.5675;1.6087;-0.2815;0.7745;19.9;-14.17;-16.26;-210.04;194.47;11.26;-7.8;5.0;35.958347;-83.92447;738.44;NaN;0.0;52.66798;;0 / 5;73504;2022-11-09 17:14:37:008
1.6379;-3.781;12.1822;0.7615;-1.4139;9.6743;0.3079;-0.4985;1.4041;-0.2131;-0.1777;0.0518;15.1;-12.39;-12.32;-213.71;185.38;7.86;-4.25;5.0;35.958347;-83.92447;738.44;NaN;0.0;52.66798;;0 / 5;74005;2022-11-09 17:14:37:509
-0.0018;0.0449;6.5704;0.8254;-1.1147;9.7081;-0.922;1.0359;-2.9336;0.18;0.0453;-0.4796;11.5;-16.61;-7.24;-217.67;182.75;6.53;-4.86;5.0;35.958347;-83.92447;738.44;NaN;0.0;52.66798;;0 / 5;74505;2022-11-09 17:14:38:009
-0.9835;-1.5182;7.5209;-0.4078;-0.8469;9.7615;-0.7987;-0.0821;-2.9262;0.1458;0.1082;0.1361;10.3;-5.76;-1.29;-221.25;142.79;4.95;2.39;5.0;35.958347;-83.92447;738.44;NaN;0.0;52.66798;;0 / 5;75004;2022-11-09 17:14:38:508
-0.8686;-0.4002;7.1665;-0.1265;-0.4427;9.7958;-0.6423;0.0194;-2.7374;-0.2001;0.0398;-0.5077;14.1;-8.85;5.06;-220.22;111.7;2.49;0.64;5.0;35.958347;-83.92447;738.44;NaN;0.0;52.66798;;0 / 5;75504;2022-11-09 17:14:39:008
0.6996;-1.7171;8.4712;-0.0645;-1.1231;9.7419;0.4538;-0.3591;-2.2417;-0.0112;-0.0409;0.5081;10.3;-8.53;17.74;-214.52;122.86;6.58;0.38;5.0;35.958347;-83.92447;738.44;NaN;0.0;52.66798;;0 / 5;76004;2022-11-09 17:14:39:508
-0.816;-0.2136;6.4268;0.5201;-0.1798;9.7912;-1.2903;-0.0785;-3.2155;0.2984;-0.1667;-0.4087;15.2;-7.99;21.11;-207.13;349.51;1.76;-2.96;5.0;35.958347;-83.92447;738.44;NaN;0.0;52.66798;;0 / 5;76504;2022-11-09 17:14:40:008
0.1992;-1.8464;9.6757;0.2618;-0.7541;9.7741;-0.4384;-0.573;-1.1108;-0.0512;0.0025;0.8252;15.2;-2.21;24.75;-198.0;341.2;4.41;-1.53;5.0;35.958347;-83.92447;738.44;NaN;0.0;52.66798;;0 / 5;77005;2022-11-09 17:14:40:509
0.9556;-2.6701;11.6195;0.8141;-0.383;9.7653;-0.05;-2.0925;2.1666;-1.1272;-0.7109;-0.5584;40.4;-6.3;23.59;-190.76;329.11;2.24;-4.77;5.0;35.958347;-83.92447;738.44;NaN;0.0;52.66798;;0 / 4;77505;2022-11-09 17:14:41:009
0.0867;-0.4627;9.848;0.6172;-0.5583;9.7713;-1.1195;0.2819;-0.3278;0.185;0.0948;0.9186;63.8;-11.77;32.89;-188.57;354.42;4.44;-4.17;5.0;35.958347;-83.92447;738.44;NaN;0.0;52.66798;;0 / 4;78005;2022-11-09 17:14:41:509
1.7219;-3.4792;14.5499;1.2818;-1.3298;9.6312;0.4224;-1.9934;4.8705;-0.8518;-0.1184;-0.1058;92.5;-3.86;46.8;-186.08;316.25;7.79;-7.58;5.0;35.958347;-83.92447;738.44;NaN;0.0;52.66798;;0 / 4;78505;2022-11-09 17:14:42:009
-0.5907;-0.4412;9.9604;0.741;-0.9997;9.7274;-1.2555;0.4874;0.119;0.0417;0.8101;1.2442;89.0;10.58;47.21;-23.53;343.28;5.92;-5.72;5.0;35.958347;-83.92447;738.44;NaN;0.0;52.66798;;0 / 4;79005;2022-11-09 17:14:42:509
0.9413;-1.5182;7.6454;0.9765;-0.4016;9.7496;-0.1797;-1.0128;-1.7443;-0.2499;-0.1624;0.8337;48.5;30.28;54.41;-36.86;327.46;2.35;-5.72;5.0;35.958347;-83.92447;738.44;NaN;0.0;52.66798;;0 / 4;79504;2022-11-09 17:14:43:008
0.3308;-1.0971;9.5629;1.1404;-1.1354;9.6737;-0.7521;-0.0441;-0.2866;-0.1782;-0.3658;0.3939;48.5;39.13;52.65;-36.0;319.09;6.28;-6.19;5.0;35.958347;-83.92447;738.44;NaN;0.0;52.66798;;0 / 4;80005;2022-11-09 17:14:43:509
-0.0978;-3.0649;8.208;1.0919;-1.0071;9.6935;-1.2582;-2.0978;-1.4638;0.172;-0.4098;1.4745;69.0;50.61;29.51;-38.34;295.67;6.18;-6.26;5.0;35.958347;-83.92447;738.44;NaN;0.0;52.66798;;0 / 4;80504;2022-11-09 17:14:44:008
-0.093;-1.1904;10.267;1.2132;-2.2316;9.472;-1.4155;1.3428;-0.0733;-0.1545;-0.1557;-0.1668;50.7;50.89;17.34;-37.22;279.93;13.15;-7.3;5.0;35.958347;-83.92447;738.44;NaN;0.0;52.66798;;0 / 4;81005;2022-11-09 17:14:44:509
0.1992;-0.4842;8.3659;0.6664;-2.0307;9.5709;-0.3964;1.4983;-1.3044;-0.1041;-0.072;0.2522;11.0;69.41;7.01;-33.26;270.92;11.75;-4.03;5.0;35.958347;-83.92447;738.44;NaN;0.0;52.66798;;0 / 4;81505;2022-11-09 17:14:45:009
-0.4089;-0.3954;8.9596;0.4728;-2.0384;9.5808;-0.6286;0.5547;0.6154;-0.0499;0.6421;0.0848;8.8;63.02;-15.92;-32.76;251.73;11.94;-4.11;5.0;35.958347;-83.92447;738.44;NaN;0.0;52.66798;;0 / 4;82005;2022-11-09 17:14:45:509
0.6757;-1.2168;10.657;0.9017;-2.523;9.4336;-0.3137;1.1455;1.4376;0.6679;-0.1435;0.7323;10.9;62.12;-2.93;-30.75;261.51;15.96;-5.7;5.0;35.958347;-83.92447;738.44;NaN;0.0;52.66798;;0 / 3;82505;2022-11-09 17:14:46:009
0.0221;-2.6219;13.2188;0.7665;-2.8885;9.3402;0.1388;-1.9178;5.6724;0.0224;0.2383;-0.0581;9.6;47.38;-8.14;-30.96;252.45;17.13;-4.69;5.0;35.958347;-83.92447;738.44;NaN;0.0;52.66798;;0 / 3;83004;2022-11-09 17:14:46:508
0.8216;-0.8049;10.0466;0.8972;-2.3352;9.4822;-0.0882;1.5886;0.2973;0.9458;-0.1105;0.2229;8.7;39.34;-2.79;-34.01;255.73;15.27;-5.88;5.0;35.958347;-83.92447;738.44;NaN;0.0;52.66798;;0 / 3;83504;2022-11-09 17:14:47:008
0.0628;-3.8934;14.4948;0.6431;-2.7066;9.4038;-0.2468;-1.439;5.0138;0.2249;0.0984;-0.2243;10.7;27.99;-7.13;-37.43;241.72;16.02;-3.91;5.0;35.958347;-83.92447;738.44;NaN;0.0;52.66798;;0 / 3;84005;2022-11-09 17:14:47:509
6.0E-4;-0.4268;10.334;0.7043;-1.8669;9.6015;-0.6598;1.6749;-0.0608;0.6866;-0.0763;0.3609;10.5;17.12;-9.43;-26.06;233.54;12.24;-4.44;5.0;35.958347;-83.92447;738.44;NaN;0.0;52.66798;;0 / 2;84505;2022-11-09 17:14:48:009
0.0197;-2.045;12.0147;0.4743;-2.6942;9.4174;-0.4023;-0.1701;4.0748;0.0267;0.289;-0.4197;12.7;11.7;-0.47;-28.84;240.01;16.12;-3.22;5.0;35.958347;-83.92447;738.44;NaN;0.0;52.66798;;0 / 2;85005;2022-11-09 17:14:48:509
1.5852;-2.088;13.5251;1.0985;-2.2518;9.4823;0.1583;0.3457;3.7359;-0.382;-0.0085;0.4116;21.7;8.74;4.28;-28.71;259.53;12.83;-6.6;5.0;35.958347;-83.92447;738.44;NaN;0.0;52.66798;;0 / 2;85504;2022-11-09 17:14:49:008
2.476;-3.3835;12.9697;0.7002;-2.2482;9.5198;1.8207;-1.6428;3.0653;-0.8262;-0.2968;-0.0245;33.0;6.43;8.34;-32.32;278.98;11.99;-3.67;5.0;35.958347;-83.92447;738.44;NaN;0.0;52.66798;;0 / 2;86004;2022-11-09 17:14:49:508
2.4018;-6.1487;16.8171;0.6289;-1.7138;9.6352;1.8991;-4.797;7.1613;-0.9004;-0.0323;1.3334;51.0;4.88;4.35;-33.13;262.83;8.58;-3.84;5.0;35.958347;-83.92447;738.44;NaN;0.0;52.66798;;0 / 2;86505;2022-11-09 17:14:50:009
0.4792;-0.6135;9.204;1.4295;-1.3481;9.6078;-1.1601;1.0909;-0.8653;0.028;0.0813;1.1489;58.8;-2.79;4.71;-33.62;277.52;7.9;-8.46;5.0;35.958347;-83.92447;738.44;NaN;0.0;52.66798;;0 / 2;87004;2022-11-09 17:14:50:508
1.9684;-2.1075;10.4704;1.6873;-1.3721;9.5625;0.2922;-0.7111;0.8208;-0.1707;0.0092;0.047;33.3;-9.67;-7.52;-31.86;161.09;7.74;-10.07;5.0;35.958347;-83.92447;738.44;NaN;0.0;52.66798;;0 / 1;87505;2022-11-09 17:14:51:009
1.1665;-1.8655;10.2838;1.9584;-1.9741;9.4041;-0.9014;0.211;0.5155;-0.1752;-0.2357;0.7085;28.9;-12.21;-16.46;-28.97;165.07;11.61;-11.76;5.0;35.958347;-83.92447;738.44;NaN;0.0;52.66798;;0 / 1;88004;2022-11-09 17:14:51:508
0.0724;-3.5533;8.0285;1.2487;-1.8628;9.5468;-1.1862;-1.664;-1.6475;0.0679;-0.5869;1.678;36.7;-14.1;-29.36;-24.22;162.1;10.95;-7.45;5.0;35.958347;-83.92447;738.44;NaN;0.0;52.66798;;0 / 0;88505;2022-11-09 17:14:52:009
3.2874;-4.3098;9.6227;1.7908;-2.5252;9.3052;1.6529;-2.0461;0.0161;0.0192;0.0074;0.7219;45.8;-40.91;-30.67;-19.37;135.12;14.81;-11.05;5.0;35.958347;-83.92447;738.44;NaN;0.0;52.66798;;0 / 0;89005;2022-11-09 17:14:52:509
0.7881;-1.4991;6.9727;1.388;-2.0788;9.4828;-0.7666;0.8471;-2.7634;0.6012;-0.1294;0.7696;20.2;-47.79;-26.21;-13.01;123.2;12.98;-8.48;5.0;35.958347;-83.92447;738.44;NaN;0.0;52.66798;;0 / 0;89505;2022-11-09 17:14:53:009
0.7379;-1.7985;5.857;1.2394;-1.8786;9.5449;-0.9812;-0.0525;-3.6855;0.7757;-0.1856;-0.074;15.8;-53.68;-26.79;-7.46;118.98;11.04;-7.4;5.0;35.958347;-83.92447;738.44;NaN;0.0;52.66798;;0 / 0;90006;2022-11-09 17:14:53:510
0.8623;0.6242;5.9001;1.3814;-1.3842;9.6097;-0.5333;2.0332;-3.7573;0.1694;0.1369;-0.0972;15.8;-54.69;-31.5;-4.54;122.02;8.49;-8.41;5.0;35.958347;-83.92447;738.44;NaN;0.0;52.66798;;0 / 0;90505;2022-11-09 17:14:54:009
-0.0834;-1.8296;8.0381;1.0765;-1.988;9.5425;-1.0048;0.1306;-1.8505;0.8966;-0.3139;-0.2731;13.8;-56.98;-19.33;-8.42;111.19;13.29;-5.88;5.0;35.958347;-83.92447;738.44;NaN;0.0;52.66798;;0 / 0;91005;2022-11-09 17:14:54:509
0.9126;-0.3571;6.5776;1.0071;-1.675;9.6099;-0.2466;1.3689;-3.0972;0.3863;0.0911;0.3536;13.0;-49.2;-8.96;-6.41;102.76;10.59;-6.06;5.0;35.958347;-83.92447;738.44;NaN;0.0;52.66798;;0 / 0;91504;2022-11-09 17:14:55:008
-0.2916;-1.2766;8.1386;0.7646;-1.9891;9.5723;-1.0842;0.9481;-1.217;0.3153;-0.163;-0.0642;15.3;-44.32;21.86;-7.48;65.85;11.7;-4.57;5.0;35.958347;-83.92447;738.44;NaN;0.0;52.66798;;0 / 0;92004;2022-11-09 17:14:55:508
0.2806;0.5477;7.1641;0.2887;-1.8471;9.6268;0.0149;2.397;-2.5041;0.2897;0.1919;0.0146;16.7;-35.44;36.24;-9.45;46.2;11.51;-2.16;5.0;35.958347;-83.92447;738.44;NaN;0.0;52.66798;;0 / 0;92505;2022-11-09 17:14:56:009
-0.6221;-1.2383;10.7336;0.9187;-2.7243;9.3758;-1.2842;1.3387;1.5859;0.1694;0.2829;-0.3904;23.1;-31.11;40.01;-4.95;39.93;15.96;-6.42;5.0;35.958347;-83.92447;738.44;NaN;0.0;52.66798;;0 / 0;93006;2022-11-09 17:14:56:510
1.389;-0.1442;11.1574;1.2215;-2.2484;9.467;0.0942;2.0855;2.1232;0.3651;0.2792;1.1001;34.5;-26.36;30.84;-1.8;41.51;13.77;-8.29;5.0;35.958347;-83.92447;738.44;NaN;0.0;52.66798;;0 / 0;93505;2022-11-09 17:14:57:009
2.7129;-2.8878;16.7046;1.3533;-1.0966;9.6507;0.6832;-1.1261;6.9629;-0.7216;-0.8197;0.149;40.2;-14.46;25.88;-2.57;28.05;5.31;-6.54;5.0;35.958347;-83.92447;738.44;NaN;0.0;52.66798;;0 / 0;94005;2022-11-09 17:14:57:509
3.3308;-3.8575;18.0212;1.1034;-0.6105;9.7252;2.2385;-3.3695;8.716;-1.1366;-1.0977;0.4116;45.5;-7.97;15.38;-0.88;27.82;3.57;-6.47;5.0;35.958347;-83.92447;738.44;NaN;0.0;52.66798;;0 / 0;94504;2022-11-09 17:14:58:008
1.0274;-0.5584;10.5063;2.0482;0.3884;9.5825;-0.7157;-0.9973;0.5404;0.033;0.5504;1.8704;45.5;-12.41;18.51;5.85;34.57;-2.27;-12.07;5.0;35.958347;-83.92447;738.44;NaN;0.0;52.66798;;0 / 0;95005;2022-11-09 17:14:58:509
-0.0547;1.0289;9.3284;-0.1359;1.9995;9.5997;0.0985;-1.027;-0.4938;0.4311;0.804;0.6444;52.2;2.12;31.33;-0.79;356.26;-10.83;-0.18;5.0;35.958347;-83.92447;738.44;NaN;0.0;52.66798;;0 / 0;95505;2022-11-09 17:14:59:009
-1.0839;3.4636;9.259;-0.8044;3.6407;9.0702;-0.2635;-0.2796;0.1515;0.0728;0.1705;0.1765;52.2;10.78;28.44;-5.49;339.56;-21.79;5.07;5.0;35.958347;-83.92447;738.44;NaN;0.0;52.66798;;0 / 0;96005;2022-11-09 17:14:59:509
-0.816;4.0525;8.4736;-0.92;3.6943;9.0375;-0.3045;-0.045;0.114;0.0292;0.1919;0.2308;52.2;11.89;28.24;-5.81;338.42;-22.13;5.81;5.0;35.958347;-83.92447;738.44;NaN;0.0;52.66798;;0 / 0;96505;2022-11-09 17:15:00:009
-1.2159;3.9377;8.8113;-0.92;3.6943;9.0375;-0.3045;-0.045;0.114;0.0292;0.1919;0.2308;52.2;11.89;28.24;-5.81;338.42;-22.13;5.81;5.0;35.958347;-83.92447;738.44;NaN;0.0;52.66798;;0 / 0;97005;2022-11-09 17:15:00:509
-1.733;5.3145;7.9181;-0.92;3.6943;9.0375;-0.3045;-0.045;0.114;0.0292;0.1919;0.2308;52.2;11.89;28.24;-5.81;338.42;-22.13;5.81;5.0;35.958347;-83.92447;738.44;NaN;0.0;52.66798;;0 / 0;97504;2022-11-09 17:15:01:008
-1.436;5.2044;7.3579;-0.92;3.6943;9.0375;-0.3045;-0.045;0.114;0.0292;0.1919;0.2308;52.2;11.89;28.24;-5.81;338.42;-22.13;5.81;5.0;35.958347;-83.92447;738.44;NaN;0.0;52.66798;;0 / 0;98005;2022-11-09 17:15:01:509
-3.2985;5.7476;7.4492;-2.9372;5.5473;7.5346;0.087;-0.0655;-0.1629;-0.1403;0.0309;0.0407;52.2;9.3;21.3;-20.53;358.25;-34.31;20.88;2.0;35.958347;-83.92447;738.44;NaN;0.0;52.66798;;0 / 0;98504;2022-11-09 17:15:02:008