sep=;
ACCELEROMETER X (m/s²);ACCELEROMETER Y (m/s²);ACCELEROMETER Z (m/s²);GRAVITY X (m/s²);GRAVITY Y (m/s²);GRAVITY Z (m/s²);LINEAR ACCELERATION X (m/s²);LINEAR ACCELERATION Y (m/s²);LINEAR ACCELERATION Z (m/s²);GYROSCOPE X (rad/s);GYROSCOPE Y (rad/s);GYROSCOPE Z (rad/s);LIGHT (lux);MAGNETIC FIELD X (μT);MAGNETIC FIELD Y (μT);MAGNETIC FIELD Z (μT);ORIENTATION Z (azimuth °);ORIENTATION X (pitch °);ORIENTATION Y (roll °);PROXIMITY (i);LOCATION Latitude : ;LOCATION Longitude : ;LOCATION Altitude ( m);LOCATION Altitude-google ( m);LOCATION Speed ( Kmh);LOCATION Accuracy ( m);LOCATION ORIENTATION (°);Satellites in range;Time since start in ms ;YYYY-MO-DD HH-MI-SS_SSS
0.2782;2.5086;8.0118;-1.4475;2.7244;9.3087;-0.9849;0.8011;0.1145;-1.0246;-1.5454;0.4965;1003.8;4.52;-36.81;-31.61;171.95;-19.19;14.99;5.0;35.977417;-83.930695;;NaN;;2377.4192;;6 / 10;4;2022-10-28 14:00:31:952
7.5179;-2.452;0.2094;8.9313;-0.006;4.05;-5.7594;-0.2845;2.4682;1.7464;-6.4118;4.2376;831.7;-15.75;-23.89;-30.9;222.0;0.03;-65.61;5.0;35.977417;-83.930695;;NaN;;2377.4192;;0 / 11;505;2022-10-28 14:00:32:453
8.6758;-5.3548;-2.4703;8.7696;-3.879;-2.0535;1.8121;-2.0133;1.5023;-0.719;0.4161;-0.3046;25.3;-29.53;24.51;24.19;64.3;25.02;-102.99;0.0;35.977417;-83.930695;;NaN;;2377.4192;;0 / 11;1004;2022-10-28 14:00:32:952
10.8105;-7.1486;-3.047;8.8092;-2.5142;-3.4995;1.3267;-2.3226;4.1076;1.9291;-1.3628;-0.1027;0.0;-21.09;14.18;37.71;73.45;10.49;-117.04;0.0;35.958298;-83.92447;775.92;NaN;0.0;17.892103;;0 / 15;1505;2022-10-28 14:00:33:453
11.5971;-5.7269;-0.8961;8.6344;-3.4956;-3.0658;-0.2929;-0.2016;2.5597;0.499;-0.2598;1.1512;1.0;-27.24;4.41;41.18;103.22;16.09;-109.36;0.0;35.958298;-83.92447;775.92;NaN;0.0;17.892103;;0 / 15;2004;2022-10-28 14:00:33:952
7.558;-3.3473;-4.086;8.3365;-4.0347;-3.2241;1.9083;1.2478;-1.1715;0.5594;-0.5408;-0.5456;2.2;-16.03;15.64;38.87;85.04;24.29;-111.14;0.0;35.958298;-83.92447;775.92;NaN;0.0;17.892103;;0 / 15;2505;2022-10-28 14:00:34:453
8.7476;-4.9466;-4.5185;7.977;-4.9256;-2.8769;-1.7081;-0.0465;-0.1296;0.6932;-0.0975;-0.1381;0.8;-6.51;28.14;38.78;67.08;29.39;-110.97;0.0;35.958298;-83.92447;775.92;NaN;0.0;17.892103;;0 / 15;3005;2022-10-28 14:00:34:953
7.815;-4.7776;-2.1568;8.3065;-4.9027;-1.7709;-0.6423;-0.0038;-0.506;1.2351;-0.0963;-0.2834;1.3;6.24;43.89;41.91;49.54;30.09;-103.67;0.0;35.958298;-83.92447;775.92;NaN;0.0;17.892103;;0 / 15;3505;2022-10-28 14:00:35:453
7.8805;-4.445;-2.764;7.9434;-4.9491;-2.9291;0.9108;0.4201;1.5892;0.4484;-0.2424;0.152;0.0;7.01;56.18;34.07;36.64;29.67;-109.93;0.0;35.958298;-83.92447;775.92;NaN;0.0;17.892103;;0 / 15;4004;2022-10-28 14:00:35:952
10.6851;-6.2411;-1.4297;8.4614;-4.3245;-2.4235;-0.6879;-0.1916;-0.8257;0.6256;0.1222;-0.1409;1.3;6.64;58.73;30.36;30.48;26.17;-105.98;0.0;35.958298;-83.92447;775.92;NaN;0.0;17.892103;;0 / 15;4504;2022-10-28 14:00:36:452
11.7646;-6.4268;-1.0753;8.0791;-4.4422;-3.3415;0.3799;1.8654;2.0634;-0.2216;-0.3001;-0.0977;0.0;2.44;61.03;18.77;19.62;27.53;-110.49;0.0;35.958298;-83.92447;775.92;NaN;0.0;17.892103;;0 / 15;5005;2022-10-28 14:00:36:953
5.7227;-2.918;-2.5367;8.3423;-4.259;-2.9049;-2.6565;1.2911;0.252;-0.1072;0.0086;-0.3557;1.3;2.23;53.03;20.18;23.37;26.82;-110.24;0.0;35.958298;-83.92447;775.92;NaN;0.0;17.892103;;0 / 15;5504;2022-10-28 14:00:37:452
6.7606;-2.9028;-3.4744;8.3159;-4.4175;-2.739;-1.7346;0.9477;-0.5349;-0.0191;0.2119;0.1654;0.2;-2.91;44.01;16.84;22.99;26.38;-108.47;0.0;35.958298;-83.92447;775.92;NaN;0.0;17.892103;;0 / 15;6005;2022-10-28 14:00:37:953
5.2439;-2.3381;-2.2023;8.1473;-4.4537;-3.1554;-3.0003;1.8845;2.3333;0.0602;0.1229;0.0441;0.2;-4.63;32.08;16.8;30.76;27.01;-111.17;0.0;35.958298;-83.92447;775.92;NaN;0.0;17.892103;;0 / 15;6505;2022-10-28 14:00:38:453
4.8042;-2.7781;-2.8193;8.1116;-4.5441;-3.1183;-0.9324;0.8587;3.4734;0.2668;-0.0057;0.0147;1.3;-7.78;22.43;15.6;41.52;27.2;-111.61;0.0;35.958298;-83.92447;775.92;NaN;0.0;17.892103;;0 / 15;7004;2022-10-28 14:00:38:952
5.7168;-4.3086;-1.8736;7.9614;-4.8815;-2.9928;-1.8612;0.2859;0.726;-0.4966;-0.5521;0.0078;0.0;-11.36;19.76;11.98;35.45;29.33;-110.65;0.0;35.958298;-83.92447;775.92;NaN;0.0;17.892103;;0 / 15;7504;2022-10-28 14:00:39:452
8.4787;-4.2242;-1.5162;8.2401;-4.5067;-2.8215;5.4923;-1.0857;-2.8862;-0.8328;-0.69;-0.4761;0.0;-15.9;24.49;7.97;15.97;29.61;-105.31;0.0;35.958298;-83.92447;775.92;NaN;0.0;17.892103;;0 / 15;8004;2022-10-28 14:00:39:952
11.1503;-6.3296;-1.1157;7.9412;-4.7183;-3.2934;1.2623;0.6442;0.0988;0.1162;-0.3783;-0.2277;0.0;-16.95;35.21;6.88;0.48;29.23;-111.82;0.0;35.958298;-83.92447;775.92;NaN;0.0;17.892103;;7 / 15;8505;2022-10-28 14:00:40:453
7.2951;-5.1461;-2.9282;8.0919;-4.8648;-2.6505;-2.0058;1.1683;0.4854;0.5329;0.0509;-0.1091;0.0;-18.81;43.05;4.37;354.94;29.59;-109.19;0.0;35.958298;-83.92447;775.92;NaN;0.0;17.892103;;7 / 15;9005;2022-10-28 14:00:40:953
5.6046;-3.1762;-3.3162;8.0436;-4.6461;-3.1439;-1.0497;1.4668;1.5561;0.7266;-0.5908;-0.2674;0.0;-18.9;45.75;7.63;1.0;28.28;-111.35;0.0;35.958298;-83.92447;775.92;NaN;0.0;17.892103;;7 / 15;9505;2022-10-28 14:00:41:453
5.9515;-3.1723;-0.39;7.6573;-4.9953;-3.5474;0.2377;-0.0965;-1.1712;0.2688;-1.3149;-0.2797;0.0;-18.41;47.34;9.36;3.25;30.47;-111.66;0.0;35.958298;-83.92447;775.92;NaN;0.0;17.892103;;7 / 15;10004;2022-10-28 14:00:41:952
15.478;-5.3222;-4.183;8.2695;-4.9087;-1.9211;9.7922;-1.3495;1.1157;0.8059;1.0145;-0.4212;0.0;-23.27;46.69;-0.69;346.57;31.22;-104.89;0.0;35.958298;-83.92447;775.92;NaN;0.0;17.892103;;7 / 15;10505;2022-10-28 14:00:42:453
6.6538;-5.4455;0.559;8.1231;-4.5931;-3.0147;2.774;-0.4336;1.3246;-0.11;-1.2016;0.1502;0.0;-29.63;38.36;-7.05;324.78;27.72;-105.77;0.0;35.958298;-83.92447;775.92;NaN;0.0;17.892103;;7 / 15;11004;2022-10-28 14:00:42:952
9.0099;-5.6635;-4.6681;7.741;-5.2574;-2.934;0.0501;0.5706;-1.6027;0.4915;-0.4619;-0.1284;0.0;-29.08;30.02;-0.3;316.38;32.42;-110.76;0.0;35.958298;-83.92447;775.92;NaN;0.0;17.892103;;7 / 15;11504;2022-10-28 14:00:43:452
6.7505;-4.2778;-2.9186;8.0376;-5.2147;-2.0914;-1.4181;1.073;-0.7486;0.544;-0.3044;-0.1484;0.0;-30.02;19.33;-3.45;275.65;32.2;-105.04;0.0;35.958298;-83.92447;775.92;NaN;0.0;17.892103;;7 / 15;12005;2022-10-28 14:00:43:953
6.3335;-4.4402;-2.33;7.5286;-5.4395;-3.1467;-0.603;1.3489;-0.0088;1.0009;-0.8127;-0.1032;0.0;-29.46;2.76;-2.04;226.02;33.08;-111.07;0.0;35.958298;-83.92447;775.92;NaN;0.0;17.892103;;7 / 15;12504;2022-10-28 14:00:44:452
7.5559;-4.5885;-0.2372;7.4577;-5.251;-3.6028;-0.2171;0.7683;2.7882;1.0057;-0.2476;-0.6527;0.0;-25.31;-4.56;0.32;215.84;32.8;-117.86;0.0;35.958298;-83.92447;775.92;NaN;0.0;17.892103;;7 / 15;13004;2022-10-28 14:00:44:952
8.1619;-4.1462;0.5321;7.8208;-4.6166;-3.7005;5.5724;-1.6042;0.4268;-0.2885;-0.4185;-0.1187;0.0;-23.89;-7.09;-1.84;217.06;28.08;-115.32;0.0;35.958298;-83.92447;775.92;NaN;0.0;17.892103;;7 / 15;13504;2022-10-28 14:00:45:452
6.1274;-2.7754;-1.4064;8.2295;-4.7209;-2.4816;-1.991;1.0309;0.6803;0.2217;-0.1616;-0.5094;0.0;-26.19;-4.16;-2.91;213.6;31.82;-107.4;0.0;35.958298;-83.92447;775.92;NaN;0.0;17.892103;;7 / 15;14004;2022-10-28 14:00:45:952
6.3706;-1.9914;-1.0807;8.6217;-4.1844;-2.0802;-2.1426;1.1319;1.4919;-0.395;0.0528;0.1981;1.3;-24.45;-6.84;-8.17;220.38;25.14;-102.99;0.0;35.958298;-83.92447;775.92;NaN;0.0;17.892103;;7 / 15;14505;2022-10-28 14:00:46:453
5.63;-3.7211;-1.7761;8.2189;-4.5906;-2.7471;0.7687;-0.4573;-1.7035;-0.7607;-0.1638;-0.0259;0.2;-24.51;-9.69;-9.56;221.56;28.68;-106.67;0.0;35.958298;-83.92447;775.92;NaN;0.0;17.892103;;7 / 15;15004;2022-10-28 14:00:46:952
16.1064;-2.8998;-1.2057;8.8365;-3.7532;-1.9998;5.3926;-2.3297;2.1429;-0.2884;0.2598;-0.3558;0.0;-26.01;-15.58;-6.24;205.8;22.5;-102.75;0.0;35.958298;-83.92447;775.92;NaN;0.0;17.892103;;7 / 15;15505;2022-10-28 14:00:47:453
12.746;-10.6478;-0.6942;8.4972;-4.5654;-1.7675;6.4962;-5.832;1.1408;0.4767;1.0199;0.3689;0.0;-24.58;-24.99;-6.66;201.71;25.44;-104.02;0.0;35.958298;-83.92447;775.92;NaN;0.0;17.892103;;7 / 15;16005;2022-10-28 14:00:47:953
10.2574;-7.0558;-0.3114;8.8372;-4.0873;-1.1697;1.2331;-4.3281;0.1546;0.0943;0.5024;0.1944;0.0;-23.36;-30.13;-8.48;199.3;23.15;-101.8;0.0;35.958298;-83.92447;775.92;NaN;0.0;17.892103;;7 / 15;16505;2022-10-28 14:00:48:453
17.4105;-11.1679;2.63;8.6511;-4.6132;-0.2162;0.2543;-0.4472;0.0121;1.4317;2.9817;0.3104;0.0;-21.97;-29.25;-17.47;213.3;26.24;-104.67;0.0;35.958298;-83.92447;775.92;NaN;0.0;17.892103;;7 / 15;17005;2022-10-28 14:00:48:953
9.2483;-5.9459;-2.0306;8.813;-3.8195;-1.978;-1.5635;-0.2155;-1.1577;0.1017;0.0369;-0.4807;0.0;-18.71;-25.05;-17.74;217.11;22.92;-102.65;0.0;35.958298;-83.92447;775.92;NaN;0.0;17.892103;;2 / 15;17504;2022-10-28 14:00:49:452
6.7202;-1.1468;-2.8795;8.5365;-4.0743;-2.5881;-1.6272;2.132;-0.983;0.9216;-0.9372;-0.1451;0.0;-8.44;-23.49;-10.63;209.24;24.5;-106.14;0.0;35.958298;-83.92447;775.92;NaN;0.0;17.892103;;2 / 15;18005;2022-10-28 14:00:49:953
6.67;-5.0752;-4.5849;8.7346;-3.7377;-2.4305;-2.6945;-1.1864;-2.2716;-0.0515;0.0798;-0.2346;0.0;0.79;-7.74;4.95;145.98;22.75;-105.78;0.0;35.958298;-83.92447;775.92;NaN;0.0;17.892103;;0 / 15;18504;2022-10-28 14:00:50:452
9.9844;-4.0699;-3.3054;8.9072;-3.8743;-1.35;0.3741;1.6816;-2.699;0.9548;-0.6626;0.0882;0.5;3.51;5.81;17.83;71.14;22.56;-96.66;0.0;35.958298;-83.92447;775.92;NaN;0.0;17.892103;;0 / 15;19005;2022-10-28 14:00:50:953
8.2687;-4.8176;-2.525;8.7558;-4.0756;-1.7015;-1.7271;0.3285;1.1147;-0.6047;-0.7313;-0.0121;0.4;-9.69;10.41;20.66;79.84;24.56;-101.0;0.0;35.958298;-83.92447;775.92;NaN;0.0;17.892103;;0 / 15;19504;2022-10-28 14:00:51:452
7.9265;-4.6496;0.2094;8.8976;-3.9649;-1.1329;0.257;2.8876;3.2712;1.2491;-0.1312;-0.4052;0.9;-16.99;14.79;20.04;72.44;24.42;-100.11;0.0;35.958298;-83.92447;775.92;NaN;0.0;17.892103;;0 / 15;20004;2022-10-28 14:00:51:952
8.4996;-3.1845;-0.0508;8.6385;-4.1196;-2.1391;1.4258;1.4012;2.3011;0.6889;-1.3658;-0.129;1.1;-18.9;25.01;19.95;45.92;22.1;-103.78;0.0;35.958298;-83.92447;775.92;NaN;0.0;17.892103;;0 / 15;20505;2022-10-28 14:00:52:453
8.6554;-4.1922;-4.8517;7.916;-5.0283;-2.8677;0.3585;1.4064;-1.1133;1.0388;-0.6433;-0.4495;3.3;-8.14;41.53;17.66;26.22;31.32;-110.07;0.0;35.958298;-83.92447;775.92;NaN;0.0;17.892103;;0 / 15;21005;2022-10-28 14:00:52:953
6.0999;-3.7143;-0.9311;8.5468;-4.3083;-2.1356;-0.9173;-1.235;3.0041;-0.5022;-2.0621;-0.2131;308.6;-13.93;36.17;9.0;11.86;26.06;-104.03;0.0;35.958298;-83.92447;775.92;NaN;0.0;17.892103;;0 / 15;21504;2022-10-28 14:00:53:452
4.2972;-2.6252;-1.3349;8.0012;-4.3931;-3.5849;0.6177;1.0456;-0.3114;-0.5761;-0.0467;-0.0053;6.2;-22.61;18.45;8.34;349.97;28.0;-111.04;0.0;35.958298;-83.92447;775.92;NaN;0.0;17.892103;;0 / 15;22005;2022-10-28 14:00:53:953
10.745;-2.5639;-3.1968;8.9102;-3.2803;-2.4531;3.5285;1.1616;-0.124;0.0101;0.0274;-0.1859;9.3;-31.26;1.46;4.67;192.43;20.07;-103.11;0.0;35.958298;-83.92447;775.92;NaN;0.0;17.892103;;0 / 15;22504;2022-10-28 14:00:54:452
16.4803;-9.8037;-1.2063;8.5249;-4.4266;-1.9753;8.4548;-6.0919;0.8153;0.6913;0.8167;0.4304;0.0;-33.28;-5.1;0.99;195.73;25.42;-100.82;0.0;35.958298;-83.92447;775.92;NaN;0.0;17.892103;;0 / 15;23005;2022-10-28 14:00:54:953
12.0939;-6.2931;-1.378;8.7048;-3.7418;-2.5289;1.6078;-1.9942;0.4299;0.2291;-0.3036;-0.0945;5.2;-32.89;1.33;-0.24;219.5;22.43;-106.2;0.0;35.958298;-83.92447;775.92;NaN;0.0;17.892103;;0 / 15;23504;2022-10-28 14:00:55:452
15.2423;-11.056;-3.5952;8.7371;-3.6708;-2.5216;1.9091;2.5186;0.824;1.5744;-0.344;-0.1477;0.0;-29.7;8.66;-0.56;257.46;21.88;-107.39;0.0;35.958298;-83.92447;775.92;NaN;0.0;17.892103;;0 / 15;24004;2022-10-28 14:00:55:952
9.897;-5.9034;-1.2446;8.8544;-3.5752;-2.2334;0.7569;-2.0159;0.6118;-0.0172;-0.0346;-0.2658;0.0;-24.6;19.01;-0.19;327.44;19.51;-104.54;0.0;35.958298;-83.92447;775.92;NaN;0.0;17.892103;;0 / 15;24505;2022-10-28 14:00:56:453
9.0649;-4.2224;-2.9106;8.3396;-4.0893;-3.1464;-0.7997;2.7943;1.0515;1.2745;-1.0856;-0.1701;0.0;-21.26;22.16;-0.75;327.85;24.5;-108.05;0.0;35.958298;-83.92447;775.92;NaN;0.0;17.892103;;0 / 15;25005;2022-10-28 14:00:56:953
6.4899;-3.6772;-2.5436;8.8061;-3.5519;-2.4511;-1.1315;-1.1693;-0.1392;0.6092;0.1561;-0.492;0.0;-18.58;26.38;-3.34;335.68;21.73;-105.57;0.0;35.958298;-83.92447;775.92;NaN;0.0;17.892103;;0 / 15;25504;2022-10-28 14:00:57:452
6.7077;-1.3235;-1.7124;8.572;-3.9738;-2.6268;-2.2715;0.7135;0.0021;-0.7284;-0.0402;0.3215;0.0;-19.74;26.38;-9.0;320.61;23.54;-105.6;0.0;35.958298;-83.92447;775.92;NaN;0.0;17.892103;;0 / 15;26005;2022-10-28 14:00:57:953
5.5017;-3.172;-1.0035;8.5253;-3.9649;-2.7872;-1.2489;0.7554;-0.9258;-0.76;-0.0415;-0.0263;0.0;-17.31;32.44;-10.58;326.87;23.85;-108.1;0.0;35.958298;-83.92447;775.92;NaN;0.0;17.892103;;1 / 3;26504;2022-10-28 14:00:58:452
5.645;-1.8685;-1.2491;8.6643;-3.7904;-2.5948;-0.4621;0.7542;3.5662;1.0713;-0.926;0.2957;0.0;-16.43;39.15;-11.27;335.08;20.72;-105.62;0.0;35.958298;-83.92447;775.92;NaN;0.0;17.892103;;1 / 3;27005;2022-10-28 14:00:58:953
12.6449;-5.8887;-0.1543;8.65;-3.7644;-2.6793;6.4569;-2.8805;1.8;1.0628;0.5954;-0.2897;0.0;-14.21;44.89;-11.25;338.93;21.43;-107.66;0.0;35.958298;-83.92447;775.92;NaN;0.0;17.892103;;1 / 3;27504;2022-10-28 14:00:59:452
11.3022;-6.111;-3.2273;8.3846;-4.2671;-2.7678;2.4073;-1.7153;-0.4736;0.0932;-0.6455;0.1213;0.0;-18.88;39.58;-19.63;321.5;25.18;-106.17;0.0;35.958298;-83.92447;775.92;NaN;0.0;17.892103;;1 / 3;28004;2022-10-28 14:00:59:952
5.886;-2.1057;-2.4021;8.5563;-4.0637;-2.5389;-0.5514;0.584;-1.6274;-0.8831;-0.3854;0.3046;0.8;-30.67;19.18;-19.12;284.95;24.48;-106.53;0.0;35.958298;-83.92447;775.92;NaN;0.0;17.892103;;1 / 3;28505;2022-10-28 14:01:00:453
6.1546;-3.2225;-1.4907;8.2366;-4.3907;-3.0084;-1.9832;-0.4666;1.8751;0.752;-0.2364;-0.0642;0.0;-36.96;15.86;-7.26;270.73;26.3;-111.69;0.0;35.958298;-83.92447;775.92;NaN;0.0;17.892103;;1 / 3;29004;2022-10-28 14:01:00:952
14.8639;-3.6706;-3.5898;8.9194;-3.5437;-2.0142;3.8729;-1.7132;0.7839;0.7313;0.1494;-0.1823;0.0;-39.94;12.79;-0.58;257.17;22.51;-105.46;0.0;35.958298;-83.92447;775.92;NaN;0.0;17.892103;;1 / 3;29505;2022-10-28 14:01:01:453
13.9849;-6.0449;-1.5502;8.3587;-3.8936;-3.338;0.5382;0.249;-0.4202;0.3241;-1.0117;-0.3554;0.0;-40.69;9.24;4.39;228.72;24.23;-108.77;0.0;35.958298;-83.92447;775.92;NaN;0.0;17.892103;;1 / 3;30005;2022-10-28 14:01:01:953
11.9961;-5.0279;-4.646;8.2292;-4.2413;-3.2345;1.172;0.9761;-2.4082;0.563;-0.6374;-0.243;0.0;-38.93;5.23;17.61;169.96;25.63;-111.46;0.0;35.958298;-83.92447;775.92;NaN;0.0;17.892103;;1 / 3;30504;2022-10-28 14:01:02:452
12.0844;-5.3779;-1.8936;8.5681;-4.0839;-2.4658;0.9617;1.5751;1.6598;1.1043;-2.0854;-0.107;0.4;-37.71;5.51;25.65;129.21;24.03;-105.35;0.0;35.958298;-83.92447;775.92;NaN;0.0;17.892103;;1 / 3;31004;2022-10-28 14:01:02:952
6.88;-2.7837;-2.3312;8.4826;-4.0303;-2.8236;-1.2928;1.3524;-0.0972;0.2949;-0.3226;-0.351;12.2;-37.69;8.03;25.74;132.87;25.5;-108.31;0.0;35.958298;-83.92447;775.92;NaN;0.0;17.892103;;1 / 3;31504;2022-10-28 14:01:03:452
6.1657;-1.7354;-0.775;8.7368;-3.5645;-2.6708;-1.0853;0.5618;1.1115;0.8225;-0.1239;0.4006;1.3;-54.19;7.18;23.66;152.18;18.97;-107.57;0.0;35.958298;-83.92447;775.92;NaN;0.0;17.892103;;1 / 3;32004;2022-10-28 14:01:03:952
11.5403;-10.6023;-5.7284;8.2056;-4.7486;-2.5077;6.4998;-3.6352;0.8884;0.6207;0.4335;0.2976;0.0;-62.32;10.01;22.71;170.52;28.96;-106.99;0.0;35.958298;-83.92447;775.92;NaN;0.0;17.892103;;1 / 3;32504;2022-10-28 14:01:04:452
12.9757;-6.3455;-0.7493;8.8255;-3.7123;-2.1211;1.2425;-2.8926;1.0732;-0.0942;-0.0102;0.0223;0.1;-60.84;8.94;23.38;161.25;21.78;-105.95;0.0;35.958298;-83.92447;775.92;NaN;0.0;17.892103;;1 / 3;33005;2022-10-28 14:01:04:953
8.5095;-3.3467;-2.0967;8.3394;-4.1705;-3.0383;-0.7261;1.6264;0.592;0.2756;-0.4472;0.1138;0.0;-57.22;6.66;19.29;181.1;24.94;-108.78;0.0;35.958298;-83.92447;775.92;NaN;0.0;17.892103;;1 / 3;33505;2022-10-28 14:01:05:453
6.0826;-4.1836;-2.275;8.7702;-3.6442;-2.444;-2.236;0.0569;-0.69;0.0693;-0.1563;-0.409;0.0;-57.75;10.95;16.26;178.44;23.09;-105.07;0.0;35.958298;-83.92447;775.92;NaN;0.0;17.892103;;1 / 3;34005;2022-10-28 14:01:05:953
5.6459;-0.5973;-1.9217;8.4274;-4.0055;-3.0175;-3.4002;0.9939;0.9669;-1.3035;-0.2294;0.5802;0.0;-59.98;9.98;13.14;206.91;24.11;-109.7;0.0;35.958298;-83.92447;775.92;NaN;0.0;17.892103;;1 / 3;34505;2022-10-28 14:01:06:453
5.3925;-1.9591;-2.2496;8.6152;-3.7616;-2.7926;-4.6917;0.5053;0.9488;0.0675;0.4515;-0.4394;0.0;-62.36;11.74;13.73;203.73;22.56;-107.96;0.0;35.958298;-83.92447;775.92;NaN;0.0;17.892103;;1 / 3;35005;2022-10-28 14:01:06:953
5.3548;-2.278;-1.6645;8.7256;-3.7979;-2.3686;-3.5618;1.8805;1.0604;0.0;0.1177;0.2666;0.0;-64.09;10.54;16.48;190.78;21.92;-106.42;0.0;35.958298;-83.92447;775.92;NaN;0.0;17.892103;;1 / 2;35505;2022-10-28 14:01:07:453
4.3639;-1.6962;-2.3692;8.4374;-4.2024;-2.7056;-1.0465;0.5486;1.6661;0.1501;-0.2275;-0.2462;0.0;-61.41;19.54;20.44;178.55;25.97;-107.92;0.0;35.958298;-83.92447;775.92;NaN;0.0;17.892103;;1 / 2;36004;2022-10-28 14:01:07:952
5.5409;-1.5829;-1.6582;8.7038;-3.6025;-2.7269;-0.4001;1.8992;1.0891;0.1012;-0.6922;0.1083;0.0;-57.56;31.5;22.97;33.72;21.55;-107.4;0.0;35.958298;-83.92447;775.92;NaN;0.0;17.892103;;0 / 5;36504;2022-10-28 14:01:08:452
9.987;-4.5171;-0.6619;8.6351;-3.9493;-2.4514;6.5742;-1.47;0.5539;0.8718;0.7056;-0.2025;0.2;-58.18;42.62;20.66;16.66;23.75;-105.85;0.0;35.958298;-83.92447;775.92;NaN;0.0;17.892103;;0 / 5;37004;2022-10-28 14:01:08:952
11.3001;-3.6975;-2.2328;8.5443;-4.1978;-2.3546;2.7765;0.6051;-1.3867;0.3311;-0.7173;0.0387;0.1;-66.41;52.82;5.12;319.07;25.22;-110.16;0.0;35.958298;-83.92447;775.92;NaN;0.0;17.892103;;0 / 8;37504;2022-10-28 14:01:09:452
9.8916;-3.9404;-2.8825;8.5896;-4.1766;-2.2239;0.0772;0.9921;-1.2554;0.2475;-0.7979;0.2631;2.5;-85.86;41.91;-5.08;280.43;24.26;-101.72;0.0;35.958298;-83.92447;775.92;NaN;0.0;17.892103;;0 / 8;38004;2022-10-28 14:01:09:952
6.5366;-4.9364;-2.9844;8.1875;-4.9171;-2.2263;-0.7361;-0.309;-1.2313;1.1156;-1.3039;-0.1316;1.1;-88.35;39.38;19.13;202.76;30.09;-105.21;0.0;35.958298;-83.92447;775.92;NaN;0.0;17.892103;;0 / 8;38504;2022-10-28 14:01:10:452
6.3562;-4.9693;3.2509;8.4569;-4.8963;0.8234;0.1447;1.5272;5.2026;1.2683;-0.225;-0.1056;0.3;-63.0;61.88;25.84;52.68;30.62;-87.53;0.0;35.958298;-83.92447;775.92;NaN;0.0;17.892103;;0 / 8;39005;2022-10-28 14:01:10:953
8.0447;-4.5066;2.6608;8.302;-5.0262;1.4089;-0.3866;0.7365;0.688;0.6111;1.4856;0.1581;5.9;-46.76;75.92;19.76;26.97;29.72;-87.6;0.0;35.958298;-83.92447;775.92;NaN;0.0;17.892103;;0 / 8;39505;2022-10-28 14:01:11:453
6.7579;-3.1229;-0.7343;8.7568;-3.8802;-2.1052;-1.7755;0.7328;0.787;0.0091;-2.0146;-0.6974;0.0;-51.43;69.84;18.98;11.49;25.62;-101.87;0.0;35.958298;-83.92447;775.92;NaN;0.0;17.892103;;0 / 8;40007;2022-10-28 14:01:11:955
7.0531;-2.1488;-2.1356;8.383;-4.1162;-2.992;-2.3194;1.3497;0.847;-0.1963;-0.0284;0.3168;408.6;-51.62;52.48;20.23;4.51;24.26;-109.05;0.0;35.958298;-83.92447;775.92;NaN;0.0;17.892103;;0 / 8;40504;2022-10-28 14:01:12:452
6.6835;-3.6664;-3.064;8.3299;-4.2961;-2.8855;-2.5825;2.1817;0.9746;-0.1668;0.3355;-0.2497;10.4;-46.8;46.61;18.04;3.33;27.02;-109.69;0.0;35.958298;-83.92447;775.92;NaN;0.0;17.892103;;0 / 8;41006;2022-10-28 14:01:12:954
3.2545;-2.26;-1.4169;8.3613;-4.1305;-3.0329;-4.7388;1.7495;1.4206;-0.3951;-0.1009;0.3941;0.3;-47.83;43.61;15.13;356.52;24.07;-108.72;0.0;35.958298;-83.92447;775.92;NaN;0.0;17.892103;;0 / 8;41505;2022-10-28 14:01:13:453
5.9013;-2.3121;-1.4204;8.4424;-4.1363;-2.7906;-5.5023;0.936;1.1879;-0.0482;0.0188;-0.3695;0.8;-46.67;39.79;13.39;349.76;26.76;-108.39;0.0;35.958298;-83.92447;775.92;NaN;0.0;17.892103;;0 / 8;42005;2022-10-28 14:01:13:953
6.7223;-2.9988;-0.3691;8.6505;-3.7882;-2.6435;-0.0131;-0.7053;0.4163;-0.3272;-0.2964;0.3609;3.9;-51.32;39.49;6.56;340.29;21.24;-104.95;0.0;35.958298;-83.92447;775.92;NaN;0.0;17.892103;;0 / 8;42504;2022-10-28 14:01:14:452
4.4716;-4.2652;-0.8447;8.0887;-4.4919;-3.2507;1.5709;0.5316;-2.6092;-0.0522;0.0519;0.0253;0.0;-51.47;44.19;3.99;317.83;27.51;-111.39;0.0;35.958298;-83.92447;775.92;NaN;0.0;17.892103;;0 / 8;43004;2022-10-28 14:01:14:952
8.9157;-4.2586;-4.1629;8.6429;-3.7317;-2.7467;9.1761;0.7995;-1.8106;-0.056;-0.4819;-0.0512;0.0;-55.24;49.95;2.34;330.49;22.37;-107.63;0.0;35.958298;-83.92447;775.92;NaN;0.0;17.892103;;0 / 8;43504;2022-10-28 14:01:15:452
8.7984;-4.9262;-1.4662;8.147;-4.4689;-3.1346;2.3849;-1.2211;-3.749;-1.453;-0.7934;0.2737;0.0;-50.18;52.39;3.56;332.36;27.4;-108.97;0.0;35.958298;-83.92447;775.92;NaN;0.0;17.892103;;0 / 8;44004;2022-10-28 14:01:15:952
13.672;-5.3629;-0.5713;8.8177;-3.7224;-2.1359;2.453;-2.5408;1.0671;0.0909;0.1112;-0.144;0.0;-51.06;56.19;6.68;342.06;22.99;-109.37;0.0;35.958298;-83.92447;775.92;NaN;0.0;17.892103;;3 / 8;44504;2022-10-28 14:01:16:452
8.2355;-0.9673;-2.8723;8.3791;-4.2203;-2.8547;-0.0971;3.284;-0.2953;1.1115;-1.2276;-0.3213;0.0;-58.01;57.34;7.91;341.58;25.63;-106.47;0.0;35.958298;-83.92447;775.92;NaN;0.0;17.892103;;3 / 8;45004;2022-10-28 14:01:16:952
5.5229;-4.9753;-3.728;8.3764;-4.1271;-2.9955;-2.6953;-0.2473;-0.4947;0.7733;0.1945;-0.5243;0.0;-52.33;56.44;1.13;331.13;24.89;-109.68;0.0;35.958298;-83.92447;775.92;NaN;0.0;17.892103;;0 / 8;45505;2022-10-28 14:01:17:453
9.5453;-3.4974;-4.4423;8.8737;-3.8397;-1.6382;-0.6215;0.7537;-1.4825;0.2412;1.2454;-0.1356;0.0;-49.84;45.47;-7.01;321.29;22.95;-103.56;0.0;35.958298;-83.92447;775.92;NaN;0.0;17.892103;;0 / 8;46004;2022-10-28 14:01:17:952
8.0163;-3.1193;1.6128;8.6866;-4.137;-1.8969;-0.0564;0.3789;2.7676;-0.0648;1.0116;-0.1016;0.0;-46.56;33.84;-21.96;295.11;24.09;-98.11;0.0;35.958298;-83.92447;775.92;NaN;0.0;17.892103;;0 / 8;46504;2022-10-28 14:01:18:452
14.7646;-3.3532;-4.3747;9.0641;-3.3912;-1.5851;5.7736;-2.9898;1.5844;1.4232;0.6648;-0.6241;1.3;-50.47;14.87;-27.43;268.42;21.23;-104.63;0.0;35.958298;-83.92447;775.92;NaN;0.0;17.892103;;0 / 8;47005;2022-10-28 14:01:18:953
9.5704;-2.6243;-3.0057;8.0994;-4.3223;-3.4478;-0.8013;1.7018;-0.0877;0.4329;-0.4432;-0.1073;0.0;-49.78;-3.04;-19.61;242.81;26.15;-113.06;0.0;35.958298;-83.92447;775.92;NaN;0.0;17.892103;;0 / 8;47505;2022-10-28 14:01:19:453
6.6449;-4.2652;-3.6281;8.1681;-4.5688;-2.9289;-0.7391;0.0239;-1.2663;0.8111;-0.3489;-0.392;1.3;-43.82;-0.02;-8.89;232.66;27.98;-110.03;0.0;35.958298;-83.92447;775.92;NaN;0.0;17.892103;;0 / 8;48004;2022-10-28 14:01:19:952
5.7864;-3.1038;-0.5396;8.3276;-4.2578;-2.9483;-2.18;1.328;2.3913;0.159;-0.0662;-0.3778;0.0;-35.51;7.97;2.12;236.18;25.88;-111.81;0.0;35.958298;-83.92447;775.92;NaN;0.0;17.892103;;0 / 8;48505;2022-10-28 14:01:20:453
13.1303;-3.9075;-2.3046;8.8705;-3.7196;-1.9102;1.2787;0.3202;-2.1928;0.1658;-0.3137;-0.2139;0.0;-36.13;9.02;9.54;154.21;23.06;-100.85;0.0;35.958298;-83.92447;775.92;NaN;0.0;17.892103;;0 / 8;49005;2022-10-28 14:01:20:953
7.0884;-2.371;-2.4802;8.6593;-3.7327;-2.6934;-0.6934;2.1265;-3.975;-0.344;-0.6826;-0.3668;12.2;-38.31;18.11;15.69;75.6;22.37;-107.28;0.0;35.958298;-83.92447;775.92;NaN;0.0;17.892103;;0 / 8;49505;2022-10-28 14:01:21:453
7.8535;-3.568;-4.1782;8.7989;-3.4294;-2.6436;0.9337;0.4504;-2.7104;0.1633;-0.1906;0.2307;0.5;-37.28;22.22;15.79;35.29;20.47;-106.72;0.0;35.958298;-83.92447;775.92;NaN;0.0;17.892103;;0 / 8;50004;2022-10-28 14:01:21:952
9.9329;-8.1437;-4.0101;8.3088;-4.1023;-3.2101;4.5239;-5.1393;-0.1224;1.6223;0.0744;-0.3626;0.0;-39.43;21.19;12.39;351.75;23.84;-107.66;0.0;35.958298;-83.92447;775.92;NaN;0.0;17.892103;;0 / 8;50504;2022-10-28 14:01:22:452
13.1614;-4.8915;-1.7665;8.5683;-3.5808;-3.1516;1.3426;-2.5732;0.4806;-0.34;-0.1273;0.3071;0.0;-42.62;18.38;9.15;286.5;20.39;-109.29;0.0;35.958298;-83.92447;775.92;NaN;0.0;17.892103;;0 / 8;51004;2022-10-28 14:01:22:952
7.4492;-2.187;-2.0067;8.2286;-4.2276;-3.2538;-0.7494;3.074;1.1347;0.2513;-0.2352;0.1064;0.0;-49.86;13.03;5.7;234.11;25.54;-111.57;0.0;35.958298;-83.92447;775.92;NaN;0.0;17.892103;;0 / 8;51505;2022-10-28 14:01:23:453
8.2427;-4.9591;-2.6773;8.4933;-4.0363;-2.7826;-3.4079;-0.0238;-0.4346;-0.2885;0.0444;-0.3105;0.0;-54.6;12.34;5.25;227.8;24.3;-108.14;0.0;35.958298;-83.92447;775.92;NaN;0.0;17.892103;;0 / 8;52005;2022-10-28 14:01:23:953
7.5296;-0.3909;-2.8576;8.1846;-4.2377;-3.3503;-0.9193;3.3793;0.0056;-1.4856;0.5955;0.6273;0.0;-56.66;15.47;7.22;237.4;25.32;-112.9;0.0;35.958298;-83.92447;775.92;NaN;0.0;17.892103;;0 / 8;52504;2022-10-28 14:01:24:452
6.2465;-4.5287;-3.8213;8.3629;-3.9836;-3.2191;-2.8153;1.1234;-0.8509;0.1481;-0.0358;-0.484;0.0;-54.84;20.79;10.93;243.53;25.33;-110.94;0.0;35.958298;-83.92447;775.92;NaN;0.0;17.892103;;0 / 8;53005;2022-10-28 14:01:24:953
5.409;-2.3348;-2.5277;8.3324;-4.3954;-2.7244;-3.0201;1.6084;0.8928;-0.1125;0.277;0.2262;0.0;-52.99;21.96;13.35;221.06;26.63;-108.11;0.0;35.958298;-83.92447;775.92;NaN;0.0;17.892103;;2 / 8;53506;2022-10-28 14:01:25:454
5.8687;-3.2901;-2.9599;8.2739;-4.3938;-2.8996;-4.5041;1.6599;2.0769;0.317;-0.0346;-0.6327;0.0;-51.39;22.26;13.88;215.8;28.27;-109.73;0.0;35.958298;-83.92447;775.92;NaN;0.0;17.892103;;2 / 8;54005;2022-10-28 14:01:25:953
5.289;-2.8011;-3.0568;8.474;-4.2235;-2.5543;-3.3084;1.3581;-0.0711;0.2206;0.0148;0.0984;0.0;-52.72;24.64;14.42;264.22;24.94;-108.86;0.0;35.958298;-83.92447;775.92;NaN;0.0;17.892103;;0 / 8;54505;2022-10-28 14:01:26:453
8.9468;-6.4274;-2.1996;8.391;-4.1635;-2.9028;0.3639;-2.3007;0.5541;-0.4748;-0.6553;0.0836;0.0;-50.18;38.55;15.81;12.17;24.81;-104.59;0.0;35.958298;-83.92447;775.92;NaN;0.0;17.892103;;0 / 8;55004;2022-10-28 14:01:26:952
9.0682;-1.3573;0.5246;8.3937;-4.2701;-2.7354;1.8505;3.1484;2.326;1.5767;-0.3767;-0.7131;0.0;-44.42;57.56;22.29;13.21;25.81;-108.05;0.0;35.958298;-83.92447;775.92;NaN;0.0;17.892103;;0 / 8;55505;2022-10-28 14:01:27:453
14.8528;-2.5759;-1.6029;8.8951;-3.8793;-1.4141;1.1523;1.7746;-1.024;-0.0997;0.6228;-0.0982;0.0;-45.92;67.31;10.99;3.33;23.45;-100.44;0.0;35.958298;-83.92447;775.92;NaN;0.0;17.892103;;0 / 8;56004;2022-10-28 14:01:27:952
7.3176;-4.2117;-2.9133;7.9309;-5.0316;-2.8202;-0.6958;0.9267;-0.1893;1.1949;-0.5961;-0.3561;1.0;-38.21;63.53;1.07;341.89;29.97;-110.31;0.0;35.958298;-83.92447;775.92;NaN;0.0;17.892103;;0 / 8;56504;2022-10-28 14:01:28:452
7.8808;-4.8891;-0.1549;8.6619;-4.5565;-0.6168;-1.2662;-1.2284;2.0739;0.9305;-0.6598;-0.1626;0.0;-47.77;35.33;-9.81;304.87;28.29;-92.25;0.0;35.958298;-83.92447;775.92;NaN;0.0;17.892103;;0 / 8;57005;2022-10-28 14:01:28:953
12.7977;-10.1743;-0.3541;8.314;-4.7152;-2.1944;6.9471;-5.5144;0.8202;1.2814;1.8199;-0.0641;0.0;-61.37;10.07;-7.95;241.69;26.79;-110.53;0.0;35.958298;-83.92447;775.92;NaN;0.0;17.892103;;0 / 9;57505;2022-10-28 14:01:29:453
16.523;-4.0603;-3.5504;8.8085;-3.665;-2.2692;2.8582;-2.0189;0.0749;1.0638;1.4733;-0.5453;0.0;-61.82;1.03;-0.34;226.88;22.27;-111.19;0.0;35.958298;-83.92447;775.92;NaN;0.0;17.892103;;0 / 9;58004;2022-10-28 14:01:29:952
16.6463;-9.7708;-2.15;8.3711;-4.4233;-2.5553;0.1766;0.8916;0.7697;0.6435;0.7248;0.0682;0.0;-60.71;1.26;2.18;211.75;26.81;-106.97;0.0;35.958298;-83.92447;775.92;NaN;0.0;17.892103;;0 / 9;58505;2022-10-28 14:01:30:453
12.4113;-5.6501;-1.884;8.4823;-4.0921;-2.7343;1.2413;-1.7444;1.224;0.3267;0.3366;-0.0077;0.0;-63.07;8.27;2.42;232.66;24.16;-112.34;0.0;35.958298;-83.92447;775.92;NaN;0.0;17.892103;;0 / 9;59005;2022-10-28 14:01:30:953
12.9691;-7.1228;-2.7843;8.3311;-4.4573;-2.626;1.6564;0.0534;-0.2651;0.9924;-1.1253;-0.2165;0.0;-66.54;15.81;-0.36;239.51;26.45;-110.27;0.0;35.958298;-83.92447;775.92;NaN;0.0;17.892103;;0 / 9;59504;2022-10-28 14:01:31:452
7.6932;-5.8161;-2.8729;8.5692;-3.9375;-2.6898;-2.2391;-0.1499;-0.2712;-0.0463;0.2525;-0.3303;0.0;-72.08;25.91;-0.58;258.3;24.81;-108.48;0.0;35.958298;-83.92447;775.92;NaN;0.0;17.892103;;0 / 9;60004;2022-10-28 14:01:31:952
8.0614;-1.6597;-2.3112;8.2743;-4.4251;-2.8505;-1.2751;2.28;-0.3048;0.0086;-0.3638;0.1184;0.0;-75.24;33.88;-0.24;266.12;26.82;-109.01;0.0;35.958298;-83.92447;775.92;NaN;0.0;17.892103;;0 / 9;60504;2022-10-28 14:01:32:452
5.6856;-3.3849;-2.4508;8.4268;-4.0338;-2.9813;-3.2265;1.258;0.5799;0.2193;-0.3183;-0.3573;0.0;-69.45;39.66;3.75;291.79;25.3;-109.8;0.0;35.958298;-83.92447;775.92;NaN;0.0;17.892103;;0 / 9;61004;2022-10-28 14:01:32:952
6.0024;-2.3435;-2.5983;8.3219;-4.1808;-3.0721;-3.0521;1.1367;0.977;-0.845;0.1781;0.3763;0.0;-64.37;37.82;5.34;296.88;24.92;-109.26;0.0;35.958298;-83.92447;775.92;NaN;0.0;17.892103;;0 / 9;61504;2022-10-28 14:01:33:452
5.6536;-2.5448;-2.784;8.4618;-4.1143;-2.7643;-2.692;1.8932;0.1572;0.6063;0.2421;-0.5537;0.0;-58.14;40.13;6.88;309.32;26.0;-110.21;0.0;35.958298;-83.92447;775.92;NaN;0.0;17.892103;;0 / 9;62005;2022-10-28 14:01:33:953
5.4625;-2.1945;-3.6625;8.6146;-3.8917;-2.6102;-2.6652;2.1736;0.844;-0.1926;0.4147;0.2071;0.0;-56.63;37.99;1.97;311.66;23.38;-106.86;0.0;35.958298;-83.92447;775.92;NaN;0.0;17.892103;;3 / 8;62504;2022-10-28 14:01:34:452
5.7386;-2.6964;-0.3075;8.6456;-4.429;-1.3442;-2.4186;1.8373;0.4894;3.1076;0.2334;-0.5645;0.0;-49.13;32.25;-1.03;297.73;24.94;-111.55;0.0;35.958298;-83.92447;775.92;NaN;0.0;17.892103;;3 / 8;63004;2022-10-28 14:01:34:952
10.2168;-2.8328;-0.8746;8.4152;-4.2231;-2.7423;3.4546;0.1749;0.6306;0.4597;-0.2623;-0.1089;0.0;-48.39;22.28;-9.56;273.8;25.7;-109.81;0.0;35.958298;-83.92447;775.92;NaN;0.0;17.892103;;3 / 8;63505;2022-10-28 14:01:35:453
7.9385;-2.4927;-2.3145;8.4422;-4.2481;-2.6179;-2.1893;1.2087;-0.159;-0.3061;-0.2031;0.4578;0.0;-53.19;17.83;-1.93;254.56;24.46;-105.77;0.0;35.958298;-83.92447;775.92;NaN;0.0;17.892103;;3 / 8;64004;2022-10-28 14:01:35:952
5.6441;-2.1197;-2.4984;8.2066;-4.517;-2.9016;-3.4897;1.4556;0.7766;0.5341;-0.1851;-0.6044;0.0;-47.21;12.64;10.95;206.64;27.43;-109.47;0.0;35.958298;-83.92447;775.92;NaN;0.0;17.892103;;3 / 8;64505;2022-10-28 14:01:36:453
6.1651;-2.916;-1.6651;8.496;-4.12;-2.6485;-1.2643;2.5542;1.4809;0.5923;-0.0874;0.2172;0.0;-44.36;5.34;11.55;188.67;24.05;-107.94;0.0;35.958298;-83.92447;775.92;NaN;0.0;17.892103;;3 / 8;65004;2022-10-28 14:01:36:952
9.2686;-6.5169;-2.2627;8.1472;-4.5869;-2.9588;3.4763;-3.1906;1.7392;2.0269;0.4357;-0.3309;0.0;-41.34;2.7;15.84;173.55;27.3;-108.74;0.0;35.958298;-83.92447;775.92;NaN;0.0;17.892103;;3 / 8;65504;2022-10-28 14:01:37:452
9.6598;-2.9665;0.2916;8.2636;-4.3786;-2.9514;0.7789;2.4426;2.7601;1.5687;-0.0198;-0.6495;0.0;-38.03;4.13;21.17;165.05;26.67;-113.34;0.0;35.958298;-83.92447;775.92;NaN;0.0;17.892103;;3 / 8;66005;2022-10-28 14:01:37:953
8.5693;-5.0734;0.2557;8.6584;-4.1845;-1.9218;-1.2303;-0.6171;1.0578;-0.3024;1.1702;0.2383;0.0;-44.87;4.56;19.54;148.7;25.26;-102.51;0.0;35.958298;-83.92447;775.92;NaN;0.0;17.892103;;3 / 8;66504;2022-10-28 14:01:38:452
6.3398;-4.5359;-3.2094;8.733;-3.5037;-2.7622;-1.8451;-0.8966;0.0363;0.2443;-0.0123;-0.3468;0.0;-47.18;3.73;19.44;164.61;20.93;-107.55;0.0;35.958298;-83.92447;775.92;NaN;0.0;17.892103;;3 / 8;67004;2022-10-28 14:01:38:952
7.485;-1.3217;-2.9492;8.2641;-4.3954;-2.9251;-1.1851;2.5518;-0.3391;-0.899;0.7188;0.5419;0.0;-50.21;-5.91;18.04;178.1;25.21;-108.79;0.0;35.958298;-83.92447;775.92;NaN;0.0;17.892103;;3 / 8;67505;2022-10-28 14:01:39:453
6.8623;-4.206;-2.3387;8.6812;-3.9256;-2.3233;-2.6319;1.1495;-0.8836;0.6099;0.0745;-0.6581;0.0;-51.17;-8.06;17.4;175.88;25.29;-106.12;0.0;35.958298;-83.92447;775.92;NaN;0.0;17.892103;;3 / 8;68005;2022-10-28 14:01:39:953
5.8816;-2.045;-1.4384;8.3246;-4.2475;-2.9714;-4.1382;1.6559;1.567;-0.6743;0.4495;0.3356;0.0;-51.99;-7.91;16.39;184.48;25.67;-109.64;0.0;35.958298;-83.92447;775.92;NaN;0.0;17.892103;;3 / 8;68505;2022-10-28 14:01:40:453
6.5267;-4.2921;-3.7496;8.5;-3.8638;-2.9987;-3.094;1.4309;0.0922;0.2782;0.1944;-0.4943;0.0;-49.33;1.76;14.87;186.71;23.2;-109.43;0.0;35.958298;-83.92447;775.92;NaN;0.0;17.892103;;3 / 8;69005;2022-10-28 14:01:40:953
4.0283;-1.4303;-1.5969;8.1824;-4.0437;-3.5872;-4.1295;2.4071;1.9012;-1.2224;0.257;0.5604;0.0;-46.87;9.83;12.21;217.28;23.7;-113.44;0.0;35.958298;-83.92447;775.92;NaN;0.0;17.892103;;3 / 8;69505;2022-10-28 14:01:41:453
6.4854;-4.4868;-2.3563;8.3927;-3.8222;-3.3352;-1.8075;-0.0309;-0.0289;0.2337;-0.2624;-0.3089;0.0;-37.26;17.63;14.46;341.95;23.5;-111.07;0.0;35.958298;-83.92447;775.92;NaN;0.0;17.892103;;3 / 8;70005;2022-10-28 14:01:41:953
7.0795;-2.3031;-3.1762;8.5535;-3.98;-2.6772;-0.9793;1.3151;-1.3063;-1.2819;0.7439;0.4194;0.0;-37.2;17.51;13.5;79.62;23.94;-107.38;0.0;35.958298;-83.92447;775.92;NaN;0.0;17.892103;;3 / 8;70504;2022-10-28 14:01:42:452
5.49;-2.0967;-2.0761;8.234;-4.5561;-2.7595;-3.7451;1.0725;1.1456;0.1291;0.0367;-0.2921;0.0;-30.3;16.97;15.84;100.22;28.3;-109.1;0.0;35.958298;-83.92447;775.92;NaN;0.0;17.892103;;3 / 8;71004;2022-10-28 14:01:42:952
7.4593;-2.0967;-1.5422;8.4915;-4.0899;-2.7089;-0.1709;1.7565;1.165;0.4126;-1.0575;0.0333;0.0;-24.22;8.61;18.94;105.01;23.39;-106.68;0.0;35.958298;-83.92447;775.92;NaN;0.0;17.892103;;3 / 6;71505;2022-10-28 14:01:43:453
10.357;-3.6754;1.2389;8.5818;-4.7082;-0.5963;1.9945;0.8771;1.9917;2.5235;0.4778;-0.1947;0.0;-15.9;3.79;22.24;104.45;27.71;-97.14;0.0;35.958298;-83.92447;775.92;NaN;0.0;17.892103;;3 / 6;72005;2022-10-28 14:01:43:953
10.7836;-4.7572;-0.885;8.3355;-4.4564;-2.6135;3.6872;-1.7768;0.0354;0.7183;-0.2132;-0.2269;0.0;-10.54;14.61;15.45;59.27;27.03;-107.41;0.0;35.958298;-83.92447;775.92;NaN;0.0;17.892103;;0 / 6;72506;2022-10-28 14:01:44:454
9.1771;-3.4747;-2.7018;8.7863;-4.0752;-1.5376;1.2919;0.809;-1.1759;-0.2871;-0.0567;0.2909;1.2;-20.44;17.59;10.97;44.47;23.79;-99.22;0.0;35.958298;-83.92447;775.92;NaN;0.0;17.892103;;0 / 6;73004;2022-10-28 14:01:44:952
7.8413;-4.9487;-2.0231;8.3467;-4.742;-2.0038;-0.3453;-0.2299;0.3817;2.4702;-2.3497;-0.0132;0.8;-23.83;19.11;15.86;67.82;28.03;-103.59;0.0;35.958298;-83.92447;775.92;NaN;0.0;17.892103;;0 / 6;73504;2022-10-28 14:01:45:452
9.1304;-0.7071;0.8363;8.412;-4.2706;-2.6778;0.8614;1.6577;2.3005;1.073;-0.4325;-0.6355;0.0;-25.61;19.65;10.11;0.47;26.61;-110.95;0.0;35.958298;-83.92447;775.92;NaN;0.0;17.892103;;0 / 6;74005;2022-10-28 14:01:45:953
6.8055;-1.9801;-1.0911;8.0467;-4.5639;-3.2544;-0.8526;2.9464;1.7257;-0.2766;-0.3402;0.386;3.5;-20.92;2.33;9.0;174.14;26.91;-111.0;0.0;35.958298;-83.92447;775.92;NaN;0.0;17.892103;;0 / 6;74504;2022-10-28 14:01:46:452
7.017;-4.7985;-2.9429;8.5985;-3.9258;-2.6123;-2.8017;-0.2359;-0.4597;0.3126;0.2984;-0.5852;0.0;-16.28;-4.46;14.59;143.37;25.18;-108.87;0.0;35.958298;-83.92447;775.92;NaN;0.0;17.892103;;0 / 6;75004;2022-10-28 14:01:46:952
5.5316;-3.0784;-2.2893;8.568;-3.9568;-2.6652;-3.0614;1.7695;0.7957;-0.2933;0.2889;0.356;0.0;-11.57;-7.54;14.87;141.94;23.8;-107.28;0.0;35.958298;-83.92447;775.92;NaN;0.0;17.892103;;0 / 6;75505;2022-10-28 14:01:47:453
5.4763;-1.8287;-2.2615;8.1918;-4.2619;-3.3016;-3.8407;2.4591;1.4019;-0.6447;0.1749;-0.2801;0.0;-3.64;-5.83;16.5;124.84;27.26;-111.92;0.0;35.958298;-83.92447;775.92;NaN;0.0;17.892103;;0 / 6;76004;2022-10-28 14:01:47:952
4.6436;-2.5262;-1.3128;8.3129;-4.2126;-3.053;-3.0032;2.3214;2.1529;0.3728;-0.4132;0.192;0.0;1.31;-0.11;14.46;97.5;24.58;-111.65;0.0;35.958298;-83.92447;775.92;NaN;0.0;17.892103;;0 / 6;76505;2022-10-28 14:01:48:453
4.483;-2.3578;-1.2649;8.1083;-4.5956;-3.0504;-1.3371;0.3871;2.0965;1.0271;0.1066;-0.3945;0.0;4.73;5.23;10.88;69.39;27.73;-113.24;0.0;35.958298;-83.92447;775.92;NaN;0.0;17.892103;;0 / 6;77005;2022-10-28 14:01:48:953
13.2817;-3.4172;-4.2535;8.7886;-3.8017;-2.116;3.5142;0.2871;2.2681;0.2306;0.1578;-0.1287;0.0;0.08;10.09;2.64;18.06;22.81;-103.54;0.0;35.958298;-83.92447;775.92;NaN;0.0;17.892103;;0 / 6;77504;2022-10-28 14:01:49:452
7.4396;-3.117;-0.6081;8.1729;-4.3288;-3.2612;0.1339;-0.6847;-1.3206;-2.091;-0.6585;-0.1696;0.0;-2.32;12.39;-1.42;350.79;28.42;-108.74;0.0;35.958298;-83.92447;775.92;NaN;0.0;17.892103;;0 / 6;78005;2022-10-28 14:01:49:953
9.2022;-3.2279;-5.2478;8.6746;-3.6214;-2.7941;5.0716;2.5222;-2.2002;-0.5582;-0.5747;0.1025;0.0;-4.14;17.66;-3.88;342.6;21.65;-105.43;0.0;35.958298;-83.92447;775.92;NaN;0.0;17.892103;;0 / 6;78505;2022-10-28 14:01:50:453
14.6644;-12.233;-7.8882;8.2801;-4.6399;-2.4659;3.5628;-1.3473;0.5742;0.4232;0.8977;0.0102;0.0;2.68;22.59;-5.12;350.92;27.77;-111.0;0.0;35.958298;-83.92447;775.92;NaN;0.0;17.892103;;0 / 6;79005;2022-10-28 14:01:50:953
18.2193;-7.0008;-1.4767;8.767;-3.7856;-2.2315;2.2477;-4.0068;-0.0067;0.4548;0.669;0.0464;0.0;6.02;31.84;-7.46;350.71;22.71;-104.28;0.0;35.958298;-83.92447;775.92;NaN;0.0;17.892103;;0 / 6;79504;2022-10-28 14:01:51:452
14.9043;-9.6999;-2.814;8.3316;-4.6481;-2.2693;3.5729;0.4101;-0.2971;1.4064;-0.0609;-0.377;0.0;2.91;36.15;-10.91;345.59;26.65;-112.09;0.0;35.958298;-83.92447;775.92;NaN;0.0;17.892103;;0 / 6;80004;2022-10-28 14:01:51:952
6.1657;-5.7033;-3.291;8.2676;-4.5909;-2.5962;-3.0741;-0.3618;-0.3194;1.2785;-0.6552;-0.4552;0.0;1.58;28.09;-19.14;328.24;28.2;-107.55;0.0;35.958298;-83.92447;775.92;NaN;0.0;17.892103;;0 / 5;80505;2022-10-28 14:01:52:453
9.9975;-2.9237;-3.5357;8.8112;-4.0295;-1.5157;-0.0098;0.9234;-2.9114;0.7132;-0.0596;-0.1519;0.0;-18.47;-0.97;-22.37;254.98;24.44;-100.06;0.0;35.958298;-83.92447;775.92;NaN;0.0;17.892103;;0 / 5;81005;2022-10-28 14:01:52:953
7.445;-3.0075;-2.8041;8.3658;-4.2517;-2.8471;-1.1821;0.0789;-0.7621;0.9471;-0.6567;-0.1881;0.0;-26.34;-16.01;-11.62;220.13;25.69;-108.79;0.0;35.958298;-83.92447;775.92;NaN;0.0;17.892103;;0 / 4;81505;2022-10-28 14:01:53:453
8.6498;-2.1655;0.2375;8.6759;-4.2829;-1.5988;0.2113;1.5829;2.3681;1.5728;0.0646;-0.4032;0.0;-27.32;-14.21;2.33;186.85;25.9;-100.44;0.0;35.958298;-83.92447;775.92;NaN;0.0;17.892103;;0 / 4;82004;2022-10-28 14:01:53:952
8.1179;-5.0979;1.0615;8.4694;-4.9252;-0.4258;-0.8182;0.4933;1.1091;1.2452;0.9218;0.2934;0.0;-29.98;-13.42;7.14;172.38;28.68;-96.63;0.0;35.958298;-83.92447;775.92;NaN;0.0;17.892103;;0 / 4;82504;2022-10-28 14:01:54:452
9.1059;-4.2586;3.2246;8.5932;-4.7224;-0.1645;1.1025;2.5983;0.3052;1.6572;0.8578;-0.2036;0.0;-34.46;-16.11;-0.02;187.71;29.28;-96.96;0.0;35.958298;-83.92447;775.92;NaN;0.0;17.892103;;0 / 4;83004;2022-10-28 14:01:54:952
14.8122;-10.9585;-3.9894;7.8839;-5.2726;-2.4928;8.8837;-3.1297;1.1057;1.9455;0.1412;-0.2318;0.0;-39.49;-25.24;-8.33;205.98;32.52;-107.55;0.0;35.958298;-83.92447;775.92;NaN;0.0;17.892103;;0 / 4;83505;2022-10-28 14:01:55:453
12.0969;-7.22;-2.2092;8.6198;-3.633;-2.9444;-0.2841;-1.5753;0.2477;0.6909;0.9793;-0.3128;0.0;-43.27;-33.43;-6.75;204.57;21.74;-108.86;0.0;35.958298;-83.92447;775.92;NaN;0.0;17.892103;;0 / 4;84005;2022-10-28 14:01:55:953
14.6883;-8.0195;-1.9863;8.3265;-4.8038;-1.9399;3.1325;-1.1753;0.1495;0.3324;-0.5611;-0.0434;0.0;-38.94;-40.87;-10.41;205.02;27.57;-112.13;0.0;35.958298;-83.92447;775.92;NaN;0.0;17.892103;;0 / 4;84504;2022-10-28 14:01:56:452
16.5209;-5.9737;-2.4185;8.7573;-4.1069;-1.6165;8.5586;-4.7482;-0.2729;1.2386;1.2715;-0.2256;0.0;-30.58;-37.14;-7.61;200.13;24.26;-106.54;0.0;35.958298;-83.92447;775.92;NaN;0.0;17.892103;;0 / 4;85004;2022-10-28 14:01:56:952
8.7721;-4.4611;-7.5449;7.9092;-4.6928;-3.4049;8.4251;-7.6812;-3.783;-0.4302;-1.4414;0.5302;0.0;-16.74;-29.42;-3.9;197.9;28.59;-113.29;0.0;35.958298;-83.92447;775.92;NaN;0.0;17.892103;;0 / 4;85505;2022-10-28 14:01:57:453
9.0425;-4.9516;-4.5694;8.7393;-3.7685;-2.3652;6.3742;-2.6289;0.5385;-0.2909;0.0399;-0.1261;0.0;-11.79;-23.34;-3.88;195.47;22.6;-105.14;0.0;35.958298;-83.92447;775.92;NaN;0.0;17.892103;;0 / 4;86004;2022-10-28 14:01:57:952
9.4989;-4.4815;-5.3991;8.077;-4.5684;-3.1721;1.2575;-1.539;-3.3247;-0.8722;-0.8974;0.3786;0.0;-12.26;-17.72;-7.44;207.48;28.77;-108.77;0.0;35.958298;-83.92447;775.92;NaN;0.0;17.892103;;0 / 4;86505;2022-10-28 14:01:58:453
8.3288;-4.9714;-2.091;8.7259;-3.4733;-2.8221;3.0889;0.4724;-3.2943;-0.4954;-0.5375;0.1552;0.0;-19.63;-21.37;-13.18;214.95;20.69;-104.82;0.0;35.958298;-83.92447;775.92;NaN;0.0;17.892103;;0 / 4;87005;2022-10-28 14:01:58:953
8.6617;-3.4702;-1.4815;8.0263;-4.3647;-3.5634;1.8347;0.5805;-1.7748;-1.81;-1.187;0.3154;0.0;-23.79;-32.83;-20.06;218.12;26.43;-113.94;0.0;35.958298;-83.92447;775.92;NaN;0.0;17.892103;;2 / 4;87505;2022-10-28 14:01:59:453
9.8243;-3.7854;-5.1945;8.7918;-3.6695;-2.3257;6.1254;0.3998;0.5419;-0.0538;0.6418;-0.2428;0.0;-18.79;-39.56;-23.85;215.19;23.31;-108.57;0.0;35.958298;-83.92447;775.92;NaN;0.0;17.892103;;2 / 4;88004;2022-10-28 14:01:59:952
11.2552;-10.972;-4.2314;8.0725;-4.7243;-2.9471;5.2532;-7.6936;0.3766;1.3595;0.5852;0.1827;0.0;-6.32;-44.27;-17.03;204.71;28.98;-105.53;0.0;35.958298;-83.92447;775.92;NaN;0.0;17.892103;;2 / 4;88504;2022-10-28 14:02:00:452
5.7553;-4.0122;-3.5515;8.7229;-3.9667;-2.0851;-2.5892;-0.1928;-1.81;0.5324;0.642;-0.3984;0.0;-6.26;-34.93;-4.24;189.1;24.52;-105.03;0.0;35.958298;-83.92447;775.92;NaN;0.0;17.892103;;2 / 4;89004;2022-10-28 14:02:00:952
10.1234;-3.3236;-3.842;8.9163;-3.7743;-1.5571;-0.633;0.2555;-3.0952;0.3858;0.5072;0.1308;0.0;-4.52;-17.55;-4.82;197.65;22.64;-99.91;0.0;35.958298;-83.92447;775.92;NaN;0.0;17.892103;;2 / 4;89504;2022-10-28 14:02:01:452
7.6828;-5.2863;-3.8264;8.3141;-4.3766;-2.8093;-1.8993;0.0395;-3.5073;0.3568;-0.0395;-0.1597;0.0;-6.66;-10.76;-13.03;233.0;26.63;-108.49;0.0;35.958298;-83.92447;775.92;NaN;0.0;17.892103;;2 / 4;90004;2022-10-28 14:02:01:952
6.833;-4.2371;-1.584;8.8051;-3.767;-2.1098;-1.9471;-0.5218;0.788;-0.195;-0.0631;-0.2527;0.0;-11.68;-19.07;-4.56;199.38;23.49;-103.19;0.0;35.958298;-83.92447;775.92;NaN;0.0;17.892103;;2 / 4;90505;2022-10-28 14:02:02:453
7.3675;-3.987;-1.9609;8.3247;-4.5993;-2.3908;-1.2566;0.8769;4.6045;0.7391;-2.1289;0.1843;0.0;-2.93;-3.41;9.79;116.12;26.81;-98.04;0.0;35.958298;-83.92447;775.92;NaN;0.0;17.892103;;2 / 4;91005;2022-10-28 14:02:02:953
6.8456;-3.8815;-1.2368;8.6554;-4.0064;-2.2812;-0.6482;0.4928;1.3511;1.8671;0.0376;-0.7432;0.0;8.74;21.06;29.78;58.33;25.22;-105.33;0.0;35.958298;-83.92447;775.92;NaN;0.0;17.892103;;2 / 4;91505;2022-10-28 14:02:03:453
7.984;-4.0881;-0.0147;8.7823;-3.7093;-2.2985;4.2904;0.9634;0.9144;1.1894;-0.3529;-0.08;0.0;-3.45;27.69;31.56;54.07;21.97;-104.12;0.0;35.958298;-83.92447;775.92;NaN;0.0;17.892103;;2 / 4;92004;2022-10-28 14:02:03:952
10.9376;-5.0094;-2.997;8.341;-4.2334;-2.9456;-0.6986;0.2622;-0.7093;0.4268;-0.7122;-0.2393;0.0;-19.24;25.93;23.64;53.04;25.57;-109.45;0.0;35.958298;-83.92447;775.92;NaN;0.0;17.892103;;2 / 4;92504;2022-10-28 14:02:04:452
7.8847;-2.9285;-2.0641;8.2052;-4.2016;-3.3454;-2.4549;0.7586;-0.3574;-0.3927;-0.472;0.4626;0.0;-28.88;24.9;21.62;53.5;24.44;-108.88;0.0;35.958298;-83.92447;775.92;NaN;0.0;17.892103;;2 / 4;93005;2022-10-28 14:02:04:953
5.5893;-3.8276;-3.4175;8.27;-4.0411;-3.3834;-2.4721;1.0231;-1.1325;0.735;0.1289;-0.6887;0.0;-37.33;21.84;19.74;72.85;25.45;-109.51;0.0;35.958298;-83.92447;775.92;NaN;0.0;17.892103;;2 / 4;93505;2022-10-28 14:02:05:453
7.2194;-1.6741;-3.9018;8.116;-4.5167;-3.1465;-1.6908;2.4325;-1.5097;0.7261;-0.8721;0.0215;0.0;-41.85;18.3;10.69;227.02;26.62;-109.36;0.0;35.958298;-83.92447;775.92;NaN;0.0;17.892103;;2 / 4;94004;2022-10-28 14:02:05:952
6.8028;-3.7158;-2.7927;8.5018;-3.8293;-3.0374;-2.9391;0.213;-0.9358;0.2251;0.1913;-0.5015;0.0;-37.8;26.04;-18.77;292.1;22.98;-109.66;0.0;35.958298;-83.92447;775.92;NaN;0.0;17.892103;;2 / 4;94504;2022-10-28 14:02:06:452
9.1564;-2.4081;-1.3397;8.3217;-4.1979;-3.0491;-2.3015;1.9597;0.5315;-1.4523;1.1222;0.4812;0.0;-37.56;20.94;-25.07;281.85;25.33;-111.66;0.0;35.958298;-83.92447;775.92;NaN;0.0;17.892103;;2 / 4;95005;2022-10-28 14:02:06:953
8.4799;-5.2394;-2.4778;8.7117;-3.3632;-2.9943;-2.3735;0.3136;-0.0535;0.2734;0.0429;-0.4837;0.0;-29.21;19.16;-25.01;288.13;21.17;-109.78;0.0;35.958298;-83.92447;775.92;NaN;0.0;17.892103;;2 / 4;95504;2022-10-28 14:02:07:452
12.5267;-5.9776;-1.8805;8.2973;-4.0842;-3.2626;-1.16;1.4917;1.1845;1.0474;-1.1784;-0.2091;0.0;-26.31;14.46;-30.9;280.33;24.06;-109.06;0.0;35.958298;-83.92447;775.92;NaN;0.0;17.892103;;2 / 4;96004;2022-10-28 14:02:07:952
14.7138;-6.5468;-2.1317;8.4309;-3.981;-3.0401;-2.7852;0.0497;-1.5761;0.8183;-0.7275;-0.4393;0.0;-28.78;12.62;-39.09;277.56;23.95;-109.83;0.0;35.958298;-83.92447;775.92;NaN;0.0;17.892103;;2 / 4;96505;2022-10-28 14:02:08:453
14.4524;-4.1124;-1.3316;8.4522;-4.2456;-2.5895;5.154;-1.6254;-0.9504;1.0792;-2.9609;-0.1481;0.0;-34.59;3.11;-49.56;264.93;24.11;-106.58;0.0;35.958298;-83.92447;775.92;NaN;0.0;17.892103;;2 / 4;97005;2022-10-28 14:02:08:953
11.6728;-5.1287;-5.5714;8.048;-4.4677;-3.3823;2.4996;-0.4113;-1.6499;0.2682;-0.5582;-0.1692;0.0;-35.83;0.88;-50.77;262.99;27.68;-108.69;0.0;35.958298;-83.92447;775.92;NaN;0.0;17.892103;;0 / 4;97504;2022-10-28 14:02:09:452
12.1977;-2.9312;-3.5515;8.653;-4.0731;-2.1694;-0.5594;-0.5965;-2.5294;-6.0E-4;-0.2966;0.0458;0.0;-43.91;-7.05;-44.51;249.18;24.31;-102.05;0.0;35.958298;-83.92447;775.92;NaN;0.0;17.892103;;0 / 4;98004;2022-10-28 14:02:09:952
8.1517;-4.9567;-2.9749;8.2168;-4.8848;-2.1893;-0.4564;0.6732;-2.6685;1.9706;-0.7512;-0.4339;0.0;-48.52;-18.36;-33.73;232.55;29.88;-104.92;0.0;35.958298;-83.92447;775.92;NaN;0.0;17.892103;;0 / 4;98505;2022-10-28 14:02:10:453
8.2005;-2.9904;0.2121;8.8124;-4.0528;-1.4445;-1.1287;0.0828;1.7292;-0.0104;-0.7886;-0.3007;0.0;-45.56;-19.71;-9.39;204.17;24.41;-99.31;0.0;35.958298;-83.92447;775.92;NaN;0.0;17.892103;;0 / 4;99005;2022-10-28 14:02:10:953
7.1584;-5.5065;1.6813;8.686;-4.479;0.8139;-0.9359;-1.3802;-0.273;1.3158;0.9709;0.2905;0.0;-41.7;-24.45;-2.96;190.7;25.39;-96.11;0.0;35.958298;-83.92447;775.92;NaN;0.0;17.892103;;0 / 4;99505;2022-10-28 14:02:11:453
6.5647;-5.3988;-0.2168;8.9023;-3.9365;-1.1931;-4.0679;0.0473;1.28;1.0843;-1.0565;-0.4891;0.0;-43.35;-21.47;6.3;177.19;24.85;-95.53;0.0;35.958298;-83.92447;775.92;NaN;0.0;17.892103;;0 / 4;100004;2022-10-28 14:02:11:952
5.3671;-5.0288;-1.0974;8.4314;-4.4419;-2.3131;-4.3129;-0.1761;0.4012;-0.5892;1.1495;0.602;0.0;-23.66;-22.61;30.36;146.86;26.93;-105.34;0.0;35.958298;-83.92447;775.92;NaN;0.0;17.892103;;0 / 4;100504;2022-10-28 14:02:12:452
6.1346;-2.447;-2.7356;8.4701;-4.2919;-2.451;-4.2809;2.5969;0.0388;0.6034;0.1317;-0.4629;0.0;-26.7;-29.21;23.19;160.07;25.95;-106.14;0.0;35.958298;-83.92447;775.92;NaN;0.0;17.892103;;0 / 4;101005;2022-10-28 14:02:12:953
6.4068;-2.1736;-2.4084;8.1875;-4.712;-2.6328;-2.0652;2.3679;0.3549;-1.5456;0.1041;0.5065;0.0;-28.44;-23.78;14.55;169.64;28.3;-106.27;0.0;35.958298;-83.92447;775.92;NaN;0.0;17.892103;;0 / 4;101504;2022-10-28 14:02:13:452
6.8306;-5.4846;-1.0884;8.488;-4.0155;-2.8286;-2.1795;-1.016;0.072;0.2089;-0.6191;-0.4823;0.0;-27.34;-13.46;13.58;166.96;25.32;-106.64;0.0;35.958298;-83.92447;775.92;NaN;0.0;17.892103;;0 / 4;102004;2022-10-28 14:02:13:952
8.5989;-1.488;-3.8707;8.3883;-4.465;-2.4228;0.0252;1.8033;-1.4832;-0.6919;1.5073;0.2812;0.0;-25.35;-1.95;15.47;152.91;27.08;-106.11;0.0;35.958298;-83.92447;775.92;NaN;0.0;17.892103;;0 / 2;102504;2022-10-28 14:02:14:452
6.0266;-3.7364;-2.5092;8.388;-4.2358;-2.8054;-2.4653;1.327;-0.2401;0.3583;0.0538;-0.5574;0.0;-25.42;6.36;12.75;146.36;25.59;-108.49;0.0;35.958298;-83.92447;775.92;NaN;0.0;17.892103;;0 / 2;103004;2022-10-28 14:02:14:952
4.1931;-2.5026;-1.3525;8.5067;-4.182;-2.5136;-3.8307;2.0536;1.1563;0.2952;-0.11;0.2372;0.0;-30.19;7.05;5.23;214.97;24.23;-107.37;0.0;35.958298;-83.92447;775.92;NaN;0.0;17.892103;;0 / 2;103505;2022-10-28 14:02:15:453
6.8818;-2.8376;-2.7173;8.3684;-4.1265;-3.0186;-1.3482;1.2737;0.8467;0.1464;-0.1668;-0.3012;0.0;-31.78;9.88;-1.35;252.37;25.56;-110.11;0.0;35.958298;-83.92447;775.92;NaN;0.0;17.892103;;0 / 2;104004;2022-10-28 14:02:15:952
6.5276;-1.6442;-1.4692;8.3096;-3.9864;-3.3512;-1.4562;0.2813;1.4015;0.8591;-1.6988;0.1075;0.0;-34.89;9.66;-7.5;262.11;23.98;-111.96;0.0;35.958298;-83.92447;775.92;NaN;0.0;17.892103;;0 / 2;104504;2022-10-28 14:02:16:452
6.2889;-2.1769;-2.7538;8.494;-3.9207;-2.9411;2.709;-0.856;3.933;2.446;-2.1877;-0.3347;0.0;-35.61;12.15;-8.12;264.3;22.37;-102.88;0.0;35.958298;-83.92447;775.92;NaN;0.0;17.892103;;0 / 2;105005;2022-10-28 14:02:16:953
9.4729;-1.1886;0.0559;8.5589;-4.0277;-2.5872;1.3145;3.3559;2.8681;1.4773;-0.9638;-0.8494;0.0;-32.06;19.13;-7.31;288.69;24.12;-113.43;0.0;35.958298;-83.92447;775.92;NaN;0.0;17.892103;;0 / 0;105505;2022-10-28 14:02:17:453
13.7037;-2.5199;-2.0216;8.5581;-3.6588;-3.089;5.337;1.1077;1.9862;0.4852;-2.1178;-0.3127;0.0;-32.01;17.29;-1.28;295.84;22.12;-103.65;0.0;35.958298;-83.92447;775.92;NaN;0.0;17.892103;;0 / 0;106005;2022-10-28 14:02:17:953
9.3948;-5.5301;-4.5075;8.4331;-4.2229;-2.687;0.592;-1.0486;-1.2543;0.6507;-0.0773;-0.2091;0.0;-15.47;25.07;8.06;11.97;25.46;-107.0;0.0;35.958298;-83.92447;775.92;NaN;0.0;17.892103;;0 / 0;106504;2022-10-28 14:02:18:452
7.5353;-4.692;-4.4456;8.6685;-4.1414;-1.9691;-0.8626;0.2983;1.4086;-0.2417;0.3673;0.1486;0.0;1.58;39.53;6.58;11.26;24.83;-102.43;0.0;35.958298;-83.92447;775.92;NaN;0.0;17.892103;;0 / 0;107005;2022-10-28 14:02:18:953
7.5177;-4.9654;0.9984;8.2164;-5.3508;-0.1727;-0.876;-0.0662;2.1795;0.6947;-0.6475;-0.033;0.0;15.41;53.76;9.86;10.95;33.07;-91.2;0.0;35.958298;-83.92447;775.92;NaN;0.0;17.892103;;0 / 0;107504;2022-10-28 14:02:19:452
15.3093;-5.5352;-0.4651;9.0598;-3.7491;-0.1852;5.9835;-4.8013;-1.0769;0.7667;2.7876;-0.1886;0.0;16.14;63.58;-3.54;359.11;22.6;-100.52;0.0;35.958298;-83.92447;775.92;NaN;0.0;17.892103;;0 / 0;108004;2022-10-28 14:02:19:952
17.2307;-11.0845;-3.0748;8.381;-4.5241;-2.3369;5.2413;-1.8178;-0.4821;1.2034;-0.6384;-0.4542;0.0;13.65;63.36;-2.66;1.86;26.1;-110.28;0.0;35.958298;-83.92447;775.92;NaN;0.0;17.892103;;0 / 0;108504;2022-10-28 14:02:20:452
13.8326;-7.0723;-2.4371;8.3997;-3.6342;-3.5226;-2.8749;-1.1976;0.9064;0.2752;-0.0879;-0.3057;0.0;19.54;63.28;-0.08;6.67;22.23;-112.45;0.0;35.958298;-83.92447;775.92;NaN;0.0;17.892103;;0 / 0;109005;2022-10-28 14:02:20:953
7.8048;-1.6911;0.204;8.2898;-4.029;-3.3492;-0.4886;4.2723;-2.3121;-0.1529;0.4006;0.1725;0.0;9.58;58.05;-3.47;0.97;24.26;-112.0;0.0;35.958298;-83.92447;775.92;NaN;0.0;17.892103;;0 / 0;109505;2022-10-28 14:02:21:453
7.608;-4.3561;-1.6292;8.3865;-3.792;-3.3849;-3.2172;-0.2434;0.727;0.4597;-0.7703;-0.2577;0.0;2.01;41.93;-12.92;344.35;22.36;-109.83;0.0;35.958298;-83.92447;775.92;NaN;0.0;17.892103;;0 / 0;110004;2022-10-28 14:02:21:952
12.7385;-5.8032;-1.4943;8.2334;-4.804;-2.3027;-2.2266;4.2879;-0.556;0.2598;0.612;0.2532;0.0;-18.75;32.01;-29.59;305.6;26.93;-108.52;0.0;35.958298;-83.92447;775.92;NaN;0.0;17.892103;;0 / 0;110505;2022-10-28 14:02:22:453
5.5065;-5.6103;-3.3042;8.2419;-4.3062;-3.1142;-2.4797;-1.3057;-0.3875;-0.5046;0.0742;-0.133;0.0;-24.36;39.04;-35.94;305.67;26.88;-110.12;0.0;35.958298;-83.92447;775.92;NaN;0.0;17.892103;;0 / 0;111005;2022-10-28 14:02:22:953
8.0432;-1.9735;-3.4217;8.0913;-4.6067;-3.0788;-2.198;1.86;-1.1376;-0.1843;0.005;0.1956;0.0;-21.09;43.73;-36.09;310.92;28.02;-110.83;0.0;35.958298;-83.92447;775.92;NaN;0.0;17.892103;;0 / 0;111506;2022-10-28 14:02:23:454
5.1808;-4.4067;-3.2659;7.9017;-4.5935;-3.5543;-2.6111;0.9876;-0.087;0.4917;-0.2993;-0.4351;0.0;-14.16;37.61;-36.11;311.79;28.36;-114.46;0.0;35.958298;-83.92447;775.92;NaN;0.0;17.892103;;0 / 0;112004;2022-10-28 14:02:23:952
2.5842;-1.3555;-3.9864;7.0893;-4.8722;-4.709;-3.2664;3.4369;1.7117;-0.4117;0.6284;0.0974;0.0;-11.06;24.98;-32.74;308.1;29.62;-123.83;0.0;35.958298;-83.92447;775.92;NaN;0.0;17.892103;;0 / 0;112505;2022-10-28 14:02:24:453
4.3854;-4.8835;-4.2766;7.9566;-4.3689;-3.7115;-3.1706;3.5154;2.6267;1.577;-1.3287;-0.7949;0.0;-6.88;17.31;-22.12;305.25;26.9;-113.54;0.0;35.958298;-83.92447;775.92;NaN;0.0;17.892103;;0 / 0;113004;2022-10-28 14:02:24:952
8.1981;-3.4448;-3.0715;8.4524;-4.5203;-2.0722;-0.7212;0.4617;-2.6079;0.0846;1.6805;-0.0957;0.0;0.83;23.96;-24.34;316.58;27.45;-103.77;0.0;35.958298;-83.92447;775.92;NaN;0.0;17.892103;;0 / 0;113504;2022-10-28 14:02:25:452
12.2533;2.4063;3.2037;9.7314;-0.3048;1.1733;3.124;2.3088;0.8733;-0.9509;0.9532;-2.6692;0.0;4.28;29.49;-34.29;310.05;12.87;-86.7;2.0;35.958298;-83.92447;775.92;NaN;0.0;17.892103;;0 / 0;114005;2022-10-28 14:02:25:953
-0.0254;2.0728;8.4535;0.4072;4.8982;8.486;-0.2067;-3.2495;0.3681;0.7728;0.717;0.8282;11.0;-1.28;26.36;-38.55;358.34;-26.02;-3.19;2.0;35.958298;-83.92447;775.92;NaN;0.0;17.892103;;0 / 0;114505;2022-10-28 14:02:26:453
-1.7991;7.6525;5.3836;-1.975;7.6181;5.851;0.9209;-0.6509;-0.7506;0.6993;0.1225;-0.3944;54.0;16.09;15.32;-46.11;356.81;-49.11;16.12;2.0;35.958298;-83.92447;775.92;NaN;0.0;17.892103;;0 / 0;115004;2022-10-28 14:02:26:952
-3.0212;7.9152;4.4991;-2.4555;7.9492;5.1914;-1.1026;0.5172;-0.518;0.1179;0.0531;0.0712;54.0;18.26;8.61;-48.71;5.64;-54.15;25.31;2.0;35.958298;-83.92447;775.92;NaN;0.0;17.892103;;0 / 0;115505;2022-10-28 14:02:27:453
-3.5761;7.9002;5.1099;-3.0982;7.6723;5.2637;-0.3554;0.2906;-0.2468;-0.3225;-0.4406;-0.0011;54.0;18.49;9.26;-48.6;11.53;-51.48;30.48;2.0;35.958298;-83.92447;775.92;NaN;0.0;17.892103;;0 / 0;116004;2022-10-28 14:02:27:952
-1.6908;7.2188;6.323;-1.6996;7.1457;6.4978;-0.0596;0.1208;-0.1218;-0.02;0.1441;0.1208;54.0;15.98;11.96;-48.36;354.65;-46.29;13.69;2.0;35.958298;-83.92447;775.92;NaN;0.0;17.892103;;0 / 0;116505;2022-10-28 14:02:28:453
-1.9714;7.3777;6.16;-1.9292;7.2926;6.2663;-0.0658;0.1387;0.0043;-0.0254;0.0378;0.0291;48.5;17.79;11.01;-48.02;356.02;-48.03;17.02;2.0;35.958298;-83.92447;775.92;NaN;0.0;17.892103;;0 / 0;117004;2022-10-28 14:02:28:952
-3.9206;8.0028;4.7094;-3.4545;7.9254;4.6288;-0.4358;0.0971;0.4574;0.2721;0.8225;0.0618;42.9;20.85;10.67;-45.73;12.96;-53.92;36.73;0.0;35.958298;-83.92447;775.92;NaN;0.0;17.892103;;0 / 0;117504;2022-10-28 14:02:29:452