sep=;
ACCELEROMETER X (m/s²);ACCELEROMETER Y (m/s²);ACCELEROMETER Z (m/s²);GRAVITY X (m/s²);GRAVITY Y (m/s²);GRAVITY Z (m/s²);LINEAR ACCELERATION X (m/s²);LINEAR ACCELERATION Y (m/s²);LINEAR ACCELERATION Z (m/s²);GYROSCOPE X (rad/s);GYROSCOPE Y (rad/s);GYROSCOPE Z (rad/s);LIGHT (lux);MAGNETIC FIELD X (μT);MAGNETIC FIELD Y (μT);MAGNETIC FIELD Z (μT);ORIENTATION Z (azimuth °);ORIENTATION X (pitch °);ORIENTATION Y (roll °);PROXIMITY (i);SOUND LEVEL (dB);LOCATION Latitude : ;LOCATION Longitude : ;LOCATION Altitude ( m);LOCATION Altitude-google ( m);LOCATION Speed ( Kmh);LOCATION Accuracy ( m);LOCATION ORIENTATION (°);Satellites in range;Time since start in ms ;YYYY-MO-DD HH-MI-SS_SSS
-1.1752;1.9101;8.8998;-0.4912;2.4435;9.4846;-1.1697;-0.5772;0.3481;0.1707;0.3527;1.6043;433.1;6.92;-36.21;-40.89;191.21;-14.43;2.96;5.0;35.958317;-83.9247;;NaN;;230.03236;;0 / 6;8;2022-11-01 17:40:19:702
1.9804;1.3834;9.9389;-0.2982;3.7604;9.0521;2.4557;-0.1643;-0.697;0.5598;0.1622;0.1793;495.3;-7.8;-33.51;-42.21;147.56;-22.92;2.18;5.0;35.95838;-83.92463;722.95;NaN;0.0;159.33173;;0 / 2;507;2022-11-01 17:40:20:201
1.5685;4.4955;7.4946;0.5435;5.136;8.3365;-0.057;-0.7128;-1.4408;0.622;0.7038;1.1401;434.5;-13.14;-36.64;-34.78;140.09;-31.58;-3.73;5.0;35.95838;-83.92463;722.95;NaN;0.0;159.33173;;0 / 2;1008;2022-11-01 17:40:20:702
1.7578;3.7654;6.2351;1.71;3.794;8.8799;-0.0031;-0.1036;-0.9047;-0.3254;0.2382;0.5152;434.5;-21.09;-36.43;-32.34;141.51;-23.6;-10.16;5.0;35.95838;-83.92463;722.95;NaN;0.0;159.33173;;0 / 2;1508;2022-11-01 17:40:21:202
0.8551;3.5213;7.6956;0.4851;3.3805;9.1928;0.9822;-0.0249;2.3927;-0.1826;0.6465;-0.2595;434.5;-24.99;-32.66;-35.57;128.17;-20.16;-3.02;5.0;35.95838;-83.92463;722.95;NaN;0.0;159.33173;;0 / 2;2007;2022-11-01 17:40:21:701
-0.7729;3.6888;12.0793;1.4716;2.4355;9.3847;-1.7126;0.3219;3.8487;-1.3019;0.0993;-0.7116;392.7;-23.79;-33.0;-36.69;135.37;-17.4;-6.89;5.0;35.95838;-83.92463;722.95;NaN;0.0;159.33173;;0 / 2;2508;2022-11-01 17:40:22:202
0.7546;1.9196;8.8831;1.2592;2.3321;9.4417;-1.0666;-0.8363;-0.0323;0.7429;0.8191;1.5893;316.8;-31.74;-26.83;-35.79;121.83;-13.76;-7.6;5.0;35.95838;-83.92463;722.95;NaN;0.0;159.33173;;0 / 2;3007;2022-11-01 17:40:22:701
1.547;-0.137;12.6873;1.2719;1.193;9.6504;0.4798;0.8938;-0.8978;-0.4919;-0.7243;-0.325;275.5;-44.72;-7.76;-42.51;91.75;-8.01;-7.05;5.0;35.95838;-83.92463;722.95;NaN;0.0;159.33173;;0 / 2;3508;2022-11-01 17:40:23:202
-0.0305;2.2594;8.3037;0.7344;1.9;9.5928;-2.6815;0.0172;-2.4071;-0.9838;0.2986;2.1287;146.8;-52.03;-16.2;-39.47;98.6;-11.17;-4.38;5.0;35.95838;-83.92463;722.95;NaN;0.0;159.33173;;0 / 2;4008;2022-11-01 17:40:23:702
-0.8581;1.5446;7.3519;-0.2463;3.8701;9.0073;-0.8954;-3.6009;1.8665;0.7539;-0.8886;-0.4508;174.9;-52.69;0.56;-48.41;70.45;-23.24;1.57;5.0;35.95838;-83.92463;722.95;NaN;0.0;159.33173;;0 / 2;4507;2022-11-01 17:40:24:201
-0.1582;2.7063;7.2431;0.0417;2.8837;9.373;-0.2927;-0.1211;-2.2065;-0.1388;-0.0091;0.6352;149.0;-47.19;-7.74;-47.76;82.06;-17.1;-0.25;5.0;35.95838;-83.92463;722.95;NaN;0.0;159.33173;;0 / 2;5007;2022-11-01 17:40:24:701
0.982;1.8724;8.0871;0.4354;2.8087;9.3857;0.1297;-1.3857;-2.5108;0.2403;-0.489;-0.3625;127.4;-44.44;0.3;-50.27;71.65;-15.95;-1.7;5.0;35.95838;-83.92463;722.95;NaN;0.0;159.33173;;0 / 2;5507;2022-11-01 17:40:25:201
1.0253;2.1191;7.2039;0.3506;2.4796;9.4815;1.2203;-0.5803;-2.8214;0.6367;1.2946;0.2831;91.8;-43.91;-3.54;-49.03;78.05;-14.65;-2.12;5.0;35.95838;-83.92463;722.95;NaN;0.0;159.33173;;0 / 2;6007;2022-11-01 17:40:25:701
-0.9864;2.1188;8.2193;0.4819;2.0154;9.5852;-2.4493;0.2602;-0.568;-0.2046;-0.4712;0.2639;69.6;-37.76;-1.09;-48.26;75.39;-11.86;-2.88;5.0;35.95838;-83.92463;722.95;NaN;0.0;159.33173;;0 / 2;6508;2022-11-01 17:40:26:202
-0.1385;3.3873;8.4876;-0.0624;1.9482;9.611;-0.4417;1.2438;0.094;-0.5978;-0.5896;0.8708;68.1;-30.67;-4.48;-42.3;82.02;-11.46;0.37;5.0;35.95838;-83.92463;722.95;NaN;0.0;159.33173;;0 / 2;7008;2022-11-01 17:40:26:702
-0.6311;-0.9488;14.3198;0.6214;1.6619;9.6448;0.2;0.3353;0.0389;-0.2098;-0.4658;-0.0387;52.8;-22.48;-4.84;-38.27;83.27;-11.02;-1.59;5.0;35.95838;-83.92463;722.95;NaN;0.0;159.33173;;0 / 2;7507;2022-11-01 17:40:27:201
2.071;-0.667;11.8941;1.6333;2.1778;9.4212;0.7486;-2.6329;1.3021;0.5815;-0.9553;-1.2874;39.0;-13.09;-3.94;-34.31;60.06;-12.83;-9.83;5.0;35.95838;-83.92463;722.95;NaN;0.0;159.33173;;0 / 2;8007;2022-11-01 17:40:27:701
0.5261;0.7851;7.7402;0.8385;0.775;9.74;-0.9288;-0.0391;-2.1576;0.6325;0.0215;0.7587;39.0;-6.41;2.08;-37.12;29.55;-4.53;-4.92;5.0;35.95838;-83.92463;722.95;NaN;0.0;159.33173;;1 / 2;8507;2022-11-01 17:40:28:201
0.3529;-1.0887;9.4579;1.3718;0.6388;9.6892;-0.6912;-1.7673;0.0728;0.4327;-0.7432;-0.5399;47.2;-5.77;14.1;-47.94;357.36;-3.73;-8.06;5.0;35.95838;-83.92463;722.95;NaN;0.0;159.33173;;1 / 2;9008;2022-11-01 17:40:28:702
-0.2121;1.4336;6.6529;0.0838;2.1433;9.5692;0.8893;-1.5058;-0.4393;1.1233;0.3632;-0.0888;83.4;-18.88;9.77;-60.28;43.68;-8.62;-0.88;5.0;35.95838;-83.92463;722.95;NaN;0.0;159.33173;;1 / 2;9508;2022-11-01 17:40:29:202
1.0391;0.8844;8.2466;0.5282;0.5218;9.7785;0.6019;0.3894;-1.7851;0.1839;-0.3407;-0.0095;101.6;-23.06;6.6;-67.05;61.25;-3.05;-3.09;5.0;35.95838;-83.92463;722.95;NaN;0.0;159.33173;;1 / 2;10007;2022-11-01 17:40:29:701
0.0455;1.2511;6.5949;0.3483;0.63;9.7802;1.7098;-0.0397;2.5024;0.2489;0.8233;0.6405;240.3;-35.79;5.21;-65.23;74.64;-3.68;-2.04;5.0;35.95838;-83.92463;722.95;NaN;0.0;159.33173;;1 / 2;10507;2022-11-01 17:40:30:201
-2.2729;0.3667;8.4954;0.9338;0.6929;9.7375;-3.537;-0.3004;-1.0213;0.4541;0.2858;0.6938;307.1;-27.81;13.37;-66.86;50.24;-4.05;-5.48;5.0;35.95838;-83.92463;722.95;NaN;0.0;159.33173;;1 / 2;11008;2022-11-01 17:40:30:702
1.3834;0.5444;5.8863;0.5101;1.2255;9.7164;1.0047;-0.6634;-4.1271;0.3341;-0.2383;1.3082;350.0;-23.23;16.29;-64.87;40.61;-8.73;-0.83;5.0;35.95838;-83.92463;722.95;NaN;0.0;159.33173;;1 / 2;11507;2022-11-01 17:40:31:201
0.2333;-2.0082;13.6427;0.5293;-0.3972;9.7843;0.0631;0.2636;2.4265;-0.0659;0.1465;-0.2553;350.0;-12.0;17.01;-62.42;28.43;1.64;-3.46;5.0;35.95838;-83.92463;722.95;NaN;0.0;159.33173;;1 / 2;12008;2022-11-01 17:40:31:702
1.509;0.629;9.1301;0.3712;-0.6516;9.7779;1.4009;-0.023;1.1144;0.17;0.0234;0.7177;220.2;-0.81;16.2;-47.34;356.51;3.81;-2.17;5.0;35.95838;-83.92463;722.95;NaN;0.0;159.33173;;1 / 2;12508;2022-11-01 17:40:32:202
-0.1759;-0.7172;6.952;1.4904;0.2736;9.6889;-1.6785;-2.8339;-1.0577;0.2206;-0.3288;0.3966;113.5;10.09;13.44;-40.24;312.15;-1.42;-7.91;5.0;35.95838;-83.92463;722.95;NaN;0.0;159.33173;;1 / 2;13007;2022-11-01 17:40:32:701
1.046;-0.746;11.8624;1.0994;-0.0952;9.7444;-0.2073;-0.8155;2.0476;0.0212;0.3103;0.6392;62.0;16.2;10.48;-34.07;295.23;0.63;-7.85;5.0;35.95838;-83.92463;722.95;NaN;0.0;159.33173;;1 / 2;13508;2022-11-01 17:40:33:202
3.8812;-0.1241;10.5036;0.9206;-1.7744;9.6007;2.7776;1.2166;1.0243;0.4221;0.1078;0.7433;77.2;20.64;4.29;-32.78;266.08;10.42;-5.48;5.0;35.95838;-83.92463;722.95;NaN;0.0;159.33173;;1 / 2;14007;2022-11-01 17:40:33:701
-1.2368;-0.4795;7.5697;-0.2685;0.8639;9.7648;-0.0898;-3.4028;-2.068;0.2063;0.0775;-1.048;66.9;19.44;0.41;-37.84;280.7;-5.05;1.57;5.0;35.95838;-83.92463;722.95;NaN;0.0;159.33173;;1 / 2;14507;2022-11-01 17:40:34:201
-0.5261;-1.0044;17.3973;0.5501;-0.8161;9.7571;-1.3465;-3.0283;6.0444;-0.6357;-0.0396;0.1842;39.2;23.21;-1.11;-39.17;260.68;4.77;-3.23;5.0;35.95838;-83.92463;722.95;NaN;0.0;159.33173;;1 / 2;15007;2022-11-01 17:40:34:701
-2.7691;0.714;12.3814;-2.5483;3.075;8.9566;-0.7498;-0.4571;3.1169;0.1513;1.1212;0.0608;34.1;20.61;-1.69;-40.05;318.16;-18.63;13.81;5.0;35.95838;-83.92463;722.95;NaN;0.0;159.33173;;1 / 2;15507;2022-11-01 17:40:35:201
-1.3161;-0.0093;14.2965;-0.3525;0.9316;9.7559;-0.7001;0.1429;5.6788;-0.6664;-0.9956;-0.5517;40.6;28.84;-8.87;-34.8;258.7;-5.45;2.07;5.0;35.95838;-83.92463;722.95;NaN;0.0;159.33173;;1 / 2;16007;2022-11-01 17:40:35:701
-0.8243;0.7164;8.6931;-0.4954;2.0369;9.58;-0.5999;-1.1698;-0.7476;0.5061;-0.2855;-0.0181;36.9;29.85;-3.0;-31.67;278.09;-11.99;2.96;5.0;35.95838;-83.92463;722.95;NaN;0.0;159.33173;;1 / 2;16507;2022-11-01 17:40:36:201
0.227;0.7804;7.736;-1.2393;0.3714;9.7209;1.9618;-0.3271;-0.2121;0.6649;0.3284;0.9218;34.0;33.58;-2.27;-23.7;268.26;-2.17;7.27;5.0;35.95838;-83.92463;722.95;NaN;0.0;159.33173;;1 / 2;17007;2022-11-01 17:40:36:701
-0.4337;0.7128;7.3869;1.504;0.9329;9.6456;-2.2585;0.0514;-1.809;0.4437;-0.5984;-0.3292;31.3;34.05;8.74;-24.86;285.65;-3.51;-6.59;5.0;35.95838;-83.92463;722.95;NaN;0.0;159.33173;;1 / 2;17507;2022-11-01 17:40:37:201
2.959;1.4447;10.1384;-2.1181;0.4169;9.5661;5.2031;1.1593;0.2423;-0.2789;1.4382;1.5315;34.8;28.29;12.73;-31.16;305.15;-2.44;12.48;5.0;35.95838;-83.92463;722.95;NaN;0.0;159.33173;;1 / 2;18008;2022-11-01 17:40:37:702
-0.2483;1.1581;11.4823;1.4464;0.707;9.6736;-1.6148;0.6597;1.1568;-1.1936;-1.2267;-1.1849;28.2;27.92;-4.2;-30.64;271.45;-9.55;-5.0;5.0;35.958416;-83.92455;752.29;NaN;0.0;365.1056;;0 / 4;18508;2022-11-01 17:40:38:202
-0.5563;-0.0574;8.1835;1.436;0.9132;9.6579;-1.7313;-2.1039;0.9825;1.2479;0.6958;1.3309;47.8;21.75;-1.97;-30.36;267.42;-1.75;-10.2;5.0;35.958416;-83.92455;752.29;NaN;0.0;365.1056;;0 / 4;19007;2022-11-01 17:40:38:701
-0.4998;0.4457;7.3875;-1.0973;1.656;9.6033;-0.4788;-0.4465;-3.8058;0.4583;0.0767;1.0957;48.2;1.73;-21.39;-35.08;172.45;-7.03;6.86;5.0;35.958416;-83.92455;752.29;NaN;0.0;365.1056;;0 / 4;19508;2022-11-01 17:40:39:202
-0.2503;1.1844;8.094;0.3421;1.0741;9.7416;-0.7957;0.3313;-2.0801;0.0193;-0.5527;0.8774;52.1;-8.96;-36.92;-33.09;166.69;-6.29;-2.01;5.0;35.958416;-83.92455;752.29;NaN;0.0;365.1056;;0 / 4;20007;2022-11-01 17:40:39:701
1.1474;0.7606;8.3934;0.7391;1.2549;9.6979;0.6149;-1.1374;-2.0146;-0.0699;0.067;0.1053;75.9;-8.79;-31.89;-37.46;167.55;-8.23;-4.91;5.0;35.958416;-83.92455;752.29;NaN;0.0;365.1056;;0 / 4;20507;2022-11-01 17:40:40:201
0.5581;-0.5043;9.2779;1.2913;0.1242;9.7205;-2.3879;0.4505;-2.5232;-0.3909;-0.276;1.5952;101.8;-12.99;-23.85;-46.99;164.02;-0.73;-7.57;5.0;35.958416;-83.92455;752.29;NaN;0.0;365.1056;;0 / 4;21007;2022-11-01 17:40:40:701
0.2067;-0.4328;7.5772;0.8973;0.7924;9.7333;0.05;-2.8894;0.6095;0.7797;0.0268;0.715;101.8;-19.5;-18.75;-48.69;135.85;-4.63;-5.27;5.0;35.958416;-83.92455;752.29;NaN;0.0;365.1056;;0 / 4;21508;2022-11-01 17:40:41:202
0.76;0.5838;12.1442;1.0244;0.4272;9.7436;0.0156;0.0545;2.3691;0.7395;0.0161;-0.0408;91.0;-28.91;-19.46;-50.91;130.84;1.33;-6.09;5.0;35.958416;-83.92455;752.29;NaN;0.0;365.1056;;0 / 4;22008;2022-11-01 17:40:41:702
1.6792;0.9407;11.7996;0.3193;0.1468;9.8004;0.5866;-0.0441;-1.4682;-0.9845;0.2926;2.1982;106.4;-37.14;-18.26;-55.95;111.99;-4.17;-2.98;5.0;35.958416;-83.92455;752.29;NaN;0.0;365.1056;;0 / 4;22508;2022-11-01 17:40:42:202
-0.6709;0.5234;9.259;-0.2211;2.2618;9.5397;-0.0742;-1.5708;-2.3893;-0.337;0.484;0.0948;145.2;-30.86;-17.08;-62.14;94.25;-13.33;1.33;5.0;35.958416;-83.92455;752.29;NaN;0.0;365.1056;;0 / 4;23007;2022-11-01 17:40:42:701
0.0823;2.5164;7.3528;-0.729;3.0321;9.2976;0.5079;-0.2198;-2.4239;0.1122;0.2547;0.335;131.4;-16.76;-20.89;-52.57;100.86;-18.01;4.48;5.0;35.958416;-83.92455;752.29;NaN;0.0;365.1056;;0 / 4;23508;2022-11-01 17:40:43:202
-2.2143;2.0898;8.2732;-0.6687;2.9476;9.3293;-1.2196;-0.6677;-1.3962;0.3224;0.0967;0.0235;172.2;-6.28;-15.96;-45.56;99.78;-17.49;4.1;5.0;35.958416;-83.92455;752.29;NaN;0.0;365.1056;;0 / 4;24007;2022-11-01 17:40:43:701
-1.2012;1.765;11.2334;-1.6876;0.6878;9.6358;1.7533;0.809;2.1884;0.1297;0.3024;0.5524;153.6;0.58;-8.64;-36.41;142.2;-1.92;11.27;5.0;35.958416;-83.92455;752.29;NaN;0.0;365.1056;;0 / 4;24508;2022-11-01 17:40:44:202
-1.9083;4.1106;6.9368;-0.5263;3.0855;9.2937;-0.8202;-1.5215;0.266;-0.0343;-0.0541;-0.6171;140.5;1.13;-3.13;-37.65;7.2;-18.34;3.24;5.0;35.958416;-83.92455;752.29;NaN;0.0;365.1056;;0 / 4;25007;2022-11-01 17:40:44:701
2.4963;-0.623;15.0682;0.5664;2.6385;9.428;0.2088;0.2392;-1.2102;-1.4747;-0.2498;0.5741;117.1;-3.84;-4.31;-44.1;9.57;-15.61;-3.44;5.0;35.958416;-83.92455;752.29;NaN;0.0;365.1056;;0 / 4;25507;2022-11-01 17:40:45:201
0.5094;1.9863;6.932;0.2366;1.4424;9.6971;0.4292;0.4589;-2.7373;0.3256;0.1296;0.0732;85.6;-9.99;6.49;-46.39;34.87;-8.46;-1.4;5.0;35.958416;-83.92455;752.29;NaN;0.0;365.1056;;0 / 4;26007;2022-11-01 17:40:45:701
-0.3284;2.3106;9.4274;-0.2948;1.1845;9.7304;-0.3708;2.468;-2.0075;-0.4976;0.2317;-0.0834;72.2;-10.74;0.56;-49.13;53.52;-8.66;0.36;5.0;35.958416;-83.92455;752.29;NaN;0.0;365.1056;;3 / 3;26507;2022-11-01 17:40:46:201
-0.0796;1.0795;12.944;-0.2231;1.9224;9.6138;0.3823;-0.2421;-0.4541;-0.3163;1.1477;0.5133;52.5;-15.83;-2.27;-52.61;64.13;-11.3;1.33;5.0;35.958416;-83.92455;752.29;NaN;0.0;365.1056;;3 / 3;27008;2022-11-01 17:40:46:702
-1.2843;0.9951;9.6622;-1.6596;1.0522;9.6078;-0.4999;0.2695;0.321;0.1029;0.2265;0.5595;37.0;-14.01;0.17;-56.01;76.35;-6.16;9.8;5.0;35.958416;-83.92455;752.29;NaN;0.0;365.1056;;0 / 4;27508;2022-11-01 17:40:47:202
-2.0489;0.795;8.5744;-1.6241;0.7712;9.6404;-0.506;0.1107;-0.9769;0.1389;-0.3786;-0.0396;21.3;-9.81;5.51;-57.77;62.04;-4.51;9.56;5.0;35.958416;-83.92455;752.29;NaN;0.0;365.1056;;0 / 4;28007;2022-11-01 17:40:47:701
-1.1548;-0.9464;14.7592;-0.8161;0.8656;9.7342;-0.1556;-1.9783;4.9934;-0.3676;-0.7194;0.1872;16.4;-14.79;3.68;-58.18;65.4;-6.4;7.27;5.0;35.958416;-83.92455;752.29;NaN;0.0;365.1056;;0 / 4;28507;2022-11-01 17:40:48:201
-1.4169;0.0296;11.4209;-1.1627;1.0415;9.6816;0.5156;-1.0769;0.4318;0.4552;-0.8993;-0.3316;16.8;-17.16;7.35;-57.26;61.69;-6.1;6.85;5.0;35.958416;-83.92455;752.29;NaN;0.0;365.1056;;0 / 4;29007;2022-11-01 17:40:48:701
-2.8143;1.503;9.7493;-0.9092;1.0821;9.7043;0.072;-0.6776;-0.8698;0.0715;0.2783;-1.3956;16.8;-19.87;3.11;-52.88;70.92;-6.34;5.35;5.0;35.958416;-83.92455;752.29;NaN;0.0;365.1056;;0 / 4;29507;2022-11-01 17:40:49:201
-1.2233;1.2939;9.3885;-1.2848;1.7421;9.5648;-1.065;-1.0767;-0.7286;0.1191;0.8476;0.9379;20.4;-21.67;-8.34;-52.99;88.45;-9.93;6.65;5.0;35.958416;-83.92455;752.29;NaN;0.0;365.1056;;0 / 4;30007;2022-11-01 17:40:49:701
6.0E-4;0.7125;7.6965;-1.4005;1.5075;9.5884;1.2977;-0.5651;-2.1797;0.7214;0.2641;-0.0229;33.0;-28.22;5.91;-54.3;71.27;-5.5;4.56;5.0;35.958416;-83.92455;752.29;NaN;0.0;365.1056;;0 / 4;30507;2022-11-01 17:40:50:201
0.3948;1.5559;8.0979;2.0991;2.3489;9.2869;-1.9574;-0.451;0.1705;-0.3302;-0.7464;0.0095;38.4;-32.4;-1.52;-53.51;57.37;-13.86;-12.74;5.0;35.958416;-83.92455;752.29;NaN;0.0;365.1056;;0 / 4;31008;2022-11-01 17:40:50:702
2.3031;3.1014;7.3612;2.6786;2.5545;9.0813;0.2193;-1.8911;3.4757;0.7085;-0.0556;0.3771;47.1;-36.9;0.66;-47.62;54.4;-15.1;-16.43;5.0;35.958416;-83.92455;752.29;NaN;0.0;365.1056;;0 / 4;31507;2022-11-01 17:40:51:201
1.5775;0.6502;8.0542;0.2462;1.5433;9.6813;1.4047;-1.8206;0.165;-0.1386;0.1455;0.4621;53.7;-19.69;5.93;-57.22;51.08;-9.05;-1.46;5.0;35.958416;-83.92455;752.29;NaN;0.0;365.1056;;0 / 4;32007;2022-11-01 17:40:51:701
-1.7788;0.9153;8.3175;-0.6304;0.9234;9.7427;-1.3748;-0.2683;-1.2472;0.06;-0.0803;0.442;53.7;1.13;9.66;-61.67;16.57;-4.7;5.06;5.0;35.958416;-83.92455;752.29;NaN;0.0;365.1056;;0 / 4;32507;2022-11-01 17:40:52:201
-0.6628;0.0541;10.4901;0.0225;0.4668;9.7955;-0.26;-1.6915;2.3075;-0.2898;-0.798;-0.5776;60.7;-8.34;2.93;-97.54;45.42;-2.73;-0.13;5.0;35.958416;-83.92455;752.29;NaN;0.0;365.1056;;0 / 4;33008;2022-11-01 17:40:52:702
0.1923;0.4842;9.722;-0.8529;0.7205;9.7429;1.3324;-0.5344;-0.0084;0.0148;-0.6242;-0.5385;50.9;-12.51;3.04;-107.96;65.65;-5.05;7.56;5.0;35.958416;-83.92455;752.29;NaN;0.0;365.1056;;0 / 4;33507;2022-11-01 17:40:53:201
-0.3461;-0.1941;8.0372;0.8757;0.2309;9.7647;-2.0111;0.6683;-2.4299;-0.5567;0.0939;0.6957;43.2;-20.1;6.98;-110.89;46.06;-1.35;-5.12;5.0;35.958416;-83.92455;752.29;NaN;0.0;365.1056;;0 / 4;34007;2022-11-01 17:40:53:701
0.2447;-0.8806;7.7133;0.2543;0.991;9.7531;-0.7177;-1.2524;-1.292;0.4752;0.2649;0.3873;43.2;-17.79;9.79;-107.46;38.56;-2.59;-3.28;5.0;35.958416;-83.92455;752.29;NaN;0.0;365.1056;;0 / 4;34507;2022-11-01 17:40:54:201
-1.0986;-2.7526;13.1363;-2.0276;-0.2578;9.5913;-0.252;-0.9372;2.7408;-0.2739;0.3748;0.9167;38.9;-0.54;8.85;-95.12;72.36;1.51;11.94;5.0;35.958416;-83.92455;752.29;NaN;0.0;365.1056;;0 / 4;35008;2022-11-01 17:40:54:702
-2.1215;0.8273;10.0128;-2.0901;-1.1507;9.512;-0.0049;1.7918;0.4567;0.0505;-0.3675;0.0435;16.0;14.76;1.03;-87.52;153.4;7.35;13.02;5.0;35.958416;-83.92455;752.29;NaN;0.0;365.1056;;3 / 4;35508;2022-11-01 17:40:55:202
-2.5433;-0.2186;7.8141;-3.8349;0.1357;9.0247;2.0431;-0.1786;-1.3225;-0.2705;0.2514;-0.0329;27.4;21.28;-6.66;-81.71;114.63;-0.79;23.02;5.0;35.958416;-83.92455;752.29;NaN;0.0;365.1056;;3 / 4;36008;2022-11-01 17:40:55:702
-3.6042;-1.2413;9.7149;-3.6667;-0.2801;9.091;-0.222;-1.2411;2.9382;0.2649;-0.6257;-0.1213;19.4;22.44;-3.38;-80.72;117.34;1.96;22.93;5.0;35.958416;-83.92455;752.29;NaN;0.0;365.1056;;0 / 4;36507;2022-11-01 17:40:56:201
-2.7751;-1.7288;9.897;-2.451;-0.8194;9.46;-0.2579;-0.5996;-0.1317;0.0671;0.1433;-0.068;22.9;18.13;4.48;-81.37;135.51;4.79;14.53;5.0;35.958416;-83.92455;752.29;NaN;0.0;365.1056;;0 / 4;37008;2022-11-01 17:40:56:702
-2.4099;-0.5118;7.6262;-2.4096;-1.5722;9.3751;-0.2643;0.6824;-0.6079;-0.3342;0.4184;-0.0283;18.7;14.21;14.34;-79.09;56.93;8.35;12.47;5.0;35.958416;-83.92455;752.29;NaN;0.0;365.1056;;0 / 6;37508;2022-11-01 17:40:57:202
-3.8773;-1.9693;7.96;-2.7549;-1.2387;9.3299;0.4344;-1.3348;0.7686;-0.0069;0.0598;-0.3734;14.5;13.14;17.55;-74.85;46.57;7.26;16.45;5.0;35.958416;-83.92455;752.29;NaN;0.0;365.1056;;0 / 6;38008;2022-11-01 17:40:57:702
-2.683;-0.3966;10.4139;-3.0442;-1.0507;9.2628;0.6274;-0.153;1.0449;0.262;0.6467;0.1409;14.5;10.41;21.99;-71.96;44.99;7.73;17.53;5.0;35.958416;-83.92455;752.29;NaN;0.0;365.1056;;0 / 6;38508;2022-11-01 17:40:58:202
-2.152;-0.1128;8.8995;-1.9817;-0.5193;9.5903;-0.0256;0.3544;0.039;0.5005;-0.0075;0.2938;17.0;10.37;18.83;-71.91;17.52;3.04;11.68;5.0;35.958416;-83.92455;752.29;NaN;0.0;365.1056;;0 / 6;39008;2022-11-01 17:40:58:702
-2.5352;-0.7717;8.8068;-1.4417;0.128;9.6993;-3.5469;0.3743;-0.6909;-0.4373;-0.5492;0.8384;17.0;9.11;15.75;-75.71;9.47;-2.74;9.21;5.0;35.958416;-83.92455;752.29;NaN;0.0;365.1056;;0 / 6;39507;2022-11-01 17:40:59:201
-4.5057;0.3404;11.7431;-3.8013;-0.3254;9.0341;1.7161;-0.9298;1.3301;0.2113;-0.139;-0.8446;27.1;13.82;15.58;-74.16;49.38;1.9;22.82;5.0;35.958416;-83.92455;752.29;NaN;0.0;365.1056;;0 / 6;40007;2022-11-01 17:40:59:701
-2.6833;0.023;8.2813;-2.1025;-1.2886;9.4915;-0.5088;0.9945;-0.5598;-0.8218;0.0489;0.835;17.3;12.41;16.2;-76.07;39.29;7.55;12.49;5.0;35.958416;-83.92455;752.29;NaN;0.0;365.1056;;0 / 6;40507;2022-11-01 17:41:00:201
-2.7075;-1.9304;8.5702;-2.7534;-1.3538;9.3143;-0.0918;-0.3431;-1.0565;0.1053;1.2322;0.0894;20.5;12.36;12.41;-78.04;84.13;7.93;16.47;5.0;35.958416;-83.92455;752.29;NaN;0.0;365.1056;;0 / 6;41007;2022-11-01 17:41:00:701
-2.8394;-1.5141;8.7526;-2.7861;-1.1625;9.3304;0.0021;-0.1719;1.8274;-0.5385;-0.576;-0.0079;21.8;16.33;3.11;-81.92;120.41;6.01;17.73;5.0;35.958416;-83.92455;752.29;NaN;0.0;365.1056;;0 / 6;41508;2022-11-01 17:41:01:202
1.7459;-5.5451;13.882;-0.4073;-1.7803;9.6351;-0.1209;-2.023;7.1757;-0.0786;0.4929;-0.5227;38.3;3.94;-8.68;-95.79;179.87;10.46;2.42;5.0;35.958416;-83.92455;752.29;NaN;0.0;365.1056;;0 / 6;42008;2022-11-01 17:41:01:702
-2.8038;-0.1956;10.357;-2.1018;0.0188;9.5787;-0.2231;-2.0919;-1.3601;0.3968;0.2832;1.1791;68.7;-2.53;-18.83;-103.5;126.71;-0.11;12.38;5.0;35.958416;-83.92455;752.29;NaN;0.0;365.1056;;0 / 6;42507;2022-11-01 17:41:02:201
-3.6036;-0.4229;7.9914;-2.9862;-0.5675;9.3237;-0.5974;0.2483;-1.8783;-0.0483;0.0902;0.9595;76.7;2.55;-29.98;-113.38;138.9;3.32;17.76;5.0;35.958416;-83.92455;752.29;NaN;0.0;365.1056;;0 / 6;43007;2022-11-01 17:41:02:701
-1.1261;-1.0047;8.4966;-0.4907;-0.4069;9.7859;0.1193;-0.3293;-2.0326;-0.1049;-0.5336;0.7313;108.3;4.74;-25.82;-117.19;172.19;1.45;4.39;5.0;35.958416;-83.92455;752.29;NaN;0.0;365.1056;;0 / 6;43507;2022-11-01 17:41:03:201
0.5638;-2.3025;10.8374;-0.7281;-1.0994;9.7176;2.4249;-2.4303;4.5637;0.5448;0.9989;0.4716;163.6;-5.4;-36.77;-120.6;164.4;6.44;4.28;5.0;35.958416;-83.92455;752.29;NaN;0.0;365.1056;;0 / 6;44008;2022-11-01 17:41:03:702
-1.9956;-0.0664;8.822;-2.7565;-0.219;9.4087;1.0461;-0.5432;0.3222;0.4063;0.5695;1.4666;199.2;4.88;-51.15;-118.5;151.85;1.28;16.33;5.0;35.958416;-83.92455;752.29;NaN;0.0;365.1056;;2 / 5;44508;2022-11-01 17:41:04:202
-3.0278;-1.0699;10.1115;-2.7721;-0.8544;9.3678;-0.4254;-0.1437;0.6075;-0.4342;0.2243;0.7381;174.9;7.67;-47.06;-107.34;157.93;5.0;16.48;5.0;35.958416;-83.92455;752.29;NaN;0.0;365.1056;;2 / 5;45007;2022-11-01 17:41:04:701
-3.8746;-1.4635;9.0948;-3.5856;0.4194;9.118;-0.299;-1.8602;-0.0328;0.3615;0.8022;-0.0158;200.1;2.74;-42.62;-104.04;141.42;-1.34;19.83;5.0;35.958416;-83.92455;752.29;NaN;0.0;365.1056;;0 / 5;45508;2022-11-01 17:41:05:202
-0.9114;-0.1908;9.7633;-2.2415;-0.5893;9.5288;1.8745;0.5322;1.9071;0.6064;1.3741;-0.3066;200.1;-6.66;-41.46;-98.74;147.69;3.45;13.24;5.0;35.958416;-83.92455;752.29;NaN;0.0;365.1056;;0 / 5;46008;2022-11-01 17:41:05:702
-4.7148;-1.4133;7.8969;-3.7688;-0.6601;9.0294;-1.8099;-0.975;-0.0341;-0.2346;0.3569;-0.2983;206.5;2.76;-36.64;-94.8;141.74;3.86;22.66;5.0;35.958416;-83.92455;752.29;NaN;0.0;365.1056;;0 / 7;46508;2022-11-01 17:41:06:202
-5.1443;0.5937;10.1091;-4.5324;-0.0111;8.6964;-0.3197;0.7601;1.4194;-0.6864;0.3901;0.8731;206.5;6.77;-34.5;-91.18;134.47;0.17;26.87;5.0;35.958416;-83.92455;752.29;NaN;0.0;365.1056;;0 / 7;47008;2022-11-01 17:41:06:702
-3.1798;0.6888;8.3249;-3.1299;-0.0996;9.2932;-0.1818;0.8256;-1.0872;-0.1978;0.108;-0.0336;159.2;-2.79;-32.7;-90.0;138.64;0.83;17.64;5.0;35.958416;-83.92455;752.29;NaN;0.0;365.1056;;0 / 7;47508;2022-11-01 17:41:07:202
-3.4499;-2.5663;7.7578;-2.831;-1.2469;9.306;-0.9275;-1.2771;-0.9343;0.1546;-0.2976;-0.1526;97.7;-6.11;-27.3;-89.79;139.59;7.3;16.92;5.0;35.958416;-83.92455;752.29;NaN;0.0;365.1056;;0 / 7;48007;2022-11-01 17:41:07:701
-2.0997;-0.0045;6.0826;-1.8217;-0.455;9.6252;0.8373;-2.0985;6.8028;0.6257;-0.6777;0.275;48.4;-11.31;-24.19;-86.94;135.9;2.66;10.72;5.0;35.958416;-83.92455;752.29;NaN;0.0;365.1056;;0 / 7;48507;2022-11-01 17:41:08:201
-2.6013;-0.6772;12.6712;-2.6145;-0.1371;9.4507;0.0196;-0.0151;0.5476;0.0291;0.3558;-0.024;41.2;-16.59;-23.61;-88.35;122.23;0.8;15.46;5.0;35.958416;-83.92455;752.29;NaN;0.0;365.1056;;0 / 7;49007;2022-11-01 17:41:08:701
-4.9044;-0.6407;12.912;-3.6031;-0.3916;9.1123;0.2084;-1.0017;0.0384;0.1298;0.4773;0.0841;20.0;-15.32;-23.89;-92.89;116.78;0.37;21.88;5.0;35.958416;-83.92455;752.29;NaN;0.0;365.1056;;0 / 7;49507;2022-11-01 17:41:09:201
-4.0391;-0.4125;6.6903;-3.2073;-0.2204;9.2647;-0.7315;-1.1227;-1.9698;0.247;-0.2776;1.0109;20.0;-18.97;-21.22;-93.45;115.26;1.29;19.1;5.0;35.958416;-83.92455;752.29;NaN;0.0;365.1056;;0 / 7;50007;2022-11-01 17:41:09:701
-4.4276;-1.6627;6.6332;-3.3482;-1.4232;9.1068;-0.9841;-0.4367;-2.505;0.1646;0.0075;-0.5283;15.8;-21.21;-20.61;-96.06;121.64;8.22;20.26;5.0;35.958416;-83.92455;752.29;NaN;0.0;365.1056;;0 / 7;50507;2022-11-01 17:41:10:201
-2.2205;-0.3742;9.7585;-1.2375;-1.1744;9.6571;-0.7036;0.5291;2.0892;-0.2272;0.3825;-0.263;15.8;-18.84;-29.04;-95.83;142.12;6.88;7.3;5.0;35.958416;-83.92455;752.29;NaN;0.0;365.1056;;0 / 7;51007;2022-11-01 17:41:10:701
-5.2119;-0.6775;9.2647;-4.2408;-0.9853;8.7872;-0.0374;0.4565;-0.4932;0.1951;0.8135;-0.0051;21.3;-21.6;-25.67;-97.88;118.86;6.5;26.16;5.0;35.958416;-83.92455;752.29;NaN;0.0;365.1056;;0 / 7;51508;2022-11-01 17:41:11:202
-3.842;-0.3218;10.6283;-3.2431;-0.2411;9.2517;0.3331;-0.0971;-1.0167;-0.5116;-0.0945;0.916;21.3;-20.51;-32.42;-113.25;121.05;1.41;19.32;5.0;35.958416;-83.92455;752.29;NaN;0.0;365.1056;;0 / 7;52007;2022-11-01 17:41:11:701
-1.3337;-1.4336;11.2555;-1.9899;-0.9674;9.5538;0.5988;-0.418;1.4782;-0.4046;-0.0416;1.1585;41.1;-34.22;-25.89;-101.94;123.63;6.36;11.89;5.0;35.958416;-83.92455;752.29;NaN;0.0;365.1056;;0 / 7;52508;2022-11-01 17:41:12:202
-0.9138;-0.7552;10.2344;-0.0962;-0.9811;9.757;0.1003;-0.9922;1.7408;0.2394;-0.1567;1.0707;58.0;-48.0;0.17;-92.17;100.6;5.74;0.56;5.0;35.958416;-83.92455;752.29;NaN;0.0;365.1056;;0 / 7;53007;2022-11-01 17:41:12:701
-2.5116;0.3517;7.5371;-2.1017;-0.1888;9.5769;-0.0667;-0.1106;-1.2613;0.3676;0.1552;0.3842;58.0;-39.28;21.77;-88.2;71.29;2.09;12.06;5.0;35.958416;-83.92455;752.29;NaN;0.0;365.1056;;4 / 7;53507;2022-11-01 17:41:13:201
-4.2586;-1.1883;9.0111;-2.8223;-0.4839;9.3793;-0.0997;-0.8982;0.7969;-0.2915;0.2579;-0.327;58.0;-21.88;30.83;-86.06;59.31;2.83;16.75;5.0;35.958416;-83.92455;752.29;NaN;0.0;365.1056;;4 / 7;54007;2022-11-01 17:41:13:701
0.3197;-1.6217;14.8801;-3.1136;-0.4792;9.2869;-0.4494;2.0909;2.0119;-1.0768;-0.4041;0.2919;49.2;-15.22;28.14;-82.78;56.2;-0.77;20.62;5.0;35.958416;-83.92455;752.29;NaN;0.0;365.1056;;0 / 7;54507;2022-11-01 17:41:14:201
-2.2642;0.8486;8.132;-2.918;-0.4182;9.3531;0.5223;0.8338;-0.1446;0.2365;-0.065;0.2388;49.2;-8.1;20.59;-78.64;60.18;2.44;17.33;5.0;35.958416;-83.92455;752.29;NaN;0.0;365.1056;;0 / 7;55007;2022-11-01 17:41:14:701
-3.3263;-1.6914;7.7309;-1.142;-0.8748;9.7006;-1.7411;-0.9858;-1.935;-0.2381;0.0644;0.804;43.5;-2.42;14.89;-75.41;52.29;5.12;6.71;5.0;35.958416;-83.92455;752.29;NaN;0.0;365.1056;;0 / 7;55507;2022-11-01 17:41:15:201
-2.8364;0.7301;8.033;-2.857;0.0433;9.3812;0.6786;0.6738;-1.0905;-0.4087;0.0756;0.3644;30.4;3.26;7.43;-75.9;69.19;-0.25;16.94;5.0;35.958416;-83.92455;752.29;NaN;0.0;365.1056;;0 / 7;56007;2022-11-01 17:41:15:701
-2.8585;-0.8779;10.1507;-2.3046;-0.7664;9.5011;-0.3138;-0.0555;0.9766;-0.4004;0.2016;0.5385;23.9;7.95;-1.01;-78.41;122.8;3.89;13.0;5.0;35.958416;-83.92455;752.29;NaN;0.0;365.1056;;0 / 8;56508;2022-11-01 17:41:16:202
-1.928;-0.6544;8.7757;-1.2689;-1.1205;9.6594;-0.8604;0.2585;-0.9327;0.0131;0.0528;0.2209;23.9;6.38;-11.96;-85.71;166.43;6.56;7.48;5.0;35.958416;-83.92455;752.29;NaN;0.0;365.1056;;0 / 8;57007;2022-11-01 17:41:16:701
-4.1109;0.8937;14.3372;-3.3252;-0.7845;9.1923;1.7236;2.2284;7.0881;1.1211;-0.7359;-0.8397;27.5;8.33;-14.98;-86.55;134.53;4.59;19.89;5.0;35.958416;-83.92455;752.29;NaN;0.0;365.1056;;0 / 8;57507;2022-11-01 17:41:17:201
-1.4599;-0.1872;10.0857;-2.4345;-0.0371;9.4996;1.1293;0.0131;-0.591;-0.5134;0.5411;0.5618;23.2;7.24;-12.97;-87.06;131.97;0.22;14.37;5.0;35.958416;-83.92455;752.29;NaN;0.0;365.1056;;0 / 8;58007;2022-11-01 17:41:17:701
-2.741;-1.1611;7.96;-2.4107;-0.4426;9.4954;0.1113;-0.7952;-1.3043;0.4361;0.4751;-0.5576;23.0;2.48;-10.58;-86.34;132.28;3.33;13.04;5.0;35.958416;-83.92455;752.29;NaN;0.0;365.1056;;0 / 8;58508;2022-11-01 17:41:18:202
-2.0725;0.0694;8.8098;-1.8161;-1.0671;9.5778;-0.1619;1.3989;-0.9652;-0.4879;0.3223;0.229;19.8;1.69;-3.62;-83.83;132.26;4.94;9.75;5.0;35.958416;-83.92455;752.29;NaN;0.0;365.1056;;0 / 8;59008;2022-11-01 17:41:18:702
-4.418;-1.9678;7.503;-2.2909;-1.0376;9.4787;2.5607;-2.1104;3.1122;0.0143;0.7413;-0.9096;19.8;-1.35;3.32;-84.82;105.31;6.07;13.59;5.0;35.958416;-83.92455;752.29;NaN;0.0;365.1056;;0 / 8;59507;2022-11-01 17:41:19:201
1.6487;-1.9169;17.6273;-0.6894;0.3919;9.7745;1.8148;-2.0103;7.9751;-0.0252;-0.3813;0.9619;19.8;-4.84;4.54;-87.64;52.79;-2.29;4.03;5.0;35.958416;-83.92455;752.29;NaN;0.0;365.1056;;0 / 8;60008;2022-11-01 17:41:19:702
-1.628;0.6377;7.9699;-3.1916;-0.2364;9.2697;2.9584;1.031;-2.7743;-0.3136;1.3667;0.6761;27.3;-5.98;1.07;-92.12;88.7;0.23;14.17;5.0;35.958416;-83.92455;752.29;NaN;0.0;365.1056;;0 / 8;60508;2022-11-01 17:41:20:202
-2.19;2.0297;6.4125;-0.9335;0.5517;9.7465;-2.3305;-2.2643;-0.7563;0.7279;-0.1455;0.1129;23.8;-3.58;-3.41;-93.71;80.15;-3.22;5.47;5.0;35.958416;-83.92455;752.29;NaN;0.0;365.1056;;0 / 8;61007;2022-11-01 17:41:20:701
-2.9318;-0.894;8.5666;-0.9335;0.5517;9.7465;-2.3305;-2.2643;-0.7563;0.7279;-0.1455;0.1129;20.3;-3.58;-3.41;-93.71;80.15;-3.22;5.47;5.0;35.958416;-83.92455;752.29;NaN;0.0;365.1056;;0 / 8;61507;2022-11-01 17:41:21:201
-2.6512;-2.1087;7.9684;-0.9335;0.5517;9.7465;-2.3305;-2.2643;-0.7563;0.7279;-0.1455;0.1129;28.7;-3.58;-3.41;-93.71;80.15;-3.22;5.47;5.0;35.958416;-83.92455;752.29;NaN;0.0;365.1056;;0 / 8;62007;2022-11-01 17:41:21:701
-2.2137;-0.4819;10.0735;-0.9335;0.5517;9.7465;-2.3305;-2.2643;-0.7563;0.7279;-0.1455;0.1129;35.4;-3.58;-3.41;-93.71;80.15;-3.22;5.47;5.0;35.958416;-83.92455;752.29;NaN;0.0;365.1056;;0 / 8;62507;2022-11-01 17:41:22:201
-3.367;-1.5532;6.7666;-0.9335;0.5517;9.7465;-2.3305;-2.2643;-0.7563;0.7279;-0.1455;0.1129;68.6;-3.58;-3.41;-93.71;80.15;-3.22;5.47;5.0;35.958416;-83.92455;752.29;NaN;0.0;365.1056;;0 / 8;63008;2022-11-01 17:41:22:702
-1.966;-1.3217;9.6275;-0.9335;0.5517;9.7465;-2.3305;-2.2643;-0.7563;0.7279;-0.1455;0.1129;116.5;-3.58;-3.41;-93.71;80.15;-3.22;5.47;5.0;35.958416;-83.92455;752.29;NaN;0.0;365.1056;;0 / 8;63507;2022-11-01 17:41:23:201
-2.0566;-3.8402;10.975;-0.9335;0.5517;9.7465;-2.3305;-2.2643;-0.7563;0.7279;-0.1455;0.1129;116.5;-3.58;-3.41;-93.71;80.15;-3.22;5.47;5.0;35.958416;-83.92455;752.29;NaN;0.0;365.1056;;0 / 8;64007;2022-11-01 17:41:23:701
-2.9055;-2.6767;9.1765;-0.9335;0.5517;9.7465;-2.3305;-2.2643;-0.7563;0.7279;-0.1455;0.1129;140.5;-3.58;-3.41;-93.71;80.15;-3.22;5.47;5.0;35.958416;-83.92455;752.29;NaN;0.0;365.1056;;0 / 8;64508;2022-11-01 17:41:24:202
-1.8697;-0.9299;9.4567;-0.9335;0.5517;9.7465;-2.3305;-2.2643;-0.7563;0.7279;-0.1455;0.1129;172.9;-3.58;-3.41;-93.71;80.15;-3.22;5.47;5.0;35.958416;-83.92455;752.29;NaN;0.0;365.1056;;0 / 8;65008;2022-11-01 17:41:24:702
-2.1398;-2.3118;9.7881;-0.9335;0.5517;9.7465;-2.3305;-2.2643;-0.7563;0.7279;-0.1455;0.1129;172.9;-3.58;-3.41;-93.71;80.15;-3.22;5.47;5.0;35.958416;-83.92455;752.29;NaN;0.0;365.1056;;0 / 8;65507;2022-11-01 17:41:25:201
-3.0275;0.4131;9.7158;-0.9335;0.5517;9.7465;-2.3305;-2.2643;-0.7563;0.7279;-0.1455;0.1129;172.9;-3.58;-3.41;-93.71;80.15;-3.22;5.47;5.0;35.958416;-83.92455;752.29;NaN;0.0;365.1056;;0 / 8;66008;2022-11-01 17:41:25:702
-1.5676;0.268;8.5023;-0.9335;0.5517;9.7465;-2.3305;-2.2643;-0.7563;0.7279;-0.1455;0.1129;126.7;-3.58;-3.41;-93.71;80.15;-3.22;5.47;5.0;35.958416;-83.92455;752.29;NaN;0.0;365.1056;;0 / 8;66508;2022-11-01 17:41:26:202
-3.5668;-1.3445;7.596;-0.9335;0.5517;9.7465;-2.3305;-2.2643;-0.7563;0.7279;-0.1455;0.1129;126.7;-3.58;-3.41;-93.71;80.15;-3.22;5.47;5.0;35.958416;-83.92455;752.29;NaN;0.0;365.1056;;0 / 8;67007;2022-11-01 17:41:26:701
-3.583;-0.7178;11.5182;-0.9335;0.5517;9.7465;-2.3305;-2.2643;-0.7563;0.7279;-0.1455;0.1129;106.2;-3.58;-3.41;-93.71;80.15;-3.22;5.47;5.0;35.958416;-83.92455;752.29;NaN;0.0;365.1056;;0 / 8;67507;2022-11-01 17:41:27:201
-4.9828;-0.5838;10.6798;-0.9335;0.5517;9.7465;-2.3305;-2.2643;-0.7563;0.7279;-0.1455;0.1129;66.1;-3.58;-3.41;-93.71;80.15;-3.22;5.47;5.0;35.958416;-83.92455;752.29;NaN;0.0;365.1056;;0 / 8;68008;2022-11-01 17:41:27:702
-4.3122;-0.6455;7.2981;-0.9335;0.5517;9.7465;-2.3305;-2.2643;-0.7563;0.7279;-0.1455;0.1129;21.1;-3.58;-3.41;-93.71;80.15;-3.22;5.47;5.0;35.958416;-83.92455;752.29;NaN;0.0;365.1056;;0 / 8;68507;2022-11-01 17:41:28:201
-3.323;-0.2408;9.408;-0.9335;0.5517;9.7465;-2.3305;-2.2643;-0.7563;0.7279;-0.1455;0.1129;27.5;-3.58;-3.41;-93.71;80.15;-3.22;5.47;5.0;35.958416;-83.92455;752.29;NaN;0.0;365.1056;;0 / 8;69007;2022-11-01 17:41:28:701
-3.539;-1.7219;11.0456;-0.9335;0.5517;9.7465;-2.3305;-2.2643;-0.7563;0.7279;-0.1455;0.1129;15.6;-3.58;-3.41;-93.71;80.15;-3.22;5.47;5.0;35.958416;-83.92455;752.29;NaN;0.0;365.1056;;0 / 8;69508;2022-11-01 17:41:29:202
-3.1469;-1.5808;8.5349;-0.9335;0.5517;9.7465;-2.3305;-2.2643;-0.7563;0.7279;-0.1455;0.1129;11.8;-3.58;-3.41;-93.71;80.15;-3.22;5.47;5.0;35.958416;-83.92455;752.29;NaN;0.0;365.1056;;0 / 8;70007;2022-11-01 17:41:29:701
-2.3925;-0.5052;8.694;-0.9335;0.5517;9.7465;-2.3305;-2.2643;-0.7563;0.7279;-0.1455;0.1129;14.5;-3.58;-3.41;-93.71;80.15;-3.22;5.47;5.0;35.958416;-83.92455;752.29;NaN;0.0;365.1056;;0 / 8;70507;2022-11-01 17:41:30:201
-2.3883;-2.9659;11.6028;-0.9335;0.5517;9.7465;-2.3305;-2.2643;-0.7563;0.7279;-0.1455;0.1129;14.5;-3.58;-3.41;-93.71;80.15;-3.22;5.47;5.0;35.958416;-83.92455;752.29;NaN;0.0;365.1056;;0 / 8;71007;2022-11-01 17:41:30:701
-3.4753;-1.3241;11.3803;-0.9335;0.5517;9.7465;-2.3305;-2.2643;-0.7563;0.7279;-0.1455;0.1129;19.3;-3.58;-3.41;-93.71;80.15;-3.22;5.47;5.0;35.958416;-83.92455;752.29;NaN;0.0;365.1056;;0 / 8;71507;2022-11-01 17:41:31:201
-1.966;-0.2557;8.3243;-0.9335;0.5517;9.7465;-2.3305;-2.2643;-0.7563;0.7279;-0.1455;0.1129;23.2;-3.58;-3.41;-93.71;80.15;-3.22;5.47;5.0;35.958416;-83.92455;752.29;NaN;0.0;365.1056;;0 / 8;72008;2022-11-01 17:41:31:702
-1.5769;-1.9445;9.0942;-0.9335;0.5517;9.7465;-2.3305;-2.2643;-0.7563;0.7279;-0.1455;0.1129;38.2;-3.58;-3.41;-93.71;80.15;-3.22;5.47;5.0;35.958416;-83.92455;752.29;NaN;0.0;365.1056;;0 / 8;72507;2022-11-01 17:41:32:201
-1.0247;0.3529;9.6377;-0.9335;0.5517;9.7465;-2.3305;-2.2643;-0.7563;0.7279;-0.1455;0.1129;43.6;-3.58;-3.41;-93.71;80.15;-3.22;5.47;5.0;35.958416;-83.92455;752.29;NaN;0.0;365.1056;;0 / 8;73007;2022-11-01 17:41:32:701
0.3051;-1.6759;8.5983;-0.9335;0.5517;9.7465;-2.3305;-2.2643;-0.7563;0.7279;-0.1455;0.1129;61.2;-3.58;-3.41;-93.71;80.15;-3.22;5.47;5.0;35.958416;-83.92455;752.29;NaN;0.0;365.1056;;0 / 8;73507;2022-11-01 17:41:33:201
0.5644;-0.5312;10.0394;-0.9335;0.5517;9.7465;-2.3305;-2.2643;-0.7563;0.7279;-0.1455;0.1129;68.7;-3.58;-3.41;-93.71;80.15;-3.22;5.47;5.0;35.958416;-83.92455;752.29;NaN;0.0;365.1056;;0 / 8;74008;2022-11-01 17:41:33:702
-1.4871;-2.3653;12.6553;-0.9335;0.5517;9.7465;-2.3305;-2.2643;-0.7563;0.7279;-0.1455;0.1129;68.7;-3.58;-3.41;-93.71;80.15;-3.22;5.47;5.0;35.958416;-83.92455;752.29;NaN;0.0;365.1056;;0 / 8;74507;2022-11-01 17:41:34:201
-2.5134;-1.7115;8.6345;-0.9335;0.5517;9.7465;-2.3305;-2.2643;-0.7563;0.7279;-0.1455;0.1129;52.6;-3.58;-3.41;-93.71;80.15;-3.22;5.47;5.0;35.958416;-83.92455;752.29;NaN;0.0;365.1056;;0 / 8;75008;2022-11-01 17:41:34:702
-2.7634;-0.7579;7.9226;-0.9335;0.5517;9.7465;-2.3305;-2.2643;-0.7563;0.7279;-0.1455;0.1129;38.6;-3.58;-3.41;-93.71;80.15;-3.22;5.47;5.0;35.958416;-83.92455;752.29;NaN;0.0;365.1056;;0 / 8;75508;2022-11-01 17:41:35:202
-2.3794;-1.0478;8.2361;-0.9335;0.5517;9.7465;-2.3305;-2.2643;-0.7563;0.7279;-0.1455;0.1129;22.5;-3.58;-3.41;-93.71;80.15;-3.22;5.47;5.0;35.958416;-83.92455;752.29;NaN;0.0;365.1056;;0 / 8;76007;2022-11-01 17:41:35:701
-2.4123;-0.7427;9.6132;-0.9335;0.5517;9.7465;-2.3305;-2.2643;-0.7563;0.7279;-0.1455;0.1129;16.7;-3.58;-3.41;-93.71;80.15;-3.22;5.47;5.0;35.958416;-83.92455;752.29;NaN;0.0;365.1056;;0 / 8;76508;2022-11-01 17:41:36:202
-1.538;-0.8151;10.1085;-0.9335;0.5517;9.7465;-2.3305;-2.2643;-0.7563;0.7279;-0.1455;0.1129;18.8;-3.58;-3.41;-93.71;80.15;-3.22;5.47;5.0;35.958416;-83.92455;752.29;NaN;0.0;365.1056;;0 / 8;77007;2022-11-01 17:41:36:701
-1.9454;-1.5888;8.2493;-0.9335;0.5517;9.7465;-2.3305;-2.2643;-0.7563;0.7279;-0.1455;0.1129;18.8;-3.58;-3.41;-93.71;80.15;-3.22;5.47;5.0;35.958416;-83.92455;752.29;NaN;0.0;365.1056;;0 / 8;77508;2022-11-01 17:41:37:202
-2.6459;-0.1519;7.3379;-0.9335;0.5517;9.7465;-2.3305;-2.2643;-0.7563;0.7279;-0.1455;0.1129;24.0;-3.58;-3.41;-93.71;80.15;-3.22;5.47;5.0;35.958416;-83.92455;752.29;NaN;0.0;365.1056;;0 / 8;78007;2022-11-01 17:41:37:701
-1.5159;-1.9014;13.4578;-0.9335;0.5517;9.7465;-2.3305;-2.2643;-0.7563;0.7279;-0.1455;0.1129;24.0;-3.58;-3.41;-93.71;80.15;-3.22;5.47;5.0;35.958416;-83.92455;752.29;NaN;0.0;365.1056;;0 / 8;78507;2022-11-01 17:41:38:201
-2.8546;-1.404;13.0364;-0.9335;0.5517;9.7465;-2.3305;-2.2643;-0.7563;0.7279;-0.1455;0.1129;21.7;-3.58;-3.41;-93.71;80.15;-3.22;5.47;5.0;35.958416;-83.92455;752.29;NaN;0.0;365.1056;;0 / 8;79008;2022-11-01 17:41:38:702
-2.6354;-0.0015;8.7999;-0.9335;0.5517;9.7465;-2.3305;-2.2643;-0.7563;0.7279;-0.1455;0.1129;17.0;-3.58;-3.41;-93.71;80.15;-3.22;5.47;5.0;35.958416;-83.92455;752.29;NaN;0.0;365.1056;;0 / 8;79507;2022-11-01 17:41:39:201
-2.4586;-1.596;8.6192;-0.9335;0.5517;9.7465;-2.3305;-2.2643;-0.7563;0.7279;-0.1455;0.1129;16.4;-3.58;-3.41;-93.71;80.15;-3.22;5.47;5.0;35.958416;-83.92455;752.29;NaN;0.0;365.1056;;0 / 8;80007;2022-11-01 17:41:39:701
-1.8607;0.5761;8.3617;-0.9335;0.5517;9.7465;-2.3305;-2.2643;-0.7563;0.7279;-0.1455;0.1129;14.5;-3.58;-3.41;-93.71;80.15;-3.22;5.47;5.0;35.958416;-83.92455;752.29;NaN;0.0;365.1056;;0 / 8;80508;2022-11-01 17:41:40:202
-2.6976;-3.8871;11.418;-0.9335;0.5517;9.7465;-2.3305;-2.2643;-0.7563;0.7279;-0.1455;0.1129;14.5;-3.58;-3.41;-93.71;80.15;-3.22;5.47;5.0;35.958416;-83.92455;752.29;NaN;0.0;365.1056;;0 / 8;81007;2022-11-01 17:41:40:701
-2.2543;-0.7648;9.6598;-0.9335;0.5517;9.7465;-2.3305;-2.2643;-0.7563;0.7279;-0.1455;0.1129;14.5;-3.58;-3.41;-93.71;80.15;-3.22;5.47;5.0;35.958416;-83.92455;752.29;NaN;0.0;365.1056;;0 / 8;81508;2022-11-01 17:41:41:202
-3.291;-0.8907;9.251;-0.9335;0.5517;9.7465;-2.3305;-2.2643;-0.7563;0.7279;-0.1455;0.1129;14.0;-3.58;-3.41;-93.71;80.15;-3.22;5.47;5.0;35.958416;-83.92455;752.29;NaN;0.0;365.1056;;0 / 8;82007;2022-11-01 17:41:41:701
-2.2319;-0.3209;9.2988;-0.9335;0.5517;9.7465;-2.3305;-2.2643;-0.7563;0.7279;-0.1455;0.1129;26.8;-3.58;-3.41;-93.71;80.15;-3.22;5.47;5.0;35.958416;-83.92455;752.29;NaN;0.0;365.1056;;0 / 8;82508;2022-11-01 17:41:42:202
-1.9738;1.1118;7.5544;-0.9335;0.5517;9.7465;-2.3305;-2.2643;-0.7563;0.7279;-0.1455;0.1129;47.6;-3.58;-3.41;-93.71;80.15;-3.22;5.47;5.0;35.958416;-83.92455;752.29;NaN;0.0;365.1056;;0 / 8;83007;2022-11-01 17:41:42:701
-1.0804;-2.8887;9.8904;-0.9335;0.5517;9.7465;-2.3305;-2.2643;-0.7563;0.7279;-0.1455;0.1129;82.3;-3.58;-3.41;-93.71;80.15;-3.22;5.47;5.0;35.958416;-83.92455;752.29;NaN;0.0;365.1056;;0 / 8;83508;2022-11-01 17:41:43:202
-1.145;-0.6799;8.7135;-0.9335;0.5517;9.7465;-2.3305;-2.2643;-0.7563;0.7279;-0.1455;0.1129;95.1;-3.58;-3.41;-93.71;80.15;-3.22;5.47;5.0;35.958416;-83.92455;752.29;NaN;0.0;365.1056;;0 / 8;84007;2022-11-01 17:41:43:701
-0.1077;-4.1548;8.0725;-0.9335;0.5517;9.7465;-2.3305;-2.2643;-0.7563;0.7279;-0.1455;0.1129;120.7;-3.58;-3.41;-93.71;80.15;-3.22;5.47;5.0;35.958416;-83.92455;752.29;NaN;0.0;365.1056;;0 / 8;84508;2022-11-01 17:41:44:202
-1.9334;-2.0608;9.0135;-0.9335;0.5517;9.7465;-2.3305;-2.2643;-0.7563;0.7279;-0.1455;0.1129;109.7;-3.58;-3.41;-93.71;80.15;-3.22;5.47;5.0;35.958416;-83.92455;752.29;NaN;0.0;365.1056;;0 / 8;85007;2022-11-01 17:41:44:701
-1.6394;-0.8022;10.0711;-0.9335;0.5517;9.7465;-2.3305;-2.2643;-0.7563;0.7279;-0.1455;0.1129;124.4;-3.58;-3.41;-93.71;80.15;-3.22;5.47;5.0;35.958416;-83.92455;752.29;NaN;0.0;365.1056;;0 / 8;85508;2022-11-01 17:41:45:202
-1.8784;-1.3633;10.5906;-0.9335;0.5517;9.7465;-2.3305;-2.2643;-0.7563;0.7279;-0.1455;0.1129;124.4;-3.58;-3.41;-93.71;80.15;-3.22;5.47;5.0;35.958416;-83.92455;752.29;NaN;0.0;365.1056;;0 / 8;86007;2022-11-01 17:41:45:701
-1.9594;-0.856;7.9346;-0.9335;0.5517;9.7465;-2.3305;-2.2643;-0.7563;0.7279;-0.1455;0.1129;124.4;-3.58;-3.41;-93.71;80.15;-3.22;5.47;5.0;35.958416;-83.92455;752.29;NaN;0.0;365.1056;;0 / 8;86507;2022-11-01 17:41:46:201
-1.6926;-0.7537;9.5333;-0.9335;0.5517;9.7465;-2.3305;-2.2643;-0.7563;0.7279;-0.1455;0.1129;112.3;-3.58;-3.41;-93.71;80.15;-3.22;5.47;5.0;35.958416;-83.92455;752.29;NaN;0.0;365.1056;;0 / 8;87007;2022-11-01 17:41:46:701
-3.2124;-1.0836;8.8648;-0.9335;0.5517;9.7465;-2.3305;-2.2643;-0.7563;0.7279;-0.1455;0.1129;112.3;-3.58;-3.41;-93.71;80.15;-3.22;5.47;5.0;35.958416;-83.92455;752.29;NaN;0.0;365.1056;;0 / 8;87508;2022-11-01 17:41:47:202
-1.9923;-1.6816;8.8615;-0.9335;0.5517;9.7465;-2.3305;-2.2643;-0.7563;0.7279;-0.1455;0.1129;101.1;-3.58;-3.41;-93.71;80.15;-3.22;5.47;5.0;35.958416;-83.92455;752.29;NaN;0.0;365.1056;;0 / 8;88007;2022-11-01 17:41:47:701
-0.4098;0.3915;9.9676;-0.9335;0.5517;9.7465;-2.3305;-2.2643;-0.7563;0.7279;-0.1455;0.1129;47.3;-3.58;-3.41;-93.71;80.15;-3.22;5.47;5.0;35.958416;-83.92455;752.29;NaN;0.0;365.1056;;0 / 8;88508;2022-11-01 17:41:48:202
-3.1017;-3.5097;11.3955;-0.9335;0.5517;9.7465;-2.3305;-2.2643;-0.7563;0.7279;-0.1455;0.1129;17.3;-3.58;-3.41;-93.71;80.15;-3.22;5.47;5.0;35.958416;-83.92455;752.29;NaN;0.0;365.1056;;0 / 8;89007;2022-11-01 17:41:48:701
-2.7;-2.1658;6.897;-0.9335;0.5517;9.7465;-2.3305;-2.2643;-0.7563;0.7279;-0.1455;0.1129;12.4;-3.58;-3.41;-93.71;80.15;-3.22;5.47;5.0;35.958416;-83.92455;752.29;NaN;0.0;365.1056;;0 / 8;89507;2022-11-01 17:41:49:201
-2.4099;0.2474;7.0828;-0.9335;0.5517;9.7465;-2.3305;-2.2643;-0.7563;0.7279;-0.1455;0.1129;11.0;-3.58;-3.41;-93.71;80.15;-3.22;5.47;5.0;35.958416;-83.92455;752.29;NaN;0.0;365.1056;;0 / 8;90008;2022-11-01 17:41:49:702
-2.3261;-2.2304;9.9748;-0.9335;0.5517;9.7465;-2.3305;-2.2643;-0.7563;0.7279;-0.1455;0.1129;12.4;-3.58;-3.41;-93.71;80.15;-3.22;5.47;5.0;35.958416;-83.92455;752.29;NaN;0.0;365.1056;;0 / 8;90507;2022-11-01 17:41:50:201
-0.8868;-1.4351;11.3946;-0.9335;0.5517;9.7465;-2.3305;-2.2643;-0.7563;0.7279;-0.1455;0.1129;10.2;-3.58;-3.41;-93.71;80.15;-3.22;5.47;5.0;35.958416;-83.92455;752.29;NaN;0.0;365.1056;;0 / 8;91008;2022-11-01 17:41:50:702
-0.7729;-0.8925;9.5809;-0.9335;0.5517;9.7465;-2.3305;-2.2643;-0.7563;0.7279;-0.1455;0.1129;13.5;-3.58;-3.41;-93.71;80.15;-3.22;5.47;5.0;35.958416;-83.92455;752.29;NaN;0.0;365.1056;;0 / 8;91508;2022-11-01 17:41:51:202
-1.1261;-0.341;7.8248;-0.9335;0.5517;9.7465;-2.3305;-2.2643;-0.7563;0.7279;-0.1455;0.1129;13.7;-3.58;-3.41;-93.71;80.15;-3.22;5.47;5.0;35.958416;-83.92455;752.29;NaN;0.0;365.1056;;0 / 8;92007;2022-11-01 17:41:51:701
-0.874;1.4952;12.108;-0.9335;0.5517;9.7465;-2.3305;-2.2643;-0.7563;0.7279;-0.1455;0.1129;14.5;-3.58;-3.41;-93.71;80.15;-3.22;5.47;5.0;35.958416;-83.92455;752.29;NaN;0.0;365.1056;;0 / 8;92507;2022-11-01 17:41:52:201
-1.416;-0.0398;14.0994;-0.9335;0.5517;9.7465;-2.3305;-2.2643;-0.7563;0.7279;-0.1455;0.1129;14.5;-3.58;-3.41;-93.71;80.15;-3.22;5.47;5.0;35.958416;-83.92455;752.29;NaN;0.0;365.1056;;0 / 8;93008;2022-11-01 17:41:52:702
-1.0017;-0.7759;8.1509;-0.9335;0.5517;9.7465;-2.3305;-2.2643;-0.7563;0.7279;-0.1455;0.1129;25.2;-3.58;-3.41;-93.71;80.15;-3.22;5.47;5.0;35.958416;-83.92455;752.29;NaN;0.0;365.1056;;0 / 8;93508;2022-11-01 17:41:53:202
-2.3094;0.169;6.1472;-0.9335;0.5517;9.7465;-2.3305;-2.2643;-0.7563;0.7279;-0.1455;0.1129;39.4;-3.58;-3.41;-93.71;80.15;-3.22;5.47;5.0;35.958416;-83.92455;752.29;NaN;0.0;365.1056;;0 / 8;94007;2022-11-01 17:41:53:701
-4.2604;-3.1451;8.3812;-0.9335;0.5517;9.7465;-2.3305;-2.2643;-0.7563;0.7279;-0.1455;0.1129;68.3;-3.58;-3.41;-93.71;80.15;-3.22;5.47;5.0;35.958416;-83.92455;752.29;NaN;0.0;365.1056;;0 / 8;94507;2022-11-01 17:41:54:201
-2.9901;0.1053;8.9294;-0.9335;0.5517;9.7465;-2.3305;-2.2643;-0.7563;0.7279;-0.1455;0.1129;68.3;-3.58;-3.41;-93.71;80.15;-3.22;5.47;5.0;35.958416;-83.92455;752.29;NaN;0.0;365.1056;;0 / 8;95007;2022-11-01 17:41:54:701
-1.526;-3.0314;8.7242;-0.9335;0.5517;9.7465;-2.3305;-2.2643;-0.7563;0.7279;-0.1455;0.1129;49.4;-3.58;-3.41;-93.71;80.15;-3.22;5.47;5.0;35.958416;-83.92455;752.29;NaN;0.0;365.1056;;0 / 8;95508;2022-11-01 17:41:55:202
-2.3734;-1.3834;9.3168;-0.9335;0.5517;9.7465;-2.3305;-2.2643;-0.7563;0.7279;-0.1455;0.1129;40.0;-3.58;-3.41;-93.71;80.15;-3.22;5.47;5.0;35.958416;-83.92455;752.29;NaN;0.0;365.1056;;0 / 8;96007;2022-11-01 17:41:55:701
-1.6415;-0.6885;9.4573;-0.9335;0.5517;9.7465;-2.3305;-2.2643;-0.7563;0.7279;-0.1455;0.1129;56.4;-3.58;-3.41;-93.71;80.15;-3.22;5.47;5.0;35.958416;-83.92455;752.29;NaN;0.0;365.1056;;0 / 8;96508;2022-11-01 17:41:56:202
1.0131;-2.0354;10.4641;-0.9335;0.5517;9.7465;-2.3305;-2.2643;-0.7563;0.7279;-0.1455;0.1129;64.1;-3.58;-3.41;-93.71;80.15;-3.22;5.47;5.0;35.958416;-83.92455;752.29;NaN;0.0;365.1056;;0 / 8;97008;2022-11-01 17:41:56:702
-2.1954;-0.6613;9.8402;-0.9335;0.5517;9.7465;-2.3305;-2.2643;-0.7563;0.7279;-0.1455;0.1129;18.4;-3.58;-3.41;-93.71;80.15;-3.22;5.47;5.0;35.958416;-83.92455;752.29;NaN;0.0;365.1056;;0 / 8;97508;2022-11-01 17:41:57:202
-3.5596;-0.0248;7.3298;-0.9335;0.5517;9.7465;-2.3305;-2.2643;-0.7563;0.7279;-0.1455;0.1129;10.1;-3.58;-3.41;-93.71;80.15;-3.22;5.47;5.0;35.958416;-83.92455;752.29;NaN;0.0;365.1056;;0 / 8;98008;2022-11-01 17:41:57:702
-2.7571;-0.7101;6.7092;-0.9335;0.5517;9.7465;-2.3305;-2.2643;-0.7563;0.7279;-0.1455;0.1129;13.5;-3.58;-3.41;-93.71;80.15;-3.22;5.47;5.0;35.958416;-83.92455;752.29;NaN;0.0;365.1056;;0 / 8;98507;2022-11-01 17:41:58:201
-2.5487;-0.4098;10.2969;-0.9335;0.5517;9.7465;-2.3305;-2.2643;-0.7563;0.7279;-0.1455;0.1129;10.9;-3.58;-3.41;-93.71;80.15;-3.22;5.47;5.0;35.958416;-83.92455;752.29;NaN;0.0;365.1056;;0 / 8;99007;2022-11-01 17:41:58:701
-4.3774;-2.2214;10.0199;-0.9335;0.5517;9.7465;-2.3305;-2.2643;-0.7563;0.7279;-0.1455;0.1129;13.1;-3.58;-3.41;-93.71;80.15;-3.22;5.47;5.0;35.958416;-83.92455;752.29;NaN;0.0;365.1056;;0 / 8;99507;2022-11-01 17:41:59:201
-2.8155;-0.4196;10.1746;-0.9335;0.5517;9.7465;-2.3305;-2.2643;-0.7563;0.7279;-0.1455;0.1129;13.1;-3.58;-3.41;-93.71;80.15;-3.22;5.47;5.0;35.958416;-83.92455;752.29;NaN;0.0;365.1056;;0 / 8;100008;2022-11-01 17:41:59:702
-2.4745;-0.306;9.1211;-0.9335;0.5517;9.7465;-2.3305;-2.2643;-0.7563;0.7279;-0.1455;0.1129;18.7;-3.58;-3.41;-93.71;80.15;-3.22;5.47;5.0;35.958416;-83.92455;752.29;NaN;0.0;365.1056;;0 / 8;100507;2022-11-01 17:42:00:201
-3.5686;-2.8582;10.6699;-0.9335;0.5517;9.7465;-2.3305;-2.2643;-0.7563;0.7279;-0.1455;0.1129;13.1;-3.58;-3.41;-93.71;80.15;-3.22;5.47;5.0;35.958416;-83.92455;752.29;NaN;0.0;365.1056;;0 / 8;101008;2022-11-01 17:42:00:702
-3.8584;-3.2662;7.855;-0.9335;0.5517;9.7465;-2.3305;-2.2643;-0.7563;0.7279;-0.1455;0.1129;12.6;-3.58;-3.41;-93.71;80.15;-3.22;5.47;5.0;35.958416;-83.92455;752.29;NaN;0.0;365.1056;;0 / 8;101507;2022-11-01 17:42:01:201
-0.8231;-1.255;10.1276;-0.9335;0.5517;9.7465;-2.3305;-2.2643;-0.7563;0.7279;-0.1455;0.1129;12.6;-3.58;-3.41;-93.71;80.15;-3.22;5.47;5.0;35.958416;-83.92455;752.29;NaN;0.0;365.1056;;0 / 8;102007;2022-11-01 17:42:01:701
-1.7088;-2.8059;11.2349;-0.9335;0.5517;9.7465;-2.3305;-2.2643;-0.7563;0.7279;-0.1455;0.1129;12.6;-3.58;-3.41;-93.71;80.15;-3.22;5.47;5.0;35.958416;-83.92455;752.29;NaN;0.0;365.1056;;0 / 8;102508;2022-11-01 17:42:02:202
-2.6426;-1.9621;12.0906;-0.9335;0.5517;9.7465;-2.3305;-2.2643;-0.7563;0.7279;-0.1455;0.1129;14.3;-3.58;-3.41;-93.71;80.15;-3.22;5.47;5.0;35.958416;-83.92455;752.29;NaN;0.0;365.1056;;0 / 8;103008;2022-11-01 17:42:02:702
-0.5163;-0.6694;8.7993;-0.9335;0.5517;9.7465;-2.3305;-2.2643;-0.7563;0.7279;-0.1455;0.1129;11.7;-3.58;-3.41;-93.71;80.15;-3.22;5.47;5.0;35.958416;-83.92455;752.29;NaN;0.0;365.1056;;0 / 8;103507;2022-11-01 17:42:03:201
-1.5212;-1.0914;7.4767;-0.9335;0.5517;9.7465;-2.3305;-2.2643;-0.7563;0.7279;-0.1455;0.1129;18.9;-3.58;-3.41;-93.71;80.15;-3.22;5.47;5.0;35.958416;-83.92455;752.29;NaN;0.0;365.1056;;0 / 8;104007;2022-11-01 17:42:03:701
-3.5169;-0.1585;10.3056;-0.9335;0.5517;9.7465;-2.3305;-2.2643;-0.7563;0.7279;-0.1455;0.1129;12.0;-3.58;-3.41;-93.71;80.15;-3.22;5.47;5.0;35.958416;-83.92455;752.29;NaN;0.0;365.1056;;0 / 8;104507;2022-11-01 17:42:04:201
-2.7757;-3.2339;10.7294;-0.9335;0.5517;9.7465;-2.3305;-2.2643;-0.7563;0.7279;-0.1455;0.1129;13.6;-3.58;-3.41;-93.71;80.15;-3.22;5.47;5.0;35.958416;-83.92455;752.29;NaN;0.0;365.1056;;0 / 8;105008;2022-11-01 17:42:04:702
-4.4731;-2.1476;9.6673;-0.9335;0.5517;9.7465;-2.3305;-2.2643;-0.7563;0.7279;-0.1455;0.1129;26.9;-3.58;-3.41;-93.71;80.15;-3.22;5.47;5.0;35.958416;-83.92455;752.29;NaN;0.0;365.1056;;0 / 8;105507;2022-11-01 17:42:05:201
-4.1327;-0.5264;10.7157;-0.9335;0.5517;9.7465;-2.3305;-2.2643;-0.7563;0.7279;-0.1455;0.1129;39.0;-3.58;-3.41;-93.71;80.15;-3.22;5.47;5.0;35.958416;-83.92455;752.29;NaN;0.0;365.1056;;0 / 8;106008;2022-11-01 17:42:05:702
-3.7086;-2.3405;8.1724;-0.9335;0.5517;9.7465;-2.3305;-2.2643;-0.7563;0.7279;-0.1455;0.1129;45.0;-3.58;-3.41;-93.71;80.15;-3.22;5.47;5.0;35.958416;-83.92455;752.29;NaN;0.0;365.1056;;0 / 8;106508;2022-11-01 17:42:06:202
-1.9014;-0.4795;8.3928;-0.9335;0.5517;9.7465;-2.3305;-2.2643;-0.7563;0.7279;-0.1455;0.1129;39.7;-3.58;-3.41;-93.71;80.15;-3.22;5.47;5.0;35.958416;-83.92455;752.29;NaN;0.0;365.1056;;0 / 8;107007;2022-11-01 17:42:06:701
-0.2312;-2.7658;9.2862;-0.9335;0.5517;9.7465;-2.3305;-2.2643;-0.7563;0.7279;-0.1455;0.1129;33.2;-3.58;-3.41;-93.71;80.15;-3.22;5.47;5.0;35.958416;-83.92455;752.29;NaN;0.0;365.1056;;0 / 8;107507;2022-11-01 17:42:07:201
-1.4752;-0.9643;10.2287;-0.9335;0.5517;9.7465;-2.3305;-2.2643;-0.7563;0.7279;-0.1455;0.1129;43.8;-3.58;-3.41;-93.71;80.15;-3.22;5.47;5.0;35.958416;-83.92455;752.29;NaN;0.0;365.1056;;0 / 8;108008;2022-11-01 17:42:07:702
-2.3988;-0.5163;9.2154;-0.9335;0.5517;9.7465;-2.3305;-2.2643;-0.7563;0.7279;-0.1455;0.1129;43.8;-3.58;-3.41;-93.71;80.15;-3.22;5.47;5.0;35.958416;-83.92455;752.29;NaN;0.0;365.1056;;0 / 8;108507;2022-11-01 17:42:08:201
-1.5147;-1.8526;10.8712;-0.9335;0.5517;9.7465;-2.3305;-2.2643;-0.7563;0.7279;-0.1455;0.1129;25.1;-3.58;-3.41;-93.71;80.15;-3.22;5.47;5.0;35.958416;-83.92455;752.29;NaN;0.0;365.1056;;0 / 8;109007;2022-11-01 17:42:08:701
-1.404;-0.7445;11.3025;-0.9335;0.5517;9.7465;-2.3305;-2.2643;-0.7563;0.7279;-0.1455;0.1129;12.6;-3.58;-3.41;-93.71;80.15;-3.22;5.47;5.0;35.958416;-83.92455;752.29;NaN;0.0;365.1056;;0 / 8;109507;2022-11-01 17:42:09:201
-0.6999;-1.2344;8.6246;-0.9335;0.5517;9.7465;-2.3305;-2.2643;-0.7563;0.7279;-0.1455;0.1129;12.6;-3.58;-3.41;-93.71;80.15;-3.22;5.47;5.0;35.958416;-83.92455;752.29;NaN;0.0;365.1056;;0 / 8;110008;2022-11-01 17:42:09:702
-1.3594;-1.7656;11.0384;-0.9335;0.5517;9.7465;-2.3305;-2.2643;-0.7563;0.7279;-0.1455;0.1129;12.6;-3.58;-3.41;-93.71;80.15;-3.22;5.47;5.0;35.958416;-83.92455;752.29;NaN;0.0;365.1056;;0 / 8;110508;2022-11-01 17:42:10:202
-1.0256;-1.372;8.0375;-0.9335;0.5517;9.7465;-2.3305;-2.2643;-0.7563;0.7279;-0.1455;0.1129;11.1;-3.58;-3.41;-93.71;80.15;-3.22;5.47;5.0;35.958416;-83.92455;752.29;NaN;0.0;365.1056;;0 / 8;111008;2022-11-01 17:42:10:702
-0.8955;0.1609;8.0847;-0.9335;0.5517;9.7465;-2.3305;-2.2643;-0.7563;0.7279;-0.1455;0.1129;11.1;-3.58;-3.41;-93.71;80.15;-3.22;5.47;5.0;35.958416;-83.92455;752.29;NaN;0.0;365.1056;;0 / 8;111507;2022-11-01 17:42:11:201
-2.3566;-1.2048;9.055;-0.9335;0.5517;9.7465;-2.3305;-2.2643;-0.7563;0.7279;-0.1455;0.1129;11.1;-3.58;-3.41;-93.71;80.15;-3.22;5.47;5.0;35.958416;-83.92455;752.29;NaN;0.0;365.1056;;0 / 8;112008;2022-11-01 17:42:11:702
-2.1676;-0.3353;8.1419;-0.9335;0.5517;9.7465;-2.3305;-2.2643;-0.7563;0.7279;-0.1455;0.1129;11.1;-3.58;-3.41;-93.71;80.15;-3.22;5.47;5.0;35.958416;-83.92455;752.29;NaN;0.0;365.1056;;0 / 8;112508;2022-11-01 17:42:12:202
-0.1062;-2.4009;14.0605;-0.9335;0.5517;9.7465;-2.3305;-2.2643;-0.7563;0.7279;-0.1455;0.1129;12.4;-3.58;-3.41;-93.71;80.15;-3.22;5.47;5.0;35.958416;-83.92455;752.29;NaN;0.0;365.1056;;0 / 8;113007;2022-11-01 17:42:12:701
-0.4765;-0.2997;8.2143;-0.9335;0.5517;9.7465;-2.3305;-2.2643;-0.7563;0.7279;-0.1455;0.1129;20.1;-3.58;-3.41;-93.71;80.15;-3.22;5.47;5.0;35.958416;-83.92455;752.29;NaN;0.0;365.1056;;0 / 8;113507;2022-11-01 17:42:13:201
0.3697;0.2934;7.7874;-0.9335;0.5517;9.7465;-2.3305;-2.2643;-0.7563;0.7279;-0.1455;0.1129;36.6;-3.58;-3.41;-93.71;80.15;-3.22;5.47;5.0;35.958416;-83.92455;752.29;NaN;0.0;365.1056;;0 / 8;114007;2022-11-01 17:42:13:701
-1.4593;-0.827;7.5428;-0.9335;0.5517;9.7465;-2.3305;-2.2643;-0.7563;0.7279;-0.1455;0.1129;41.1;-3.58;-3.41;-93.71;80.15;-3.22;5.47;5.0;35.958416;-83.92455;752.29;NaN;0.0;365.1056;;0 / 8;114507;2022-11-01 17:42:14:201
-1.1094;-0.5139;4.9711;-0.9335;0.5517;9.7465;-2.3305;-2.2643;-0.7563;0.7279;-0.1455;0.1129;62.6;-3.58;-3.41;-93.71;80.15;-3.22;5.47;5.0;35.958416;-83.92455;752.29;NaN;0.0;365.1056;;0 / 8;115007;2022-11-01 17:42:14:701
0.3628;-1.9825;7.5299;-0.9335;0.5517;9.7465;-2.3305;-2.2643;-0.7563;0.7279;-0.1455;0.1129;65.2;-3.58;-3.41;-93.71;80.15;-3.22;5.47;5.0;35.958416;-83.92455;752.29;NaN;0.0;365.1056;;0 / 8;115507;2022-11-01 17:42:15:201
1.5697;-0.76;8.1649;-0.9335;0.5517;9.7465;-2.3305;-2.2643;-0.7563;0.7279;-0.1455;0.1129;38.9;-3.58;-3.41;-93.71;80.15;-3.22;5.47;5.0;35.958416;-83.92455;752.29;NaN;0.0;365.1056;;0 / 8;116007;2022-11-01 17:42:15:701
0.6162;0.5557;10.5598;-0.9335;0.5517;9.7465;-2.3305;-2.2643;-0.7563;0.7279;-0.1455;0.1129;43.9;-3.58;-3.41;-93.71;80.15;-3.22;5.47;5.0;35.958416;-83.92455;752.29;NaN;0.0;365.1056;;0 / 8;116507;2022-11-01 17:42:16:201
0.6135;-0.9437;10.4243;-0.9335;0.5517;9.7465;-2.3305;-2.2643;-0.7563;0.7279;-0.1455;0.1129;73.9;-3.58;-3.41;-93.71;80.15;-3.22;5.47;5.0;35.958416;-83.92455;752.29;NaN;0.0;365.1056;;0 / 8;117007;2022-11-01 17:42:16:701
2.5038;-0.1433;8.9946;-0.9335;0.5517;9.7465;-2.3305;-2.2643;-0.7563;0.7279;-0.1455;0.1129;34.6;-3.58;-3.41;-93.71;80.15;-3.22;5.47;5.0;35.958416;-83.92455;752.29;NaN;0.0;365.1056;;0 / 8;117507;2022-11-01 17:42:17:201
3.9449;-2.8956;12.9745;-0.9335;0.5517;9.7465;-2.3305;-2.2643;-0.7563;0.7279;-0.1455;0.1129;12.2;-3.58;-3.41;-93.71;80.15;-3.22;5.47;5.0;35.958416;-83.92455;752.29;NaN;0.0;365.1056;;0 / 8;118007;2022-11-01 17:42:17:701
0.0293;-1.7234;9.2593;-0.9335;0.5517;9.7465;-2.3305;-2.2643;-0.7563;0.7279;-0.1455;0.1129;12.2;-3.58;-3.41;-93.71;80.15;-3.22;5.47;5.0;35.958416;-83.92455;752.29;NaN;0.0;365.1056;;0 / 8;118507;2022-11-01 17:42:18:201
-0.087;-1.3071;10.9295;-0.9335;0.5517;9.7465;-2.3305;-2.2643;-0.7563;0.7279;-0.1455;0.1129;9.6;-3.58;-3.41;-93.71;80.15;-3.22;5.47;5.0;35.958416;-83.92455;752.29;NaN;0.0;365.1056;;0 / 8;119007;2022-11-01 17:42:18:701
3.4687;-1.1665;11.5831;-0.9335;0.5517;9.7465;-2.3305;-2.2643;-0.7563;0.7279;-0.1455;0.1129;11.7;-3.58;-3.41;-93.71;80.15;-3.22;5.47;5.0;35.958416;-83.92455;752.29;NaN;0.0;365.1056;;0 / 8;119507;2022-11-01 17:42:19:201
1.7261;0.8871;8.2899;-0.9335;0.5517;9.7465;-2.3305;-2.2643;-0.7563;0.7279;-0.1455;0.1129;10.9;-3.58;-3.41;-93.71;80.15;-3.22;5.47;5.0;35.958416;-83.92455;752.29;NaN;0.0;365.1056;;0 / 8;120007;2022-11-01 17:42:19:701
-0.5411;2.2528;9.6649;-0.9335;0.5517;9.7465;-2.3305;-2.2643;-0.7563;0.7279;-0.1455;0.1129;12.2;-3.58;-3.41;-93.71;80.15;-3.22;5.47;5.0;35.958416;-83.92455;752.29;NaN;0.0;365.1056;;0 / 8;120508;2022-11-01 17:42:20:202
0.7259;1.5571;6.6302;-0.9335;0.5517;9.7465;-2.3305;-2.2643;-0.7563;0.7279;-0.1455;0.1129;9.6;-3.58;-3.41;-93.71;80.15;-3.22;5.47;5.0;35.958416;-83.92455;752.29;NaN;0.0;365.1056;;0 / 8;121008;2022-11-01 17:42:20:702
0.3951;3.0197;6.0221;-0.9335;0.5517;9.7465;-2.3305;-2.2643;-0.7563;0.7279;-0.1455;0.1129;10.1;-3.58;-3.41;-93.71;80.15;-3.22;5.47;5.0;35.958416;-83.92455;752.29;NaN;0.0;365.1056;;0 / 8;121508;2022-11-01 17:42:21:202
0.8919;1.4177;11.7757;-0.9335;0.5517;9.7465;-2.3305;-2.2643;-0.7563;0.7279;-0.1455;0.1129;12.3;-3.58;-3.41;-93.71;80.15;-3.22;5.47;5.0;35.958416;-83.92455;752.29;NaN;0.0;365.1056;;0 / 8;122007;2022-11-01 17:42:21:701
0.7699;3.3311;12.0658;-0.9335;0.5517;9.7465;-2.3305;-2.2643;-0.7563;0.7279;-0.1455;0.1129;12.3;-3.58;-3.41;-93.71;80.15;-3.22;5.47;5.0;35.958416;-83.92455;752.29;NaN;0.0;365.1056;;0 / 8;122507;2022-11-01 17:42:22:201
0.0664;3.6251;11.0387;-0.9335;0.5517;9.7465;-2.3305;-2.2643;-0.7563;0.7279;-0.1455;0.1129;12.5;-3.58;-3.41;-93.71;80.15;-3.22;5.47;5.0;35.958416;-83.92455;752.29;NaN;0.0;365.1056;;0 / 8;123008;2022-11-01 17:42:22:702
-1.3669;0.5076;12.6999;-0.9335;0.5517;9.7465;-2.3305;-2.2643;-0.7563;0.7279;-0.1455;0.1129;25.6;-3.58;-3.41;-93.71;80.15;-3.22;5.47;5.0;35.958416;-83.92455;752.29;NaN;0.0;365.1056;;0 / 8;123508;2022-11-01 17:42:23:202
-0.7627;1.375;8.2744;-0.9335;0.5517;9.7465;-2.3305;-2.2643;-0.7563;0.7279;-0.1455;0.1129;33.2;-3.58;-3.41;-93.71;80.15;-3.22;5.47;5.0;35.958416;-83.92455;752.29;NaN;0.0;365.1056;;0 / 8;124008;2022-11-01 17:42:23:702
0.9879;-0.2806;11.0856;-0.9335;0.5517;9.7465;-2.3305;-2.2643;-0.7563;0.7279;-0.1455;0.1129;45.1;-3.58;-3.41;-93.71;80.15;-3.22;5.47;5.0;35.958416;-83.92455;752.29;NaN;0.0;365.1056;;0 / 8;124507;2022-11-01 17:42:24:201
0.5019;-0.7265;8.103;-0.9335;0.5517;9.7465;-2.3305;-2.2643;-0.7563;0.7279;-0.1455;0.1129;45.1;-3.58;-3.41;-93.71;80.15;-3.22;5.47;5.0;35.958416;-83.92455;752.29;NaN;0.0;365.1056;;0 / 8;125007;2022-11-01 17:42:24:701
-0.262;-1.2461;6.0948;-0.9335;0.5517;9.7465;-2.3305;-2.2643;-0.7563;0.7279;-0.1455;0.1129;27.7;-3.58;-3.41;-93.71;80.15;-3.22;5.47;5.0;35.958416;-83.92455;752.29;NaN;0.0;365.1056;;0 / 8;125508;2022-11-01 17:42:25:202
-1.7381;0.7349;10.3546;-0.9335;0.5517;9.7465;-2.3305;-2.2643;-0.7563;0.7279;-0.1455;0.1129;32.6;-3.58;-3.41;-93.71;80.15;-3.22;5.47;5.0;35.958416;-83.92455;752.29;NaN;0.0;365.1056;;0 / 8;126007;2022-11-01 17:42:25:701
-0.5515;-1.8242;7.8966;-0.9335;0.5517;9.7465;-2.3305;-2.2643;-0.7563;0.7279;-0.1455;0.1129;38.8;-3.58;-3.41;-93.71;80.15;-3.22;5.47;5.0;35.958416;-83.92455;752.29;NaN;0.0;365.1056;;0 / 8;126507;2022-11-01 17:42:26:201
-1.4312;-1.1548;8.8065;-0.9335;0.5517;9.7465;-2.3305;-2.2643;-0.7563;0.7279;-0.1455;0.1129;14.5;-3.58;-3.41;-93.71;80.15;-3.22;5.47;5.0;35.958416;-83.92455;752.29;NaN;0.0;365.1056;;0 / 8;127007;2022-11-01 17:42:26:701
0.3437;-0.3568;8.3578;-0.9335;0.5517;9.7465;-2.3305;-2.2643;-0.7563;0.7279;-0.1455;0.1129;13.0;-3.58;-3.41;-93.71;80.15;-3.22;5.47;5.0;35.958416;-83.92455;752.29;NaN;0.0;365.1056;;0 / 8;127507;2022-11-01 17:42:27:201
-0.6257;-0.7777;8.1051;-0.9335;0.5517;9.7465;-2.3305;-2.2643;-0.7563;0.7279;-0.1455;0.1129;14.5;-3.58;-3.41;-93.71;80.15;-3.22;5.47;5.0;35.958416;-83.92455;752.29;NaN;0.0;365.1056;;0 / 8;128007;2022-11-01 17:42:27:701
-2.5941;-0.3625;5.9701;-0.9335;0.5517;9.7465;-2.3305;-2.2643;-0.7563;0.7279;-0.1455;0.1129;14.5;-3.58;-3.41;-93.71;80.15;-3.22;5.47;5.0;35.958416;-83.92455;752.29;NaN;0.0;365.1056;;0 / 8;128507;2022-11-01 17:42:28:201
-1.2568;-0.0637;6.7792;-0.9335;0.5517;9.7465;-2.3305;-2.2643;-0.7563;0.7279;-0.1455;0.1129;13.1;-3.58;-3.41;-93.71;80.15;-3.22;5.47;5.0;35.958416;-83.92455;752.29;NaN;0.0;365.1056;;0 / 8;129007;2022-11-01 17:42:28:701
3.0069;1.4952;15.5722;-0.9335;0.5517;9.7465;-2.3305;-2.2643;-0.7563;0.7279;-0.1455;0.1129;11.7;-3.58;-3.41;-93.71;80.15;-3.22;5.47;5.0;35.958416;-83.92455;752.29;NaN;0.0;365.1056;;0 / 8;129507;2022-11-01 17:42:29:201
-1.6167;1.8227;14.5834;-0.9335;0.5517;9.7465;-2.3305;-2.2643;-0.7563;0.7279;-0.1455;0.1129;13.1;-3.58;-3.41;-93.71;80.15;-3.22;5.47;5.0;35.958416;-83.92455;752.29;NaN;0.0;365.1056;;0 / 8;130007;2022-11-01 17:42:29:701
-2.1709;-0.4196;8.3468;-0.9335;0.5517;9.7465;-2.3305;-2.2643;-0.7563;0.7279;-0.1455;0.1129;14.8;-3.58;-3.41;-93.71;80.15;-3.22;5.47;5.0;35.958416;-83.92455;752.29;NaN;0.0;365.1056;;0 / 8;130507;2022-11-01 17:42:30:201
-1.0744;1.3427;6.2423;-0.9335;0.5517;9.7465;-2.3305;-2.2643;-0.7563;0.7279;-0.1455;0.1129;16.0;-3.58;-3.41;-93.71;80.15;-3.22;5.47;5.0;35.958416;-83.92455;752.29;NaN;0.0;365.1056;;0 / 8;131007;2022-11-01 17:42:30:701
-2.2355;0.5572;11.3082;-0.9335;0.5517;9.7465;-2.3305;-2.2643;-0.7563;0.7279;-0.1455;0.1129;20.3;-3.58;-3.41;-93.71;80.15;-3.22;5.47;5.0;35.958416;-83.92455;752.29;NaN;0.0;365.1056;;0 / 8;131508;2022-11-01 17:42:31:202
-2.0967;1.7877;12.4645;-0.9335;0.5517;9.7465;-2.3305;-2.2643;-0.7563;0.7279;-0.1455;0.1129;16.2;-3.58;-3.41;-93.71;80.15;-3.22;5.47;5.0;35.958416;-83.92455;752.29;NaN;0.0;365.1056;;0 / 8;132007;2022-11-01 17:42:31:701
-1.8215;2.7407;12.4959;-0.9335;0.5517;9.7465;-2.3305;-2.2643;-0.7563;0.7279;-0.1455;0.1129;22.5;-3.58;-3.41;-93.71;80.15;-3.22;5.47;5.0;35.958416;-83.92455;752.29;NaN;0.0;365.1056;;0 / 8;132508;2022-11-01 17:42:32:202
-0.6532;2.5947;11.732;-0.9335;0.5517;9.7465;-2.3305;-2.2643;-0.7563;0.7279;-0.1455;0.1129;32.0;-3.58;-3.41;-93.71;80.15;-3.22;5.47;5.0;35.958416;-83.92455;752.29;NaN;0.0;365.1056;;0 / 8;133007;2022-11-01 17:42:32:701
-0.9332;3.5668;9.7834;-0.9335;0.5517;9.7465;-2.3305;-2.2643;-0.7563;0.7279;-0.1455;0.1129;41.6;-3.58;-3.41;-93.71;80.15;-3.22;5.47;5.0;35.958416;-83.92455;752.29;NaN;0.0;365.1056;;0 / 8;133507;2022-11-01 17:42:33:201
-1.733;3.186;8.8567;-0.9335;0.5517;9.7465;-2.3305;-2.2643;-0.7563;0.7279;-0.1455;0.1129;52.2;-3.58;-3.41;-93.71;80.15;-3.22;5.47;5.0;35.958416;-83.92455;752.29;NaN;0.0;365.1056;;0 / 8;134008;2022-11-01 17:42:33:702
0.4217;4.5386;9.338;-0.9335;0.5517;9.7465;-2.3305;-2.2643;-0.7563;0.7279;-0.1455;0.1129;62.3;-3.58;-3.41;-93.71;80.15;-3.22;5.47;5.0;35.958416;-83.92455;752.29;NaN;0.0;365.1056;;0 / 8;134508;2022-11-01 17:42:34:202
-2.3411;3.454;8.9261;-0.9335;0.5517;9.7465;-2.3305;-2.2643;-0.7563;0.7279;-0.1455;0.1129;62.3;-3.58;-3.41;-93.71;80.15;-3.22;5.47;5.0;35.958416;-83.92455;752.29;NaN;0.0;365.1056;;0 / 8;135008;2022-11-01 17:42:34:702
-1.3044;5.1538;8.6629;-0.78;5.2231;8.2632;-0.4334;0.3508;0.0315;-0.4836;-0.6809;-0.658;70.2;-5.19;19.2;-91.41;11.92;-32.18;5.39;2.0;35.958416;-83.92455;752.29;NaN;0.0;365.1056;;0 / 8;135508;2022-11-01 17:42:35:202
-4.9146;6.4851;6.2542;-4.1164;5.9713;6.6007;-0.5607;-0.1322;0.0021;0.4782;0.9956;0.1548;70.2;-5.72;19.09;-91.56;41.55;-37.51;31.95;2.0;35.958416;-83.92455;752.29;NaN;0.0;365.1056;;0 / 8;136008;2022-11-01 17:42:35:702