sep=;
ACCELEROMETER X (m/s²);ACCELEROMETER Y (m/s²);ACCELEROMETER Z (m/s²);GRAVITY X (m/s²);GRAVITY Y (m/s²);GRAVITY Z (m/s²);LINEAR ACCELERATION X (m/s²);LINEAR ACCELERATION Y (m/s²);LINEAR ACCELERATION Z (m/s²);GYROSCOPE X (rad/s);GYROSCOPE Y (rad/s);GYROSCOPE Z (rad/s);LIGHT (lux);MAGNETIC FIELD X (μT);MAGNETIC FIELD Y (μT);MAGNETIC FIELD Z (μT);ORIENTATION Z (azimuth °);ORIENTATION X (pitch °);ORIENTATION Y (roll °);PROXIMITY (i);LOCATION Latitude : ;LOCATION Longitude : ;LOCATION Altitude ( m);LOCATION Altitude-google ( m);LOCATION Speed ( Kmh);LOCATION Accuracy ( m);LOCATION ORIENTATION (°);Satellites in range;Time since start in ms ;YYYY-MO-DD HH-MI-SS_SSS
0.5363;1.296;8.2367;-0.7343;2.0995;9.5511;1.0422;-0.9292;-1.1049;-0.3687;-0.5463;0.2676;169.0;-11.49;-60.49;-33.94;163.08;-14.98;7.05;5.0;35.95847;-83.92461;798.44;NaN;0.0;193.92212;;1 / 5;5;2022-11-11 14:46:49:433
-0.9766;0.9631;8.458;-1.2566;1.0793;9.6657;0.7838;-0.2615;-1.7255;0.2991;0.2204;0.1074;122.9;-20.72;-54.3;-30.34;154.03;-6.32;7.41;5.0;35.95847;-83.92461;798.44;NaN;0.0;193.92212;;1 / 5;504;2022-11-11 14:46:49:932
-1.515;1.4249;7.9807;-1.2268;1.5519;9.6051;-0.9407;-0.17;-1.1476;0.8742;-0.4907;-0.2785;104.9;-13.22;-54.41;-28.18;161.36;-6.03;8.98;5.0;35.95847;-83.92461;798.44;NaN;0.0;193.92212;;1 / 5;1005;2022-11-11 14:46:50:433
-0.0476;2.811;8.0569;-0.6184;2.9989;9.3164;0.7306;-0.0462;-1.3375;-0.0658;0.2095;-0.017;104.9;-14.31;-65.46;-18.86;165.03;-16.87;3.81;5.0;35.95847;-83.92461;798.44;NaN;0.0;193.92212;;1 / 5;1504;2022-11-11 14:46:50:932
-0.4687;3.0951;8.3288;0.0989;2.8802;9.3736;-0.8226;0.2781;-0.7183;-0.3131;0.0596;-0.28;72.0;-15.67;-65.29;-14.1;164.78;-16.75;-0.71;5.0;35.95847;-83.92461;798.44;NaN;0.0;193.92212;;1 / 5;2004;2022-11-11 14:46:51:432
-0.3012;3.486;9.1047;-0.2217;2.8286;9.3872;-0.1191;0.2994;1.828;-0.0437;0.3247;0.0948;40.1;-23.31;-44.06;-22.93;146.57;-16.76;1.35;5.0;35.95847;-83.92461;798.44;NaN;0.0;193.92212;;1 / 5;2504;2022-11-11 14:46:51:932
-0.0129;4.0837;9.8231;0.2579;4.1282;8.8917;-1.3984;0.5569;1.7964;-0.2143;-0.2617;0.2819;34.6;-20.87;-42.19;-22.8;142.19;-27.08;-0.4;5.0;35.95847;-83.92461;798.44;NaN;0.0;193.92212;;1 / 5;3005;2022-11-11 14:46:52:433
-0.7848;3.0562;11.7739;-0.6188;2.0677;9.5662;-0.8627;1.9667;1.054;-0.605;0.5808;0.2879;25.6;-20.03;-32.78;-24.09;141.95;-12.17;3.7;5.0;35.95847;-83.92461;798.44;NaN;0.0;193.92212;;1 / 5;3505;2022-11-11 14:46:52:933
-1.142;2.8585;12.798;-0.0677;3.4135;9.1932;-0.9832;-0.8467;4.0526;0.5538;-0.1562;0.2795;18.2;-20.59;-23.72;-24.3;124.81;-18.72;2.59;5.0;35.95847;-83.92461;798.44;NaN;0.0;193.92212;;1 / 5;4004;2022-11-11 14:46:53:432
0.0147;1.1234;11.6809;-1.1983;1.7861;9.5679;0.4093;1.6946;0.8239;-1.516;0.3638;-0.4844;20.4;-25.65;-26.31;-23.21;127.51;-10.49;7.14;5.0;35.95847;-83.92461;798.44;NaN;0.0;193.92212;;1 / 5;4504;2022-11-11 14:46:53:932
-0.198;1.7372;12.3494;-0.0659;2.177;9.5617;-0.2065;-0.3497;1.5092;-0.206;-0.3384;0.5056;16.3;-27.02;-23.4;-25.97;120.23;-14.03;1.93;5.0;35.95847;-83.92461;798.44;NaN;0.0;193.92212;;1 / 5;5005;2022-11-11 14:46:54:433
-2.595;3.5542;8.7589;-0.6364;2.0637;9.5659;-0.7685;0.1683;-0.7617;0.4695;0.6796;0.2853;16.8;-33.37;-18.71;-24.04;112.07;-12.15;3.81;5.0;35.95847;-83.92461;798.44;NaN;0.0;193.92212;;1 / 5;5505;2022-11-11 14:46:54:933
-0.2934;2.5445;8.6764;-1.1046;1.9352;9.5502;0.6135;0.7372;-0.9369;0.1285;-0.0073;0.564;19.2;-29.47;-13.63;-24.41;107.67;-10.42;7.09;5.0;35.95847;-83.92461;798.44;NaN;0.0;193.92212;;1 / 5;6004;2022-11-11 14:46:55:432
-0.8456;1.3107;9.4086;-0.2166;1.6414;9.6659;-0.5212;-0.294;-1.28;-0.3773;0.3484;0.9512;38.8;-26.38;2.08;-13.71;80.89;-9.64;1.28;5.0;35.95847;-83.92461;798.44;NaN;0.0;193.92212;;1 / 5;6504;2022-11-11 14:46:55:932
-1.3618;1.5416;7.6125;-1.2136;1.2589;9.6495;0.6571;-0.3807;-1.1755;0.4376;-0.3257;-0.1719;54.7;-12.41;22.91;-4.22;28.34;-6.56;8.49;5.0;35.95847;-83.92461;798.44;NaN;0.0;193.92212;;1 / 5;7004;2022-11-11 14:46:56:432
-1.1426;1.3977;10.9537;-0.9879;1.9751;9.5548;-0.0896;-1.0966;1.1518;-0.128;0.3195;1.1844;54.7;6.68;29.94;2.93;345.89;-11.62;5.9;5.0;35.95847;-83.92461;798.44;NaN;0.0;193.92212;;2 / 5;7504;2022-11-11 14:46:56:932
-0.952;-0.2028;12.8459;-2.1791;0.6546;9.5391;1.3693;-0.1505;3.1818;-0.9445;0.2902;-0.506;48.1;30.41;13.29;14.38;289.44;-9.93;8.96;5.0;35.95847;-83.92461;798.44;NaN;0.0;193.92212;;2 / 5;8004;2022-11-11 14:46:57:432
-1.6959;0.5207;14.7221;1.1461;2.3777;9.4448;-4.2019;0.5753;1.2103;0.7072;-1.7831;0.1345;36.1;29.49;-1.07;21.71;254.78;-14.03;-6.92;5.0;35.95847;-83.92461;798.44;NaN;0.0;193.92212;;0 / 5;8504;2022-11-11 14:46:57:932
-0.2704;1.4818;9.964;1.0852;1.8592;9.5674;-1.3929;-0.7197;0.0264;-0.0773;0.2918;0.5146;31.1;19.74;-15.36;17.74;222.59;-11.66;-7.92;5.0;35.95847;-83.92461;798.44;NaN;0.0;193.92212;;0 / 5;9004;2022-11-11 14:46:58:432
-1.1342;1.0962;9.5483;-0.1282;0.9514;9.7595;-0.2284;0.4466;-1.7051;-0.2945;-0.079;0.4719;26.3;25.46;-20.46;23.04;228.86;-5.57;0.75;5.0;35.95847;-83.92461;798.44;NaN;0.0;193.92212;;0 / 5;9505;2022-11-11 14:46:58:933
-0.0796;-0.5596;10.0445;-0.16;2.1104;9.5756;0.0072;-2.5643;0.5272;0.2883;-0.3315;0.7457;20.6;19.16;-43.56;32.34;201.67;-11.63;1.18;5.0;35.95847;-83.92461;798.44;NaN;0.0;193.92212;;0 / 5;10005;2022-11-11 14:46:59:433
-2.1511;4.5987;11.0414;-2.4395;1.5305;9.3743;0.3691;2.9874;2.1173;-1.4579;0.1553;-1.2841;20.6;-17.44;-49.59;18.28;167.27;-8.98;14.59;5.0;35.95847;-83.92461;798.44;NaN;0.0;193.92212;;0 / 5;10504;2022-11-11 14:46:59:932
-1.5511;2.3985;11.5834;-1.1231;2.7598;9.3431;-1.2351;-0.0079;1.6068;0.1136;-0.6867;0.7276;16.4;-18.56;-34.12;-6.82;147.52;-17.68;8.5;5.0;35.95847;-83.92461;798.44;NaN;0.0;193.92212;;0 / 5;11004;2022-11-11 14:47:00:432
-1.5254;1.6283;11.5185;-1.8829;2.1815;9.3737;-0.0744;1.516;0.2845;-1.2423;0.3836;-0.5035;18.7;-4.05;-13.89;-9.34;154.36;-12.85;11.36;5.0;35.95847;-83.92461;798.44;NaN;0.0;193.92212;;0 / 5;11504;2022-11-11 14:47:00:932
-0.6751;0.9129;11.1571;-0.3011;2.2191;9.5475;-0.0396;-1.4484;5.0617;-0.3221;-0.0829;0.1184;15.6;16.8;-6.6;-1.56;249.75;-13.08;1.81;5.0;35.95847;-83.92461;798.44;NaN;0.0;193.92212;;0 / 5;12005;2022-11-11 14:47:01:433
-0.8734;0.865;10.4447;-1.7241;1.2448;9.5733;1.3971;-0.553;3.8348;-0.5785;0.5902;-0.1043;18.6;23.59;-12.84;9.99;241.08;-8.65;7.55;5.0;35.95847;-83.92461;798.44;NaN;0.0;193.92212;;0 / 5;12504;2022-11-11 14:47:01:932
-1.0896;0.5731;12.9188;-0.4654;2.2615;9.531;-0.5094;-1.6529;5.2211;0.6835;-1.3124;-0.062;15.8;12.6;-17.89;18.02;215.19;-12.12;6.15;5.0;35.95847;-83.92461;798.44;NaN;0.0;193.92212;;0 / 5;13005;2022-11-11 14:47:02:433
-1.0831;0.0942;13.0502;-0.9508;1.0299;9.706;-0.2255;2.0201;2.8976;-1.4846;0.8366;-0.2186;19.3;2.78;-20.87;11.04;190.45;-6.03;5.59;5.0;35.95847;-83.92461;798.44;NaN;0.0;193.92212;;0 / 5;13504;2022-11-11 14:47:02:932
1.7453;0.9778;13.4336;0.8997;2.497;9.4407;0.0778;-0.3233;2.1327;-0.4862;-0.2609;0.3918;19.3;2.68;-30.51;-4.39;186.49;-16.91;-3.64;5.0;35.95847;-83.92461;798.44;NaN;0.0;193.92212;;0 / 5;14004;2022-11-11 14:47:03:432
-0.3105;0.7789;12.7663;-1.594;1.8314;9.5013;1.6652;-0.4355;4.4033;-0.593;0.2664;-0.1297;29.4;-2.7;-39.36;-8.72;173.31;-12.93;8.08;5.0;35.95847;-83.92461;798.44;NaN;0.0;193.92212;;0 / 5;14505;2022-11-11 14:47:03:933
-5.5017;1.5631;13.2577;-0.9255;3.1884;9.2276;-4.386;0.0057;1.3202;0.2546;1.0975;1.3008;34.3;-12.9;-46.16;-12.86;160.43;-21.04;3.18;5.0;35.95847;-83.92461;798.44;NaN;0.0;193.92212;;0 / 5;15004;2022-11-11 14:47:04:432
0.0912;2.348;10.0205;-0.8216;3.0135;9.2959;0.8581;-0.5351;0.5961;-0.555;0.6395;0.1385;87.2;-41.51;-43.26;-18.81;129.79;-17.9;5.05;5.0;35.95847;-83.92461;798.44;NaN;0.0;193.92212;;0 / 5;15504;2022-11-11 14:47:04:932
-1.672;3.3284;10.1192;-0.1054;2.3844;9.5118;-0.6409;0.7086;0.4605;0.5033;0.2668;0.7686;87.2;-50.94;-32.21;-21.39;117.6;-12.58;-0.65;5.0;35.95847;-83.92461;798.44;NaN;0.0;193.92212;;0 / 5;16004;2022-11-11 14:47:05:432
-0.227;1.7115;10.94;0.4599;3.4207;9.1792;-0.3357;-1.5974;0.4796;0.0747;0.5346;0.6618;103.8;-35.74;-15.15;-24.0;98.32;-19.91;-4.65;5.0;35.95847;-83.92461;798.44;NaN;0.0;193.92212;;3 / 5;16505;2022-11-11 14:47:05:933
-0.4131;3.507;7.5936;-0.6261;3.7404;9.0437;0.1343;-0.2004;-1.1511;0.0046;0.2524;0.1206;90.1;-8.48;-11.68;-24.77;101.38;-22.13;2.9;5.0;35.95847;-83.92461;798.44;NaN;0.0;193.92212;;3 / 5;17004;2022-11-11 14:47:06:432
-1.6077;2.1185;11.2026;-0.2066;2.9678;9.3445;0.0265;-0.9062;4.226;-0.8661;0.3853;0.123;104.6;14.08;-14.77;-19.87;238.98;-17.62;1.27;5.0;35.95847;-83.92461;798.44;NaN;0.0;193.92212;;0 / 5;17504;2022-11-11 14:47:06:932
2.4129;1.9872;10.7623;0.3799;2.1965;9.5499;0.9261;0.6844;2.3695;-0.3986;-0.4941;-0.1602;78.2;21.39;-17.12;-10.91;237.95;-16.52;-2.97;5.0;35.95847;-83.92461;798.44;NaN;0.0;193.92212;;0 / 5;18005;2022-11-11 14:47:07:433
0.0817;1.3409;10.1303;0.3457;1.9499;9.6046;-1.2262;-0.3848;4.0563;-0.159;0.1991;0.6211;31.2;14.08;-22.12;-6.67;215.5;-12.01;-4.02;5.0;35.95847;-83.92461;798.44;NaN;0.0;193.92212;;0 / 5;18505;2022-11-11 14:47:07:933
-0.0951;1.9693;9.6844;-0.6821;1.3156;9.694;0.0499;-0.2181;2.5879;-0.4739;0.7796;0.335;19.7;3.32;-26.06;-11.12;186.43;-8.65;1.51;5.0;35.95847;-83.92461;798.44;NaN;0.0;193.92212;;0 / 5;19004;2022-11-11 14:47:08:432
-0.7104;2.5831;9.4983;-0.5379;1.3855;9.6934;-0.962;-0.0017;3.3141;-0.4161;0.3831;0.2051;16.9;-0.86;-24.15;-20.44;174.26;-8.12;3.18;5.0;35.95847;-83.92461;798.44;NaN;0.0;193.92212;;0 / 5;19504;2022-11-11 14:47:08:932
1.133;1.9364;8.1162;0.1596;1.9775;9.6039;-0.0937;-2.0588;3.427;0.0553;0.1972;1.5964;14.2;-7.5;-22.86;-25.44;159.46;-11.73;-3.41;5.0;35.95847;-83.92461;798.44;NaN;0.0;193.92212;;0 / 5;20004;2022-11-11 14:47:09:432
0.6637;3.8554;8.9118;0.5039;2.5967;9.4432;-0.486;1.0251;1.0002;-0.147;-0.1333;-0.8773;14.2;-6.9;-16.95;-26.59;148.77;-15.35;-3.05;5.0;35.95847;-83.92461;798.44;NaN;0.0;193.92212;;0 / 5;20505;2022-11-11 14:47:09:933
-1.1375;2.4009;9.6494;-1.316;1.4177;9.614;-0.2623;0.613;0.4863;-0.6728;1.3305;1.0022;15.9;-10.03;-18.3;-23.55;137.65;-8.73;7.66;5.0;35.95847;-83.92461;798.44;NaN;0.0;193.92212;;0 / 5;21005;2022-11-11 14:47:10:433
-1.7486;1.8559;9.6832;-0.6728;1.4635;9.6735;-0.2799;-0.6918;3.4505;-0.5588;0.362;0.3621;18.1;-7.22;-11.31;-21.9;132.04;-8.58;3.98;5.0;35.95847;-83.92461;798.44;NaN;0.0;193.92212;;0 / 4;21505;2022-11-11 14:47:10:933
-0.6443;2.2214;11.8406;-0.6611;1.7774;9.6215;-0.1896;-1.1035;2.5541;-1.1671;1.4198;1.0493;18.1;-8.08;-10.5;-22.31;117.67;-14.1;0.86;5.0;35.95847;-83.92461;798.44;NaN;0.0;193.92212;;0 / 4;22004;2022-11-11 14:47:11:432
-2.6154;1.9639;11.5292;0.0844;3.3708;9.2088;-1.3465;2.1872;4.0855;-0.7168;0.2099;0.5484;48.5;-2.66;-12.52;-28.99;129.21;-20.1;-0.53;5.0;35.95847;-83.92461;798.44;NaN;0.0;193.92212;;0 / 4;22504;2022-11-11 14:47:11:932
0.6589;-0.1152;12.3218;-1.174;1.646;9.596;1.8929;-0.6096;1.8624;-0.7417;0.6341;-0.6091;62.6;-1.52;-16.91;-35.76;154.42;-11.85;3.91;5.0;35.95847;-83.92461;798.44;NaN;0.0;193.92212;;0 / 4;23004;2022-11-11 14:47:12:432
-0.7059;0.4905;10.2296;0.1481;1.944;9.6109;-2.4984;-0.0013;-2.1912;0.2372;-0.2805;1.739;62.6;11.18;-20.23;-40.48;224.77;-11.43;-0.88;5.0;35.95847;-83.92461;798.44;NaN;0.0;193.92212;;0 / 4;23504;2022-11-11 14:47:12:932
-2.0991;2.3073;9.6051;-0.6894;1.2453;9.7028;-1.185;1.1207;-1.0432;-0.4298;-0.0808;0.2049;55.4;13.2;-30.34;-37.8;202.04;-7.94;4.69;5.0;35.95847;-83.92461;798.44;NaN;0.0;193.92212;;0 / 4;24004;2022-11-11 14:47:13:432
-1.5879;1.8814;8.4078;-1.0478;1.204;9.6759;-0.42;-0.4668;-0.4538;-0.2727;-0.1423;1.251;49.7;12.69;-31.57;-35.83;198.41;-7.05;6.18;5.0;35.95847;-83.92461;798.44;NaN;0.0;193.92212;;0 / 4;24505;2022-11-11 14:47:13:933
-2.3264;-0.6275;13.3642;-0.9546;1.8899;9.5753;-1.1258;-2.5653;3.866;-0.4943;-0.353;0.4304;42.4;10.24;-37.56;-36.56;194.17;-14.02;4.59;5.0;35.95847;-83.92461;798.44;NaN;0.0;193.92212;;0 / 4;25004;2022-11-11 14:47:14:432
-1.4171;-0.1029;12.2474;-1.4695;1.2653;9.613;-0.0039;-1.4907;2.6517;-0.045;0.6938;-0.1342;32.0;8.03;-36.51;-41.7;182.87;-7.41;8.69;5.0;35.95847;-83.92461;798.44;NaN;0.0;193.92212;;3 / 4;25504;2022-11-11 14:47:14:932
-2.3602;0.8121;8.2379;-1.9803;1.8512;9.4245;-0.5155;-0.5487;-1.3889;0.1739;0.4172;1.2309;24.2;14.21;-31.05;-46.71;186.54;-7.74;13.36;5.0;35.95847;-83.92461;798.44;NaN;0.0;193.92212;;3 / 4;26004;2022-11-11 14:47:15:432
-1.0026;2.2143;8.5902;-0.4788;1.4905;9.6809;-0.7475;0.4439;-1.4301;0.1854;-0.2672;-0.1757;18.1;30.66;-30.6;-49.76;231.31;-8.74;2.83;5.0;35.95847;-83.92461;798.44;NaN;0.0;193.92212;;0 / 4;26505;2022-11-11 14:47:15:933
-1.1312;0.9003;7.2535;-1.0545;0.0897;9.7494;0.2471;-0.3863;-0.0382;0.2477;-0.3076;0.2072;18.1;39.45;-33.36;-43.09;225.14;-1.07;8.46;5.0;35.95847;-83.92461;798.44;NaN;0.0;193.92212;;0 / 4;27004;2022-11-11 14:47:16:432
-0.2844;1.614;8.3815;0.0684;0.779;9.7754;-1.5954;0.0688;1.4145;-0.215;0.6343;0.3154;18.0;23.25;-40.16;-38.03;212.25;-4.56;-0.4;5.0;35.95847;-83.92461;798.44;NaN;0.0;193.92212;;0 / 4;27504;2022-11-11 14:47:16:932
-1.1833;-0.3284;10.6768;-1.7056;0.7589;9.6273;0.7674;-2.067;1.9658;-0.4619;1.4329;-0.1002;19.3;12.86;-34.69;-34.97;193.69;-2.67;7.84;5.0;35.95847;-83.92461;798.44;NaN;0.0;193.92212;;0 / 4;28004;2022-11-11 14:47:17:432
-2.0082;2.744;7.6056;-1.2436;1.8803;9.544;-0.3395;-1.9429;4.9869;-0.1629;0.9675;0.3986;16.9;12.49;-30.71;-32.96;197.75;-11.05;7.42;5.0;35.95847;-83.92461;798.44;NaN;0.0;193.92212;;0 / 4;28504;2022-11-11 14:47:17:932
-0.192;-0.8725;13.5069;-1.3255;1.2662;9.6338;0.8885;0.6298;3.2963;-1.1488;0.3528;-0.5061;15.2;5.08;-28.63;-33.39;181.07;-7.42;7.83;5.0;35.95847;-83.92461;798.44;NaN;0.0;193.92212;;0 / 4;29005;2022-11-11 14:47:18:433
-0.1475;0.4723;15.434;0.2313;2.0021;9.5973;-0.2471;0.3843;2.8862;-1.112;-1.4153;-1.0861;13.5;-0.64;-26.85;-36.19;171.86;-15.13;2.21;5.0;35.95847;-83.92461;798.44;NaN;0.0;193.92212;;0 / 4;29504;2022-11-11 14:47:18:932
-0.824;2.0336;12.2572;-0.336;1.881;9.6187;-1.2354;1.3447;0.7667;-0.3497;0.2532;0.1819;19.4;-8.16;-30.17;-34.26;158.21;-13.61;0.79;5.0;35.95847;-83.92461;798.44;NaN;0.0;193.92212;;0 / 4;30005;2022-11-11 14:47:19:433
0.3287;1.8353;11.5576;0.0056;3.0983;9.3043;0.4992;-1.2404;1.7258;0.685;-0.9128;-0.0166;22.6;-2.1;-33.32;-30.6;174.74;-18.42;-0.03;5.0;35.95847;-83.92461;798.44;NaN;0.0;193.92212;;0 / 4;30504;2022-11-11 14:47:19:932
-1.4456;3.8022;11.8552;-0.0263;3.3477;9.2175;-1.6937;0.8701;-1.0414;0.1597;0.5211;1.1341;26.0;-4.63;-44.19;-20.62;171.58;-19.96;0.16;5.0;35.95847;-83.92461;798.44;NaN;0.0;193.92212;;0 / 4;31005;2022-11-11 14:47:20:433
-0.3275;2.8654;9.5985;0.1499;1.9225;9.6152;0.1526;0.1703;0.4821;0.3587;0.2366;0.6636;70.3;-15.17;-46.11;-18.36;161.11;-10.76;-2.28;5.0;35.95847;-83.92461;798.44;NaN;0.0;193.92212;;0 / 4;31505;2022-11-11 14:47:20:933
-0.4914;1.4973;9.1747;0.9626;2.1022;9.5302;-1.5286;-0.7108;-0.7845;0.0257;0.2319;0.8967;78.5;-19.59;-38.87;-22.56;151.45;-12.99;-5.67;5.0;35.95847;-83.92461;798.44;NaN;0.0;193.92212;;0 / 4;32004;2022-11-11 14:47:21:432
-1.1447;1.3298;9.1011;-0.1413;1.9684;9.606;-1.0818;-0.4756;-0.909;-0.0363;0.3289;1.1847;78.5;-21.19;-38.12;-24.07;146.67;-11.58;0.84;5.0;35.95847;-83.92461;798.44;NaN;0.0;193.92212;;0 / 4;32504;2022-11-11 14:47:21:932
-0.7259;1.2667;13.0684;-0.3906;1.8576;9.6212;-0.3779;0.906;1.762;-0.2935;0.6224;0.9793;92.8;-17.1;-30.13;-26.36;144.19;-12.04;0.63;5.0;35.95847;-83.92461;798.44;NaN;0.0;193.92212;;0 / 4;33004;2022-11-11 14:47:22:432
-0.3757;2.3563;6.8683;-0.2125;2.2492;9.5429;0.3831;-0.8352;-2.2679;0.2211;-0.2401;-0.1277;94.5;-1.91;-21.73;-24.69;169.47;-13.31;2.1;5.0;35.95847;-83.92461;798.44;NaN;0.0;193.92212;;0 / 4;33504;2022-11-11 14:47:22:932
-1.0663;2.0656;7.1306;-0.8454;2.0081;9.5615;-0.0349;0.4408;-3.1633;0.2163;0.0647;0.4238;80.4;2.89;-22.93;-18.02;183.29;-10.56;5.98;5.0;35.95847;-83.92461;798.44;NaN;0.0;193.92212;;0 / 4;34005;2022-11-11 14:47:23:433
-0.9966;2.2774;7.4169;-0.0144;2.1032;9.5784;-0.7129;0.0633;-1.1806;0.3589;-0.2537;-0.0941;64.8;0.88;-29.89;-8.96;182.06;-12.38;0.09;5.0;35.95847;-83.92461;798.44;NaN;0.0;193.92212;;0 / 4;34504;2022-11-11 14:47:23:932
-0.1484;2.2041;6.3386;-1.3586;1.3622;9.6161;2.3485;0.1944;-1.3935;0.2635;0.1034;0.5559;28.0;-3.88;-29.57;-5.27;170.92;-7.02;8.24;5.0;35.95847;-83.92461;798.44;NaN;0.0;193.92212;;0 / 4;35004;2022-11-11 14:47:24:432
-1.1282;1.5242;10.363;-0.2289;1.2155;9.7283;-0.6425;-0.0207;2.2007;-0.2219;0.2072;-0.2114;19.9;-11.17;-25.67;-3.45;156.51;-7.12;1.35;5.0;35.95847;-83.92461;798.44;NaN;0.0;193.92212;;0 / 4;35505;2022-11-11 14:47:24:933
-0.6796;-0.2279;11.2543;-0.8404;1.4472;9.6628;0.6765;-2.7133;3.2182;-0.3536;1.0725;0.617;14.7;-15.77;-24.99;-1.91;146.86;-7.55;3.24;5.0;35.95847;-83.92461;798.44;NaN;0.0;193.92212;;0 / 4;36004;2022-11-11 14:47:25:432
-1.1393;1.1626;13.8864;-0.5836;2.1167;9.5577;-0.9294;-0.3262;2.9771;-0.1416;-0.6255;-0.5754;14.7;-15.99;-18.99;-5.29;137.38;-12.47;3.49;5.0;35.95847;-83.92461;798.44;NaN;0.0;193.92212;;0 / 4;36504;2022-11-11 14:47:25:932
-0.1451;3.9254;11.3351;-0.2223;3.1094;9.298;-1.3073;0.8319;0.6298;-0.0476;-0.4922;0.1124;12.8;-18.26;-19.43;-5.91;131.61;-19.35;2.6;5.0;35.95847;-83.92461;798.44;NaN;0.0;193.92212;;0 / 4;37004;2022-11-11 14:47:26:432
-0.3721;0.9511;7.8655;-0.8465;2.4003;9.4706;0.4535;-1.4135;-1.499;0.8919;-0.3492;0.1684;13.6;-18.84;-13.13;-10.31;118.1;-14.17;5.11;5.0;35.95847;-83.92461;798.44;NaN;0.0;193.92212;;3 / 4;37504;2022-11-11 14:47:26:932
-0.481;2.1592;6.4567;-0.0258;2.6364;9.4456;-0.1062;-0.727;-2.585;0.5659;-0.2795;-0.8487;13.6;-24.99;-13.35;-10.39;111.75;-14.88;-0.59;5.0;35.95847;-83.92461;798.44;NaN;0.0;193.92212;;3 / 4;38005;2022-11-11 14:47:27:433
-0.9781;1.2978;7.9164;-1.0877;1.9489;9.5493;-0.6032;-0.4859;-2.1937;0.6894;0.0371;0.8482;15.8;-29.83;-16.46;-12.79;113.79;-11.46;6.5;5.0;35.95847;-83.92461;798.44;NaN;0.0;193.92212;;3 / 4;38504;2022-11-11 14:47:27:932
0.1262;1.1841;7.902;-0.4681;1.9828;9.5927;0.2246;0.1385;-1.3594;-0.0676;0.1182;-0.0938;15.8;-31.84;-12.45;-16.35;105.3;-11.07;1.5;5.0;35.95847;-83.92461;798.44;NaN;0.0;193.92212;;3 / 4;39004;2022-11-11 14:47:28:432
-1.4779;3.0371;7.0346;-2.3966;2.5154;9.1706;0.9934;0.0931;1.1022;-0.3451;1.1275;0.8049;14.0;-30.43;-15.67;-22.46;109.06;-14.86;14.65;5.0;35.95847;-83.92461;798.44;NaN;0.0;193.92212;;3 / 4;39504;2022-11-11 14:47:28:932
-4.7393;2.9294;10.4892;-2.9538;3.1096;8.819;-1.611;-0.7468;2.4828;-0.1085;0.8575;0.7858;53.5;-13.59;-8.96;-29.17;92.9;-18.44;17.47;5.0;35.95847;-83.92461;798.44;NaN;0.0;193.92212;;3 / 4;40004;2022-11-11 14:47:29:432