sep=;
ACCELEROMETER X (m/s²);ACCELEROMETER Y (m/s²);ACCELEROMETER Z (m/s²);GRAVITY X (m/s²);GRAVITY Y (m/s²);GRAVITY Z (m/s²);LINEAR ACCELERATION X (m/s²);LINEAR ACCELERATION Y (m/s²);LINEAR ACCELERATION Z (m/s²);GYROSCOPE X (rad/s);GYROSCOPE Y (rad/s);GYROSCOPE Z (rad/s);LIGHT (lux);MAGNETIC FIELD X (μT);MAGNETIC FIELD Y (μT);MAGNETIC FIELD Z (μT);ORIENTATION Z (azimuth °);ORIENTATION X (pitch °);ORIENTATION Y (roll °);PROXIMITY (i);LOCATION Latitude : ;LOCATION Longitude : ;LOCATION Altitude ( m);LOCATION Altitude-google ( m);LOCATION Speed ( Kmh);LOCATION Accuracy ( m);LOCATION ORIENTATION (°);Satellites in range;Time since start in ms ;YYYY-MO-DD HH-MI-SS_SSS
-1.922;1.9869;8.8875;-3.2121;3.8909;8.4092;1.2771;0.0225;1.1875;0.5325;1.6626;-0.5098;393.7;-6.09;-36.17;-22.69;151.17;-22.76;22.11;5.0;35.958313;-83.92443;704.21;NaN;0.58;30.291613;235.9;0 / 17;4;2022-10-28 14:16:05:056
14.8053;-8.0276;1.8138;7.0108;-6.6531;-1.6599;8.2153;-1.0811;3.0924;2.8707;-0.4584;2.8404;296.9;-28.01;-25.46;-6.52;200.35;42.72;-103.32;0.0;35.958313;-83.92443;704.21;NaN;0.58;30.291613;235.9;0 / 17;505;2022-10-28 14:16:05:557
1.6427;-10.3582;3.0141;4.5589;-8.1367;3.03;-1.1616;-1.855;-0.4416;-0.0943;1.8079;-0.8666;36.5;-43.5;31.88;6.83;105.59;57.08;-54.45;0.0;35.958313;-83.92443;704.21;NaN;0.58;30.291613;235.9;0 / 17;1005;2022-10-28 14:16:06:057
4.1527;-11.5358;1.9798;4.7695;-8.381;1.7836;0.1054;-4.5863;1.1166;-3.0167;1.2729;-1.0578;27.3;-45.92;34.26;-5.25;151.05;58.72;-69.5;0.0;35.958313;-83.92443;704.21;NaN;0.58;30.291613;235.9;0 / 17;1505;2022-10-28 14:16:06:557
3.9529;-10.0654;4.8861;6.4868;-6.5417;3.3613;-4.0752;4.3025;1.7932;-1.0638;-1.1616;-1.507;6.0;-51.52;15.39;-21.73;149.93;41.18;-52.41;0.0;35.958313;-83.92443;704.21;NaN;0.58;30.291613;235.9;0 / 17;2005;2022-10-28 14:16:07:057
4.9319;-13.1578;2.6022;5.6894;-7.987;0.0913;-1.804;0.5041;2.8941;0.636;0.1831;1.4086;8.1;-51.41;-0.04;-12.08;195.01;54.53;-89.08;0.0;35.958313;-83.92443;704.21;NaN;0.58;30.291613;235.9;0 / 17;2505;2022-10-28 14:16:07:557
2.9103;-7.6176;-0.6144;2.6051;-9.4203;0.8004;0.0558;1.7898;-1.2203;0.6364;-0.5062;0.0882;2.4;-40.41;12.11;6.26;155.42;73.23;-76.93;0.0;35.958313;-83.92443;704.21;NaN;0.58;30.291613;235.9;11 / 17;3005;2022-10-28 14:16:08:057
2.4906;-9.4226;-0.3024;2.0282;-9.5923;-0.2099;0.6423;-0.5968;0.8267;-0.4227;-1.1049;0.304;2.2;-24.13;20.31;22.76;136.5;78.0;-95.91;0.0;35.958313;-83.92443;704.21;NaN;0.58;30.291613;235.9;11 / 17;3504;2022-10-28 14:16:08:556
-0.6416;-10.9834;0.7615;3.1416;-9.1766;-1.4456;-1.8734;-2.0992;2.8165;-0.7649;0.2198;-1.5199;0.8;-4.05;31.14;34.56;110.65;74.59;-117.89;2.0;35.958313;-83.92443;704.21;NaN;0.58;30.291613;235.9;11 / 17;4005;2022-10-28 14:16:09:057
3.7205;-9.8378;-0.3876;2.8452;-9.3818;0.2374;-0.1747;1.3441;0.6294;1.1341;-0.1792;0.12;2.0;-14.59;37.84;46.76;89.4;73.07;-85.23;0.0;35.958313;-83.92443;704.21;NaN;0.58;30.291613;235.9;11 / 17;4505;2022-10-28 14:16:09:557
3.3323;-7.593;0.0727;3.3859;-9.1953;0.3911;-0.1291;1.6743;-0.1606;-0.1419;1.295;-0.0583;0.8;-9.11;50.04;39.92;75.15;69.75;-87.19;0.0;35.958313;-83.92443;704.21;NaN;0.58;30.291613;235.9;11 / 17;5005;2022-10-28 14:16:10:057
1.1883;-9.242;0.5261;4.722;-8.2677;2.3491;-3.7415;-0.871;-1.9766;-0.7299;2.3685;0.0432;2.0;-12.15;51.23;29.87;47.38;57.47;-63.55;0.0;35.958313;-83.92443;704.21;NaN;0.58;30.291613;235.9;11 / 17;5505;2022-10-28 14:16:10:557
5.0916;-11.1873;0.1448;4.5675;-8.4895;1.799;3.9733;-6.4403;0.6362;0.9589;-1.3113;-1.154;1.3;-13.03;44.85;21.23;53.58;61.61;-67.24;0.0;35.958313;-83.92443;704.21;NaN;0.58;30.291613;235.9;11 / 17;6004;2022-10-28 14:16:11:056
5.5666;-8.027;3.122;4.0499;-8.8465;1.2283;0.2937;1.6497;1.1351;-1.3705;1.2044;-0.232;0.0;-2.96;40.43;9.13;29.11;64.43;-73.13;0.0;35.958313;-83.92443;704.21;NaN;0.58;30.291613;235.9;11 / 17;6505;2022-10-28 14:16:11:557
4.5879;-7.7836;2.6548;3.2942;-9.0962;1.6057;1.3325;0.7804;0.9605;-0.6834;0.506;0.5024;2.0;-11.47;28.48;8.53;59.62;63.07;-62.71;0.0;35.958313;-83.92443;704.21;NaN;0.58;30.291613;235.9;11 / 17;7004;2022-10-28 14:16:12:056
2.5962;-6.3473;2.5953;4.5117;-8.4291;2.183;-1.9567;0.9378;-0.5076;-0.375;0.6778;-0.4908;2.0;-8.42;27.32;8.21;45.22;59.26;-64.18;0.0;35.958313;-83.92443;704.21;NaN;0.58;30.291613;235.9;11 / 17;7505;2022-10-28 14:16:12:557
2.2869;-7.716;0.0787;5.1784;-7.4163;3.7885;-0.9968;-0.9519;-3.6721;0.5254;1.3439;-0.8003;2.0;-13.2;30.32;8.79;45.09;50.28;-56.73;0.0;35.958313;-83.92443;704.21;NaN;0.58;30.291613;235.9;11 / 17;8004;2022-10-28 14:16:13:056
5.1745;-8.9183;1.5568;4.7813;-8.3345;1.9609;5.0625;-5.6517;1.318;0.8734;-1.2224;-0.513;1.3;-18.13;36.84;9.98;61.95;58.2;-67.7;0.0;35.958313;-83.92443;704.21;NaN;0.58;30.291613;235.9;11 / 17;8505;2022-10-28 14:16:13:557
9.1929;-10.9176;1.6953;4.7417;-8.4804;1.3298;-0.1414;1.7553;0.8178;1.31;-4.2668;-0.0377;0.4;-7.91;49.65;14.78;37.1;59.86;-74.33;0.0;35.958313;-83.92443;704.21;NaN;0.58;30.291613;235.9;11 / 17;9005;2022-10-28 14:16:14:057
1.902;-8.1141;2.6937;2.17;-8.8875;3.5317;0.5751;0.9366;-0.4882;0.0512;1.4964;0.0384;1.3;8.19;53.94;-7.8;332.57;64.88;-37.72;0.0;35.958313;-83.92443;704.21;NaN;0.58;30.291613;235.9;11 / 17;9505;2022-10-28 14:16:14:557
2.5944;-9.0066;0.0278;2.6999;-9.0748;2.5551;-0.9011;-0.9477;-3.8175;-0.7679;-0.5985;0.5624;1.3;2.03;50.12;-0.3;356.21;67.85;-47.89;0.0;35.958313;-83.92443;704.21;NaN;0.58;30.291613;235.9;11 / 17;10004;2022-10-28 14:16:15:056
2.0459;-8.4796;1.0484;4.6021;-8.3378;2.3394;-1.8709;-0.6499;-0.9044;0.0352;-0.257;-0.215;0.0;-13.26;47.98;10.03;37.54;58.24;-63.05;0.0;35.958313;-83.92443;704.21;NaN;0.58;30.291613;235.9;11 / 17;10505;2022-10-28 14:16:15:557
2.645;-10.5383;1.0881;4.0559;-8.9125;-0.5352;-1.1401;-3.8992;2.8826;1.0502;-1.8263;0.1649;0.2;-12.6;48.45;16.28;65.65;65.34;-97.52;0.0;35.958313;-83.92443;704.21;NaN;0.58;30.291613;235.9;11 / 17;11005;2022-10-28 14:16:16:057
3.1654;-9.3873;0.3559;3.6829;-9.0811;-0.3748;-0.1394;-0.8194;0.2103;-0.0385;0.8193;-0.367;3.5;2.48;50.93;11.03;31.75;68.94;-101.73;0.0;35.958313;-83.92443;704.21;NaN;0.58;30.291613;235.9;11 / 17;11505;2022-10-28 14:16:16:557
4.9436;-10.8413;0.4175;3.9451;-8.9687;0.4101;0.7286;-0.4783;-0.4927;0.3505;-0.7444;-0.0444;1.0;-1.71;44.78;-3.38;349.89;66.84;-84.11;0.0;35.958313;-83.92443;704.21;NaN;0.58;30.291613;235.9;9 / 17;12005;2022-10-28 14:16:17:057
2.9518;-8.8484;0.0042;2.6373;-9.4124;0.7889;0.0126;0.8787;1.2517;0.3015;-0.6334;0.4006;0.8;-3.49;30.53;-10.54;286.77;73.7;-73.35;0.0;35.958313;-83.92443;704.21;NaN;0.58;30.291613;235.9;9 / 17;12504;2022-10-28 14:16:17:556
0.5088;-8.3411;0.4657;4.3078;-8.8082;-0.1709;-3.2089;0.5024;0.4476;0.8634;-1.4379;-0.665;0.8;2.31;23.83;-16.12;308.96;65.41;-93.92;0.0;35.958313;-83.92443;704.21;NaN;0.58;30.291613;235.9;9 / 17;13005;2022-10-28 14:16:18:057
0.6117;-8.3569;0.5874;3.5231;-9.1489;-0.2338;-2.0371;0.6749;0.2081;0.0103;-0.5566;-0.1457;1.3;-9.75;9.58;-15.75;250.67;68.56;-90.13;0.0;35.958313;-83.92443;704.21;NaN;0.58;30.291613;235.9;9 / 17;13504;2022-10-28 14:16:18:556
2.9429;-11.1069;-2.2893;2.3665;-9.5091;-0.3844;0.3456;-1.156;-1.37;-0.5173;-0.1767;0.05;1.3;-3.09;2.72;-8.55;244.95;76.85;-78.98;0.0;35.958313;-83.92443;704.21;NaN;0.58;30.291613;235.9;9 / 17;14005;2022-10-28 14:16:19:057
2.7607;-6.9242;0.577;3.5379;-9.1462;-0.0086;-1.3397;1.7917;0.5346;0.4019;-1.3882;0.6341;0.8;4.95;1.73;-9.88;298.43;68.85;-90.14;0.0;35.958313;-83.92443;704.21;NaN;0.58;30.291613;235.9;9 / 17;14505;2022-10-28 14:16:19:557
0.7472;-7.8838;2.2283;3.3401;-9.205;0.5321;-1.6213;-0.3929;0.1856;-0.5294;0.7278;-0.3481;0.2;9.54;-1.31;-6.45;312.68;69.64;-76.79;0.0;35.958313;-83.92443;704.21;NaN;0.58;30.291613;235.9;9 / 17;15005;2022-10-28 14:16:20:057
6.7525;-9.8889;-3.5282;3.4537;-9.1745;0.2649;4.2549;-3.4676;-0.8543;-0.6871;1.7008;-1.0076;0.8;20.14;4.63;-2.62;347.39;69.32;-85.61;0.0;35.958313;-83.92443;704.21;NaN;0.58;30.291613;235.9;9 / 17;15504;2022-10-28 14:16:20:556
4.4782;-17.0761;2.9952;3.0892;-9.2759;0.7648;1.7299;-7.8704;2.2192;0.594;-1.3117;-0.41;1.0;21.73;8.33;-5.7;339.3;73.39;-83.31;0.0;35.958313;-83.92443;704.21;NaN;0.58;30.291613;235.9;9 / 17;16006;2022-10-28 14:16:21:058
1.9893;-7.5697;0.9176;3.0958;-9.2962;0.408;-0.2499;0.9446;1.0234;-0.3967;0.3982;-0.2904;2.0;21.66;1.65;-29.14;299.26;71.43;-82.49;0.0;35.958313;-83.92443;704.21;NaN;0.58;30.291613;235.9;9 / 17;16505;2022-10-28 14:16:21:557
2.691;-7.092;-1.9346;3.9643;-8.9682;-0.1633;-2.1203;0.9706;-0.0075;0.3618;-0.291;0.6902;2.2;11.04;-0.6;-38.87;285.67;63.42;-92.33;0.0;35.958313;-83.92443;704.21;NaN;0.58;30.291613;235.9;9 / 17;17005;2022-10-28 14:16:22:057
1.8613;-8.8445;0.9532;3.9919;-8.9572;0.0532;-1.4634;-0.1173;-0.1649;0.2693;-1.0045;-0.0664;2.2;10.28;-6.41;-35.32;280.11;65.98;-89.24;0.0;35.958313;-83.92443;704.21;NaN;0.58;30.291613;235.9;9 / 17;17505;2022-10-28 14:16:22:557
5.2834;-10.657;0.577;3.738;-9.011;1.0001;1.604;-2.9405;1.477;0.1881;0.1681;0.3404;2.0;17.46;-6.41;-29.94;283.84;68.02;-79.23;0.0;35.958313;-83.92443;704.21;NaN;0.58;30.291613;235.9;9 / 17;18005;2022-10-28 14:16:23:057
5.1535;-13.3555;1.3899;2.4694;-9.4323;1.0507;-0.0894;0.7303;0.145;0.5792;-0.6005;0.2498;2.4;23.91;-3.97;-20.04;294.41;74.12;-66.95;0.0;35.958313;-83.92443;704.21;NaN;0.58;30.291613;235.9;9 / 17;18505;2022-10-28 14:16:23:557
3.3464;-6.9159;1.0807;3.2717;-9.125;1.4836;1.6487;3.078;-2.0391;-0.616;1.3344;-0.0863;0.2;18.19;-9.51;-15.24;278.87;67.11;-59.65;0.0;35.958313;-83.92443;704.21;NaN;0.58;30.291613;235.9;9 / 17;19005;2022-10-28 14:16:24:057
3.5477;-7.1252;-0.7223;2.9288;-9.3279;0.7629;0.7971;2.0956;0.1279;-0.2087;-1.2402;0.3624;1.0;6.43;-8.08;-5.02;286.28;72.02;-75.4;0.0;35.958313;-83.92443;704.21;NaN;0.58;30.291613;235.9;9 / 17;19506;2022-10-28 14:16:24:558
-0.0473;-7.6436;1.054;1.5013;-9.6882;-0.2362;-2.0307;2.5335;1.781;0.6214;-3.5902;0.7157;1.1;-9.66;-8.72;1.01;185.83;77.36;-102.54;0.0;35.958313;-83.92443;704.21;NaN;0.58;30.291613;235.9;9 / 17;20005;2022-10-28 14:16:25:057
1.0053;-8.9958;1.0469;4.3704;-8.7009;1.1684;-3.3677;-0.2088;-0.1879;0.9014;-0.5892;-0.4586;2.5;-11.81;2.76;-0.02;160.8;62.53;-75.03;0.0;35.958313;-83.92443;704.21;NaN;0.58;30.291613;235.9;9 / 17;20505;2022-10-28 14:16:25:557
2.0551;-8.3417;0.0206;3.4469;-9.0733;1.4017;-0.5294;-1.3883;1.6642;0.7013;-0.5485;0.181;1.1;-14.92;14.14;-10.5;200.73;67.19;-69.37;0.0;35.95822;-83.92468;782.57;NaN;0.0;215.20491;;4 / 13;21005;2022-10-28 14:16:26:057
4.1043;-11.6587;-0.1848;1.5481;-9.6479;0.8317;1.0815;0.4226;-0.2371;-0.3685;0.4936;0.3369;1.5;-19.58;22.78;-5.27;161.96;79.68;-61.75;0.0;35.95822;-83.92468;782.57;NaN;0.0;215.20491;;4 / 13;21504;2022-10-28 14:16:26:556
1.6379;-8.1846;0.5441;3.9908;-8.9501;0.3739;-2.6063;0.8947;0.0752;0.3502;-0.9402;0.1906;5.2;-17.44;26.98;10.18;97.14;63.09;-81.93;0.0;35.95822;-83.92468;782.57;NaN;0.0;215.20491;;4 / 13;22005;2022-10-28 14:16:27:057
0.0981;-9.3404;3.2593;3.4334;-9.186;0.0135;-3.1636;-0.3103;3.4134;1.4115;-3.052;0.4606;6.7;-11.7;30.54;9.86;91.99;69.51;-89.77;0.0;35.95822;-83.92468;782.57;NaN;0.0;215.20491;;4 / 13;22505;2022-10-28 14:16:27:557
3.6601;-18.3159;3.0108;3.851;-9.0157;0.2382;-1.5878;-5.0409;1.6299;-1.3929;2.2204;-0.5162;8.2;-7.86;29.68;-0.81;4.86;64.64;-79.5;0.0;35.95822;-83.92468;782.57;NaN;0.0;215.20491;;4 / 13;23004;2022-10-28 14:16:28:056
2.438;-5.4087;0.146;3.6525;-9.0494;0.969;-1.0274;2.0649;-0.6941;0.5147;0.1032;0.0343;32.2;-9.32;21.88;-7.86;255.1;67.34;-75.14;0.0;35.95822;-83.92468;782.57;NaN;0.0;215.20491;;4 / 13;23505;2022-10-28 14:16:28:557
2.3088;-6.1893;2.1488;3.7828;-8.9425;1.3758;-1.6223;1.0334;1.1857;-0.0227;0.1974;0.1016;3.9;-6.11;17.7;-18.45;257.25;65.77;-70.01;0.0;35.95822;-83.92468;782.57;NaN;0.0;215.20491;;4 / 13;24005;2022-10-28 14:16:29:057
2.3441;-8.4664;-0.6377;4.0206;-8.7973;1.6167;-0.1028;-0.7531;-0.5892;0.1258;-0.8815;-0.2545;3.5;-2.77;17.49;-22.89;257.42;64.32;-63.52;0.0;35.95822;-83.92468;782.57;NaN;0.0;215.20491;;4 / 13;24505;2022-10-28 14:16:29:557
3.7603;-11.694;2.0985;2.4433;-9.3778;1.5028;0.9041;-0.8758;-0.277;0.0622;0.2467;0.2753;7.1;1.22;20.23;-19.09;266.5;72.85;-64.44;0.0;35.95822;-83.92468;782.57;NaN;0.0;215.20491;;4 / 13;25004;2022-10-28 14:16:30:056
2.8391;-7.6675;1.6968;3.0213;-9.2842;0.92;-0.3588;1.9899;-0.022;-0.5488;-0.6077;0.6017;3.5;3.15;22.41;-12.69;295.04;71.21;-73.06;0.0;35.95822;-83.92468;782.57;NaN;0.0;215.20491;;4 / 13;25505;2022-10-28 14:16:30:557
-0.297;-8.0312;2.0402;3.2657;-9.2444;-0.2173;-3.4652;1.2385;0.7857;-0.8789;0.1661;-0.2084;12.1;5.59;23.53;-6.13;338.28;70.5;-93.81;0.0;35.95822;-83.92468;782.57;NaN;0.0;215.20491;;4 / 13;26004;2022-10-28 14:16:31:056
4.0908;-7.2544;3.3649;4.3521;-8.7835;0.2841;-5.7112;-2.1221;-4.1145;-1.7746;-0.2852;-0.1229;3.8;6.32;21.86;0.62;357.04;60.62;-72.71;0.0;35.95822;-83.92468;782.57;NaN;0.0;215.20491;;4 / 13;26505;2022-10-28 14:16:31:557
5.2331;-8.007;1.957;4.0051;-8.9163;0.7933;0.308;2.2275;0.0238;-0.8151;0.2139;0.2924;0.0;2.61;21.88;4.18;12.24;64.54;-71.69;0.0;35.95822;-83.92468;782.57;NaN;0.0;215.20491;;4 / 13;27005;2022-10-28 14:16:32:057
3.5043;-7.7378;0.3879;3.8006;-8.9455;1.3051;-0.1801;1.0561;-0.8374;-0.5984;-0.5446;0.9623;2.2;2.87;22.18;9.84;30.22;65.81;-71.05;0.0;35.95822;-83.92468;782.57;NaN;0.0;215.20491;;4 / 13;27505;2022-10-28 14:16:32:557
1.296;-8.9677;1.5592;3.6079;-9.0326;1.251;0.1669;-0.8681;-0.5157;-0.5447;1.0263;-0.8528;0.9;14.33;21.24;7.13;1.15;68.54;-65.08;0.0;35.95822;-83.92468;782.57;NaN;0.0;215.20491;;4 / 13;28005;2022-10-28 14:16:33:057
4.8748;-12.6263;-0.8844;3.9578;-8.9722;0.0744;2.7718;-7.174;2.3179;0.7388;-0.6932;-0.5285;0.2;12.99;21.81;15.81;41.32;67.84;-94.17;0.0;35.95822;-83.92468;782.57;NaN;0.0;215.20491;;4 / 13;28505;2022-10-28 14:16:33:557
3.5653;-8.333;-0.2417;3.113;-9.2627;0.8259;0.8641;1.1694;-0.8613;0.3625;0.1785;0.0751;1.9;13.58;26.16;23.06;37.68;71.25;-78.66;0.0;35.95822;-83.92468;782.57;NaN;0.0;215.20491;;4 / 13;29005;2022-10-28 14:16:34:057
5.3396;-7.5425;0.2578;3.47;-9.1548;0.5643;2.5807;2.5709;1.0084;-0.1273;0.0487;-0.0693;0.0;10.69;29.14;27.43;45.36;68.99;-80.76;0.0;35.95822;-83.92468;782.57;NaN;0.0;215.20491;;4 / 13;29505;2022-10-28 14:16:34:557
3.1917;-7.643;-0.0479;4.4914;-8.7035;0.4966;0.2469;2.3099;-2.8837;0.4355;0.8023;-0.4906;1.0;8.59;25.44;33.54;58.41;64.47;-86.85;0.0;35.95822;-83.92468;782.57;NaN;0.0;215.20491;;2 / 4;30005;2022-10-28 14:16:35:057
1.9011;-9.1546;0.1582;4.2049;-8.8524;-0.3529;-0.4689;-1.572;0.1966;0.3793;-1.9372;-0.3486;0.8;18.41;29.08;12.6;27.58;64.51;-94.8;0.0;35.95822;-83.92468;782.57;NaN;0.0;215.20491;;2 / 4;30505;2022-10-28 14:16:35:557
0.1238;-2.6964;-0.0425;3.4318;-9.1445;-0.8778;-2.56;5.21;0.5168;-0.699;-0.5427;-0.3354;0.8;19.41;31.54;-9.15;345.34;69.59;-93.82;0.0;35.95822;-83.92468;782.57;NaN;0.0;215.20491;;0 / 4;31004;2022-10-28 14:16:36:056
3.2853;-6.2438;-0.2886;3.5852;-9.1278;-0.0295;-0.7016;3.8957;-0.7153;0.2299;0.2333;0.4035;2.4;12.79;35.79;-4.78;349.05;68.56;-90.47;0.0;35.95822;-83.92468;782.57;NaN;0.0;215.20491;;0 / 4;31505;2022-10-28 14:16:36:557
3.8605;-5.5457;1.1303;3.7819;-9.0426;-0.3131;-0.5815;3.6959;2.7752;0.4362;-2.1978;0.3115;1.3;5.1;37.76;-10.05;333.85;66.18;-91.32;0.0;35.95822;-83.92468;782.57;NaN;0.0;215.20491;;0 / 4;32005;2022-10-28 14:16:37:057
-0.352;-7.8811;-9.0E-4;4.5548;-8.6814;-0.2413;-3.7145;-0.8375;0.8138;0.4571;-0.6055;-0.0249;1.7;-10.78;35.81;-15.64;295.13;62.28;-93.03;0.0;35.95822;-83.92468;782.57;NaN;0.0;215.20491;;0 / 4;32504;2022-10-28 14:16:37:556
-0.2115;-9.0808;-0.3039;3.4623;-9.166;-0.4092;-2.6124;0.3262;-0.809;-0.2918;0.1823;-0.7461;2.4;-21.97;32.34;-17.78;246.2;69.49;-93.1;0.0;35.95822;-83.92468;782.57;NaN;0.0;215.20491;;0 / 4;33004;2022-10-28 14:16:38:056
3.9069;-12.5061;0.2557;2.9244;-9.3558;-0.2956;0.3787;0.0606;-0.1633;-0.3067;-0.1267;-0.4961;1.7;-31.26;31.61;-11.7;218.87;72.56;-95.77;0.0;35.95822;-83.92468;782.57;NaN;0.0;215.20491;;0 / 4;33505;2022-10-28 14:16:38:557
2.5696;-7.7303;1.4022;3.4841;-9.1668;0.0185;-0.9164;1.062;0.1589;-0.2496;-0.456;0.241;0.0;-33.88;28.74;-10.91;201.41;68.13;-85.67;0.0;35.95822;-83.92468;782.57;NaN;0.0;215.20491;;0 / 4;34005;2022-10-28 14:16:39:057
-0.6437;-9.2803;3.5862;3.816;-9.0135;0.6038;-0.2646;-3.5703;-2.2565;-1.2008;2.9513;-0.8459;0.7;-31.84;27.3;-12.34;198.79;66.8;-81.01;2.0;35.95822;-83.92468;782.57;NaN;0.0;215.20491;;0 / 4;34505;2022-10-28 14:16:39:557
4.0971;-16.212;1.0292;3.0026;-9.3301;-0.3217;0.7695;-3.1532;0.644;-1.3383;-0.1596;-0.3915;2.4;-30.69;23.03;-19.31;200.54;71.37;-73.95;2.0;35.95822;-83.92468;782.57;NaN;0.0;215.20491;;0 / 4;35004;2022-10-28 14:16:40:056
2.4939;-6.7265;0.2195;2.6242;-9.4232;0.6985;-0.952;2.7125;-0.9993;-0.0075;0.5374;0.3299;3.3;-27.22;24.77;-22.46;211.26;73.92;-75.1;0.0;35.95822;-83.92468;782.57;NaN;0.0;215.20491;;0 / 4;35505;2022-10-28 14:16:40:557
3.9461;-6.7175;1.2485;3.2121;-9.1924;1.1635;0.8049;2.6444;-1.01;-0.2942;0.5048;-0.0998;0.0;-26.4;24.54;-23.85;210.75;69.79;-69.18;2.0;35.95822;-83.92468;782.57;NaN;0.0;215.20491;;0 / 4;36005;2022-10-28 14:16:41:057
2.1619;-6.6751;0.0335;4.0089;-8.9202;0.7276;-0.2466;1.856;-1.1753;-0.0846;0.4555;-0.1052;0.4;-28.41;25.56;-18.11;216.49;65.45;-79.71;2.0;35.95822;-83.92468;782.57;NaN;0.0;215.20491;;0 / 4;36505;2022-10-28 14:16:41:557
0.5988;-8.353;3.1208;4.2168;-8.7745;1.1823;-2.8868;0.4271;1.4872;-0.77;1.059;-0.9701;1.0;-27.97;26.34;-15.15;205.28;63.24;-75.46;2.0;35.95822;-83.92468;782.57;NaN;0.0;215.20491;;0 / 4;37005;2022-10-28 14:16:42:057
6.7522;-16.5559;1.1429;3.3826;-9.1969;-0.3812;3.5688;-7.7365;1.7577;0.1116;-0.706;-0.2084;0.0;-22.89;26.76;-11.33;231.08;69.69;-96.43;2.0;35.95822;-83.92468;782.57;NaN;0.0;215.20491;;0 / 4;37505;2022-10-28 14:16:42:557
1.9074;-8.0061;0.0849;2.8308;-9.3806;0.4006;-1.2338;2.1935;-0.3441;0.223;0.0111;0.1754;3.5;-21.45;29.89;-10.42;213.25;72.55;-84.14;2.0;35.95822;-83.92468;782.57;NaN;0.0;215.20491;;0 / 4;38005;2022-10-28 14:16:43:057
3.7002;-7.9217;0.6616;2.8319;-9.382;0.3591;-0.1638;1.8066;0.7456;0.024;-0.2205;0.0878;1.8;-20.92;31.43;-13.41;219.43;73.08;-82.77;2.0;35.95822;-83.92468;782.57;NaN;0.0;215.20491;;0 / 4;38504;2022-10-28 14:16:43:556
1.1877;-7.2356;0.2952;3.2012;-9.2694;0.0232;-1.6223;1.4282;-1.2808;0.3673;0.3216;0.0609;1.5;-23.68;30.9;-8.74;214.95;70.95;-89.58;2.0;35.95822;-83.92468;782.57;NaN;0.0;215.20491;;2 / 3;39005;2022-10-28 14:16:44:057
1.7674;-7.4237;1.5912;2.5125;-9.4739;0.3218;3.1719;1.2393;-1.169;-1.0913;0.3267;-0.675;0.7;-22.87;30.66;-4.37;184.12;75.03;-82.7;0.0;35.95822;-83.92468;782.57;NaN;0.0;215.20491;;2 / 3;39505;2022-10-28 14:16:44:557
4.535;-14.3426;0.8342;3.0567;-9.3136;-0.2895;1.0259;-0.4243;0.928;0.3644;-2.0496;0.1334;2.3;-21.6;28.86;4.63;164.01;71.82;-93.95;0.0;35.95822;-83.92468;782.57;NaN;0.0;215.20491;;0 / 3;40004;2022-10-28 14:16:45:056
1.6023;-8.1051;1.7435;2.7779;-9.401;0.2727;-0.9287;1.4041;0.6402;0.6372;-0.2497;0.3021;1.6;-4.09;38.61;8.21;46.12;73.46;-84.39;0.0;35.95822;-83.92468;782.57;NaN;0.0;215.20491;;0 / 3;40505;2022-10-28 14:16:45:557
0.7137;-8.846;1.992;2.3245;-9.4335;1.3328;-0.7404;0.6392;1.1671;0.451;-0.5786;0.2563;2.5;-4.22;43.41;-13.46;283.27;74.14;-60.17;0.0;35.95822;-83.92468;782.57;NaN;0.0;215.20491;;0 / 5;41005;2022-10-28 14:16:46:057
1.3232;-9.851;1.8972;2.9371;-9.329;0.7169;-0.9232;0.6972;1.9206;1.0565;-1.0948;-0.7029;5.8;-23.38;38.38;-12.86;216.92;75.37;-83.79;2.0;35.95822;-83.92468;782.57;NaN;0.0;215.20491;;0 / 5;41505;2022-10-28 14:16:46:557
3.3227;-9.3467;1.3762;3.2716;-9.1936;0.9723;-0.537;0.391;0.344;0.2543;-0.989;0.4962;6.0;-38.93;29.89;6.96;141.43;68.59;-73.78;2.0;35.958202;-83.92432;736.52;NaN;4.32;780.6908;341.9;0 / 6;42005;2022-10-28 14:16:47:057
2.7574;-8.3871;1.113;3.6426;-9.1045;-0.0991;-0.7027;0.4537;1.2916;0.1723;-0.5673;-0.0588;6.0;-30.56;32.16;15.15;140.65;68.19;-91.56;0.0;35.958202;-83.92432;736.52;NaN;4.32;780.6908;341.9;0 / 6;42506;2022-10-28 14:16:47:558
5.953;-15.8551;1.8185;3.4733;-9.1125;-1.0336;1.3449;-0.6615;0.5306;-0.5171;-0.8976;-0.1244;3.5;-21.32;31.86;11.33;155.06;68.31;-106.57;0.0;35.958202;-83.92432;736.52;NaN;4.32;780.6908;341.9;0 / 6;43005;2022-10-28 14:16:48:057
2.7476;-7.5117;0.3969;2.5292;-9.4722;-0.2251;0.6639;2.1223;-0.8067;0.1547;0.0623;0.4509;3.9;-18.39;27.69;6.09;160.18;73.36;-97.67;0.0;35.958202;-83.92432;736.52;NaN;4.32;780.6908;341.9;0 / 6;43505;2022-10-28 14:16:48:557
1.7767;-6.9033;-1.7381;3.0841;-9.2865;-0.6475;-1.1428;2.251;-1.693;0.0294;-0.5537;-0.057;1.5;-16.99;26.96;1.89;179.51;71.57;-96.49;0.0;35.958202;-83.92432;736.52;NaN;4.32;780.6908;341.9;0 / 6;44005;2022-10-28 14:16:49:057
-0.1128;-5.9231;-0.5506;3.3282;-9.1912;-0.784;-3.1065;3.322;-0.2124;-0.0505;0.4877;-0.0822;0.7;-17.03;23.79;7.69;156.3;69.59;-103.26;0.0;35.958202;-83.92432;736.52;NaN;4.32;780.6908;341.9;0 / 6;44505;2022-10-28 14:16:49:557
2.808;-11.6186;0.0218;3.2977;-9.2284;0.3647;2.5173;-8.5618;0.4065;0.1022;0.2276;-0.59;1.4;-14.98;22.82;8.21;122.23;71.42;-83.96;0.0;35.958202;-83.92432;736.52;NaN;4.32;780.6908;341.9;0 / 6;45004;2022-10-28 14:16:50:056
4.5039;-14.8445;1.7094;2.9352;-9.3101;-0.9361;-0.4536;0.7276;0.7042;-0.7825;0.4428;-0.1131;0.0;-12.21;24.9;8.49;138.06;73.44;-102.61;0.0;35.958202;-83.92432;736.52;NaN;4.32;780.6908;341.9;0 / 6;45506;2022-10-28 14:16:50:558
2.6151;-8.2062;-0.8148;2.4008;-9.5081;0.0508;0.1317;0.9207;-0.2241;0.3192;0.8796;0.2443;1.1;-8.53;28.2;13.18;101.6;75.41;-94.07;0.0;35.958202;-83.92432;736.52;NaN;4.32;780.6908;341.9;0 / 6;46006;2022-10-28 14:16:51:058
2.2941;-6.7475;0.862;1.8269;-9.6245;0.45;-0.746;2.6657;1.1211;-0.0354;-0.9979;0.0686;1.0;-7.8;34.91;12.75;81.61;78.94;-76.16;0.0;35.958202;-83.92432;736.52;NaN;4.32;780.6908;341.9;0 / 6;46504;2022-10-28 14:16:51:556
2.6124;-7.5446;0.5725;3.2407;-9.252;-0.2626;-1.1426;-0.4234;-2.1546;0.1657;-0.6386;-0.0245;0.8;-14.29;36.09;19.78;96.89;70.28;-93.94;0.0;35.958202;-83.92432;736.52;NaN;4.32;780.6908;341.9;0 / 6;47005;2022-10-28 14:16:52:057
4.6415;-17.0462;2.8917;2.2588;-9.5179;0.6918;1.9521;-6.5006;0.9232;1.2286;-0.7111;-0.2875;2.4;-14.4;39.84;23.64;82.7;76.06;-72.97;0.0;35.958202;-83.92432;736.52;NaN;4.32;780.6908;341.9;0 / 6;47504;2022-10-28 14:16:52:556
4.1369;-14.091;1.1321;2.5142;-9.4651;-0.5113;0.2896;-1.2629;0.9176;-0.534;-0.865;-0.0725;0.8;-10.41;45.19;22.88;95.04;76.03;-98.08;0.0;35.958202;-83.92432;736.52;NaN;4.32;780.6908;341.9;2 / 5;48005;2022-10-28 14:16:53:057
3.1887;-7.5721;-1.022;2.7555;-9.3745;0.8344;0.6956;1.7344;-1.5335;-0.1767;0.9736;0.1416;0.4;-14.1;45.23;23.48;75.43;72.93;-73.15;0.0;35.958202;-83.92432;736.52;NaN;4.32;780.6908;341.9;2 / 5;48504;2022-10-28 14:16:53:556
3.9323;-6.6141;1.0265;3.1812;-9.2378;0.8444;-0.0343;2.3002;-0.3077;-0.0105;-0.8029;0.1456;0.8;-26.74;44.16;17.21;101.39;70.25;-73.23;0.0;35.958202;-83.92432;736.52;NaN;4.32;780.6908;341.9;0 / 5;49005;2022-10-28 14:16:54:057
3.7244;-9.1843;1.4052;3.945;-8.9757;0.2101;-1.3298;0.1288;-0.9444;0.4919;-0.2249;-0.3083;0.3;-24.39;22.99;18.32;121.49;66.24;-86.95;0.0;35.958202;-83.92432;736.52;NaN;4.32;780.6908;341.9;0 / 5;49504;2022-10-28 14:16:54:556
2.2101;-8.8902;1.5314;3.9714;-8.7864;1.788;-1.7451;-0.4067;-0.1;0.7295;0.5149;-0.3141;1.0;-3.38;14.33;18.47;60.91;64.9;-66.8;2.0;35.958202;-83.92432;736.52;NaN;4.32;780.6908;341.9;0 / 5;50004;2022-10-28 14:16:55:056
4.5051;-8.0743;1.9579;3.4667;-9.1389;0.7949;0.6878;1.4758;0.7584;-0.6011;0.4918;-0.1299;0.2;18.13;10.65;6.77;7.32;68.73;-77.09;2.0;35.958202;-83.92432;736.52;NaN;4.32;780.6908;341.9;0 / 5;50505;2022-10-28 14:16:55:557
0.7881;-7.9678;0.2797;4.416;-8.7268;0.7161;-3.9219;1.0824;-0.5687;0.1817;-0.0467;0.6742;1.7;22.59;1.74;0.13;352.02;61.62;-82.64;2.0;35.958202;-83.92432;736.52;NaN;4.32;780.6908;341.9;0 / 5;51005;2022-10-28 14:16:56:057
2.9824;-10.0597;-0.3787;2.5918;-9.3889;1.1408;1.6636;-7.0827;1.1261;1.0069;-0.1327;-0.5429;1.6;21.71;-10.41;-9.13;307.07;73.22;-66.24;2.0;35.958202;-83.92432;736.52;NaN;4.32;780.6908;341.9;0 / 5;51505;2022-10-28 14:16:56:557
3.2791;-6.4905;1.3017;3.392;-9.1965;0.2994;0.1046;2.6373;0.8476;-0.2634;-0.5007;-0.1868;2.4;17.81;-19.91;-17.34;289.31;69.82;-79.98;2.0;35.958202;-83.92432;736.52;NaN;4.32;780.6908;341.9;0 / 5;52007;2022-10-28 14:16:57:059
2.4948;-9.181;-1.3172;2.8678;-9.3602;-0.5759;-0.4698;0.0158;-0.8804;0.3496;-2.8264;0.3988;2.6;3.9;-20.79;-19.14;273.37;72.65;-101.35;2.0;35.958202;-83.92432;736.52;NaN;4.32;780.6908;341.9;0 / 5;52506;2022-10-28 14:16:57:558
0.7525;-9.7546;0.5246;2.9284;-9.3433;0.5457;-3.0423;-0.2431;0.8445;0.4351;-0.4826;0.304;3.1;-9.79;-18.24;-12.77;214.46;70.42;-82.69;2.0;35.958202;-83.92432;736.52;NaN;4.32;780.6908;341.9;0 / 5;53005;2022-10-28 14:16:58:057
-0.2474;-9.3476;-0.2384;2.386;-9.5116;-0.0809;0.7687;-1.9826;0.6328;-0.5042;0.9651;-0.3336;1.0;-14.49;-14.23;-6.04;201.09;75.91;-91.94;2.0;35.958202;-83.92432;736.52;NaN;4.32;780.6908;341.9;0 / 5;53505;2022-10-28 14:16:58:557
1.2386;-5.8519;-1.8511;1.6273;-9.6706;-0.0325;-0.3094;3.5817;-1.7706;-0.1342;-0.0618;0.4918;3.1;-17.53;-10.14;-0.96;175.95;77.98;-82.39;2.0;35.958202;-83.92432;736.52;NaN;4.32;780.6908;341.9;0 / 5;54005;2022-10-28 14:16:59:057
0.8952;-6.7813;-0.4196;2.3572;-9.5183;0.1249;-1.4314;2.7597;-0.6971;0.2631;-1.4518;0.233;1.8;-17.79;-4.05;2.85;167.8;76.07;-86.97;2.0;35.958202;-83.92432;736.52;NaN;4.32;780.6908;341.9;0 / 5;54505;2022-10-28 14:16:59:557
0.7998;-6.4107;0.676;2.8423;-9.3854;0.0778;-2.0597;1.548;1.3897;0.0858;0.4546;-0.0215;1.0;-15.39;-2.49;4.63;163.79;72.5;-92.33;2.0;35.958202;-83.92432;736.52;NaN;4.32;780.6908;341.9;0 / 5;55005;2022-10-28 14:17:00:057
1.9313;-10.1115;0.4669;2.2962;-9.5136;0.6242;0.8286;-4.758;1.037;-0.5194;0.2302;-0.2929;0.8;-10.33;1.52;2.78;145.78;75.96;-74.79;2.0;35.958202;-83.92432;736.52;NaN;4.32;780.6908;341.9;0 / 5;55504;2022-10-28 14:17:00:556
2.7778;-15.5635;3.1373;2.2561;-9.5024;-0.8862;-0.7423;-1.6681;0.6747;-0.89;-1.0594;-0.1948;0.0;-5.49;6.77;3.0;165.91;75.69;-111.44;2.0;35.958202;-83.92432;736.52;NaN;4.32;780.6908;341.9;0 / 5;56005;2022-10-28 14:17:01:057
2.6142;-10.9451;0.5216;1.8945;-9.6153;0.3566;-1.3496;1.7383;-0.0039;-0.1222;-0.315;0.7469;0.7;-7.89;12.9;-1.33;174.67;78.66;-79.34;2.0;35.958202;-83.92432;736.52;NaN;4.32;780.6908;341.9;0 / 5;56504;2022-10-28 14:17:01:556
2.2113;-8.0309;1.0214;2.4368;-9.4806;-0.5923;-0.3185;1.737;0.1797;-0.3242;-0.0502;-0.0046;0.8;-11.72;16.44;-2.38;211.87;75.84;-101.76;2.0;35.958202;-83.92432;736.52;NaN;4.32;780.6908;341.9;2 / 5;57005;2022-10-28 14:17:02:057
0.8339;-6.8542;-0.6206;2.2794;-9.5102;-0.7286;-1.2235;2.4107;-0.9283;0.1964;-0.2644;0.0612;0.8;-16.37;16.22;2.93;189.72;75.88;-107.73;2.0;35.958202;-83.92432;736.52;NaN;4.32;780.6908;341.9;2 / 5;57505;2022-10-28 14:17:02:557
1.2024;-9.8492;1.4632;2.5122;-9.461;-0.59;-0.3395;-2.0526;0.0146;-0.8807;0.2219;-0.2563;0.8;-18.15;13.88;2.61;184.92;74.74;-103.22;0.0;35.958202;-83.92432;736.52;NaN;4.32;780.6908;341.9;0 / 5;58004;2022-10-28 14:17:03:056
0.6021;-11.307;-4.9729;1.9596;-9.4986;-1.4514;1.9614;-10.2392;0.186;0.4281;-1.8125;-0.2591;0.8;-17.93;8.63;2.08;213.57;75.29;-125.0;0.0;35.958202;-83.92432;736.52;NaN;4.32;780.6908;341.9;0 / 5;58506;2022-10-28 14:17:03:558
1.6379;-7.3741;-2.6758;1.5924;-9.6317;-0.9301;0.4307;3.2592;-1.8885;-0.0232;-0.5094;-0.033;2.2;-13.76;5.49;0.73;204.41;79.99;-116.69;0.0;35.958347;-83.92445;771.08;NaN;;802.627;;0 / 6;59005;2022-10-28 14:17:04:057
2.0498;-7.791;0.3398;2.6441;-9.3988;-0.9178;-0.3706;1.6627;0.7064;0.4426;-0.8653;-0.257;0.3;-10.89;7.67;-2.03;217.95;73.42;-109.14;0.0;35.958347;-83.92445;771.08;NaN;;802.627;;0 / 6;59504;2022-10-28 14:17:04:556
1.2661;-8.9521;-0.4944;2.91;-9.2818;-1.2449;-1.1831;1.458;-0.0965;0.6732;-2.9183;-0.0102;0.0;-17.78;14.57;8.96;175.18;71.17;-113.16;0.0;35.958347;-83.92445;771.08;NaN;;802.627;;0 / 6;60005;2022-10-28 14:17:05:057
1.675;-9.7792;0.0703;2.656;-9.4299;-0.4385;-3.5523;0.0415;-1.0681;1.3689;-3.1486;0.6984;0.9;-21.07;29.74;23.49;127.34;70.84;-101.63;0.0;35.958347;-83.92445;771.08;NaN;;802.627;;0 / 6;60504;2022-10-28 14:17:05:556
1.2694;-9.2845;-1.4492;1.96;-9.595;-0.5142;0.3804;-0.4334;0.0389;0.0433;-0.5314;-0.3612;0.6;-15.24;44.61;30.3;115.74;79.71;-102.18;0.0;35.958347;-83.92445;771.08;NaN;;802.627;;0 / 6;61005;2022-10-28 14:17:06:057
3.9051;-12.4325;0.7035;2.4329;-9.4919;-0.3948;1.5189;0.425;-0.2883;0.4066;-0.1279;-0.1106;1.2;-9.43;35.55;33.28;98.53;75.44;-99.22;0.0;35.958347;-83.92445;771.08;NaN;;802.627;;0 / 6;61504;2022-10-28 14:17:06:556
2.0423;-9.3147;0.1181;1.3973;-9.6989;0.3855;0.4374;0.3626;-0.2632;0.328;-1.0923;0.5115;0.0;9.23;36.32;10.61;28.44;80.09;-79.39;0.0;35.958347;-83.92445;771.08;NaN;;802.627;;0 / 6;62005;2022-10-28 14:17:07:057
0.2225;-8.2376;-2.0677;2.459;-9.4839;-0.4224;-2.2788;0.699;-0.9856;0.2333;-0.8774;-0.2331;1.9;11.89;31.28;-13.72;332.77;74.99;-101.39;0.0;35.958347;-83.92445;771.08;NaN;;802.627;;0 / 6;62505;2022-10-28 14:17:07:557
1.2996;-13.686;2.8128;2.253;-9.544;0.0844;-1.4069;-6.3335;2.1981;-0.4865;0.5842;-0.9038;1.7;3.09;25.14;-23.89;288.44;78.42;-90.11;0.0;35.958347;-83.92445;771.08;NaN;;802.627;;0 / 6;63005;2022-10-28 14:17:08:057
4.5619;-18.0619;2.3892;2.6958;-9.3895;-0.8601;-1.716;0.7267;0.9885;-0.4535;-0.8539;0.2727;1.7;-6.54;19.22;-28.5;284.21;73.23;-107.7;0.0;35.958347;-83.92445;771.08;NaN;;802.627;;0 / 6;63505;2022-10-28 14:17:08:557
3.3323;-6.0446;-1.1252;1.9673;-9.6008;0.3523;0.996;2.4691;-1.3359;0.4881;0.6845;0.4432;1.9;-10.69;18.24;-25.16;253.39;77.42;-88.67;0.0;35.958347;-83.92445;771.08;NaN;;802.627;;0 / 6;64005;2022-10-28 14:17:09:057
2.1888;-5.9904;-0.0643;2.1961;-9.5335;0.6784;0.3484;3.0957;-0.4164;-0.1019;-0.207;0.1061;1.0;-6.0;19.89;-21.81;249.5;76.44;-72.83;0.0;35.958347;-83.92445;771.08;NaN;;802.627;;0 / 6;64504;2022-10-28 14:17:09:556
-0.3251;-6.7023;0.6353;3.1957;-9.2679;-0.2534;-3.4977;2.5726;0.6164;0.0666;0.0731;-0.0052;0.8;-7.74;26.08;-11.57;281.86;69.26;-94.57;0.0;35.958347;-83.92445;771.08;NaN;;802.627;;0 / 6;65005;2022-10-28 14:17:10:057
1.1189;-7.3579;-1.9077;2.7251;-9.4086;0.4718;-2.2145;1.0327;2.9456;0.629;-1.9148;0.1779;0.0;-5.89;33.73;-3.96;318.19;73.62;-80.18;0.0;35.958347;-83.92445;771.08;NaN;;802.627;;0 / 6;65506;2022-10-28 14:17:10:558
6.0401;-7.6499;-1.3863;2.6395;-9.4021;-0.8965;1.1263;-0.4618;-5.6027;-0.3692;1.0055;0.1397;0.0;-6.94;39.62;4.76;56.42;75.77;-104.51;0.0;35.958347;-83.92445;771.08;NaN;;802.627;;1 / 5;66004;2022-10-28 14:17:11:056
5.5307;-17.051;1.0911;1.7642;-9.6414;-0.3179;-0.6275;1.1894;-1.5117;0.1283;-0.3893;-0.1261;0.0;-8.21;44.18;7.03;99.53;79.47;-100.21;0.0;35.958347;-83.92445;771.08;NaN;;802.627;;1 / 5;66505;2022-10-28 14:17:11:557
2.4616;-7.841;2.24;3.4368;-9.1846;0.0292;-0.6749;1.2204;2.1659;-0.5699;0.738;-0.2829;0.0;-16.12;45.17;7.69;88.18;69.95;-91.22;0.0;35.958347;-83.92445;771.08;NaN;;802.627;;0 / 5;67005;2022-10-28 14:17:12:057
1.4838;-7.6956;1.5775;2.8229;-9.3914;0.0657;-2.7212;1.1166;1.9547;0.6086;-0.4429;0.5806;0.0;-22.05;42.0;11.31;127.16;73.27;-88.67;0.0;35.958347;-83.92445;771.08;NaN;;802.627;;0 / 5;67504;2022-10-28 14:17:12:556
2.316;-7.3705;2.1188;3.1214;-9.2935;0.2409;-0.9889;0.4108;2.6343;-0.3248;0.9762;-0.0885;0.0;-16.18;43.26;12.53;88.03;70.84;-83.42;0.0;35.958347;-83.92445;771.08;NaN;;802.627;;0 / 5;68005;2022-10-28 14:17:13:057
3.2794;-10.0161;-1.8999;2.2539;-9.5343;-0.4333;3.4732;-5.0506;-0.683;0.0114;-0.3236;-0.5479;0.0;-13.86;41.04;19.09;114.38;76.46;-100.88;0.0;35.958347;-83.92445;771.08;NaN;;802.627;;0 / 5;68505;2022-10-28 14:17:13:557
2.458;-8.2606;-2.3246;1.8815;-9.6238;0.1118;0.5577;1.7407;-2.4314;0.2316;0.1829;0.3208;0.0;-1.14;40.89;17.53;63.64;78.35;-84.71;0.0;35.958347;-83.92445;771.08;NaN;;802.627;;0 / 5;69005;2022-10-28 14:17:14:057
4.1372;-9.3553;-0.0431;1.1881;-9.7316;0.2339;2.9428;0.4256;-0.2153;-0.2753;0.6793;0.2608;0.0;6.08;37.07;9.73;35.06;82.91;-78.86;0.0;35.958347;-83.92445;771.08;NaN;;802.627;;0 / 5;69504;2022-10-28 14:17:14:556
1.8461;-8.8116;-1.2679;2.1774;-9.5591;-0.2291;-0.9283;0.5544;-0.8276;0.5375;-1.33;0.233;0.0;13.89;40.2;3.21;12.43;75.68;-98.53;0.0;35.958347;-83.92445;771.08;NaN;;802.627;;0 / 5;70004;2022-10-28 14:17:15:056
1.2365;-9.0661;1.0161;2.3473;-9.511;0.4487;-2.4824;-0.5866;-1.0543;0.1196;-2.2956;0.3124;0.0;10.65;40.26;-13.67;318.18;75.9;-79.18;0.0;35.958347;-83.92445;771.08;NaN;;802.627;;0 / 5;70505;2022-10-28 14:17:15:557
0.626;-14.6318;-2.5558;2.8141;-9.3926;-0.176;-1.7683;-6.5305;-0.8653;0.7483;-1.3252;-0.5868;0.0;-0.66;37.01;-23.17;299.68;72.51;-97.57;0.0;35.958347;-83.92445;771.08;NaN;;802.627;;0 / 5;71005;2022-10-28 14:17:16:057
2.7688;-11.9665;-1.4201;2.3334;-9.5205;-0.2925;0.4061;-2.8866;-1.0886;-0.3328;-0.2267;-0.5595;0.0;-5.89;35.04;-17.51;284.43;76.13;-97.14;0.0;35.958347;-83.92445;771.08;NaN;;802.627;;0 / 5;71505;2022-10-28 14:17:16:557
3.6371;-14.298;1.5245;2.301;-9.4804;-0.9986;0.7535;0.1567;2.5576;-0.1661;-0.8035;0.057;0.0;-9.08;39.92;-12.58;295.06;74.47;-111.37;0.0;35.958347;-83.92445;771.08;NaN;;802.627;;0 / 5;72005;2022-10-28 14:17:17:057
4.7728;-11.1242;0.6078;2.2875;-9.5167;-0.6086;1.7583;0.7991;-0.5122;-0.0388;0.5826;-0.114;0.0;-18.26;36.32;-8.33;243.38;76.03;-104.9;0.0;35.958347;-83.92445;771.08;NaN;;802.627;;0 / 5;72505;2022-10-28 14:17:17:557
1.1862;-9.2836;0.9368;1.6765;-9.6618;-0.0938;0.0988;0.2176;1.9144;0.3864;-1.0197;0.4828;0.0;-20.46;36.26;-10.82;223.16;80.14;-93.2;0.0;35.958347;-83.92445;771.08;NaN;;802.627;;0 / 5;73004;2022-10-28 14:17:18:056
2.3548;-8.8487;-2.9856;2.4105;-9.4959;-0.4341;-1.3746;0.1015;-1.756;0.1926;0.2063;0.018;0.0;-21.67;39.26;-6.88;227.1;75.54;-100.21;0.0;35.958347;-83.92445;771.08;NaN;;802.627;;0 / 5;73505;2022-10-28 14:17:18:557
3.1445;-15.0425;-2.1727;2.2498;-9.5451;0.0137;-1.0248;-2.5218;-1.117;0.8228;-2.2189;-0.1984;0.0;-13.16;47.16;-6.15;236.53;80.53;-94.34;0.0;35.958347;-83.92445;771.08;NaN;;802.627;;0 / 5;74005;2022-10-28 14:17:19:057
2.8349;-8.5684;1.3388;2.6944;-9.4292;-0.0179;-0.4278;0.6558;1.5166;-0.5907;2.3986;0.1538;0.0;-7.61;43.63;-13.11;288.94;74.05;-90.38;0.0;35.958347;-83.92445;771.08;NaN;;802.627;;0 / 5;74505;2022-10-28 14:17:19:557
1.0902;-7.4803;-0.5955;2.7294;-9.4184;-0.1205;-1.7988;1.9354;-0.2992;0.3452;-0.2248;0.2213;0.0;-8.16;43.16;-12.43;291.3;73.82;-92.53;0.0;35.958347;-83.92445;771.08;NaN;;802.627;;2 / 4;75005;2022-10-28 14:17:20:057
2.1111;-6.6407;-1.3268;2.9088;-9.3645;0.1228;-0.8823;2.3913;0.1811;0.5104;-2.2931;0.1713;0.0;-11.94;29.91;-16.09;256.24;72.51;-85.23;0.0;35.958347;-83.92445;771.08;NaN;;802.627;;2 / 4;75504;2022-10-28 14:17:20:556
3.035;-6.6628;-1.5715;1.815;-9.6357;-0.1695;1.0006;3.2414;0.1954;0.3968;-1.8632;0.3697;0.0;-14.55;46.74;-17.33;258.83;78.49;-95.58;2.0;35.958347;-83.92445;771.08;NaN;;802.627;;0 / 4;76005;2022-10-28 14:17:21:057
-0.2342;-11.1323;2.4434;2.4423;-9.4835;0.5181;-2.619;-2.3002;1.352;-0.301;0.1802;0.2524;0.0;-10.91;46.8;-15.73;262.96;75.25;-78.02;2.0;35.958347;-83.92445;771.08;NaN;;802.627;;0 / 4;76504;2022-10-28 14:17:21:556
5.0524;-18.1451;2.9797;3.2256;-9.2583;0.2226;-1.3564;-0.2031;1.7003;-0.3105;-2.1113;0.0015;0.0;-12.88;47.94;-12.24;277.42;70.73;-75.13;2.0;35.958347;-83.92445;771.08;NaN;;802.627;;0 / 4;77005;2022-10-28 14:17:22:057
7.5069;-16.9032;2.7667;2.5834;-9.4411;0.6021;1.6749;-2.0355;-0.4676;0.3787;-0.5766;0.1691;0.0;-12.22;52.05;-7.27;263.92;76.47;-79.93;2.0;35.958347;-83.92445;771.08;NaN;;802.627;;0 / 4;77505;2022-10-28 14:17:22:557
2.5573;-8.5244;0.6497;3.0018;-9.2233;-1.4456;-0.2939;2.4441;3.7496;-0.881;1.5005;-0.0335;0.0;-10.37;53.49;-6.92;318.05;70.44;-100.41;2.0;35.958347;-83.92445;771.08;NaN;;802.627;;0 / 4;78005;2022-10-28 14:17:23:057
3.332;-7.949;-1.4088;2.476;-9.4597;-0.7439;0.816;0.5102;-1.7657;0.2753;0.2063;0.2132;0.0;-13.24;45.79;-4.22;279.21;74.71;-106.72;2.0;35.958347;-83.92445;771.08;NaN;;802.627;;0 / 4;78504;2022-10-28 14:17:23:556
1.7441;-8.866;1.3759;2.265;-9.5156;-0.703;-0.7207;-0.2539;0.1618;-0.614;0.4288;-0.277;0.0;-11.96;41.06;-15.0;272.19;76.96;-101.31;0.0;35.958347;-83.92445;771.08;NaN;;802.627;;0 / 4;79005;2022-10-28 14:17:24:057
1.6836;-14.5875;-1.8987;3.0263;-9.2742;-1.0003;0.6127;-6.8077;0.6756;0.6118;-1.5809;-0.4491;0.0;-18.06;28.52;-19.07;267.35;71.03;-108.29;0.0;35.958347;-83.92445;771.08;NaN;;802.627;;0 / 4;79505;2022-10-28 14:17:24:557
4.4441;-12.8384;1.5589;2.3207;-9.5139;-0.5198;1.259;-2.6258;0.9305;-0.1283;1.4616;0.0641;1.3;-18.0;25.09;-6.04;237.93;76.72;-113.63;0.0;35.958347;-83.92445;771.08;NaN;;802.627;;0 / 4;80004;2022-10-28 14:17:25:056
1.8168;-8.9291;-2.2262;1.0378;-9.7205;-0.7775;-0.5561;0.3697;-0.0493;0.1054;-0.4079;0.4374;0.0;-10.22;33.83;1.18;232.19;82.4;-126.84;0.0;35.958347;-83.92445;771.08;NaN;;802.627;;0 / 4;80505;2022-10-28 14:17:25:557
0.5462;-9.4762;-0.463;2.5067;-9.4575;-0.6653;-3.3031;-0.4787;0.8927;0.6362;-1.4892;-0.6128;2.4;-5.12;39.58;1.58;2.51;75.41;-109.53;0.0;35.958347;-83.92445;771.08;NaN;;802.627;;0 / 4;81005;2022-10-28 14:17:26:057
3.6401;-11.5496;0.0981;2.5694;-9.4389;-0.6893;0.6215;-1.2035;0.9312;0.4624;-0.2414;-0.9696;0.4;-5.76;45.62;-0.21;347.3;74.26;-105.02;0.0;35.958347;-83.92445;771.08;NaN;;802.627;;0 / 4;81505;2022-10-28 14:17:26:557
1.6385;-7.9519;0.0353;2.1812;-9.5424;-0.5958;-0.3651;1.3291;0.3248;-0.2747;-0.2291;-0.0721;1.7;-2.53;48.32;-10.26;313.18;77.28;-102.19;0.0;35.958347;-83.92445;771.08;NaN;;802.627;;0 / 4;82005;2022-10-28 14:17:27:057
3.3613;-8.5962;1.3376;3.2636;-9.2102;-0.8311;-2.0573;0.6492;-3.4162;-0.5016;1.4116;0.2862;0.8;-7.35;45.79;-17.57;305.35;69.91;-104.29;0.0;35.958347;-83.92445;771.08;NaN;;802.627;;0 / 4;82504;2022-10-28 14:17:27:556
1.5437;-15.4475;-1.998;2.7165;-9.4165;-0.3461;-0.0988;-3.5153;-0.6962;0.1674;-1.1957;-0.4578;2.2;-15.0;35.89;-20.57;260.29;75.66;-94.97;0.0;35.958347;-83.92445;771.08;NaN;;802.627;;0 / 3;83006;2022-10-28 14:17:28:058
3.3078;-15.8465;1.5981;3.1118;-9.1968;-1.3802;-1.6261;1.1645;4.656;-0.2422;-0.9412;0.4224;0.0;-16.78;22.29;-20.57;272.3;69.69;-113.92;0.0;35.958347;-83.92445;771.08;NaN;;802.627;;0 / 3;83504;2022-10-28 14:17:28:556
3.1588;-7.413;-1.5658;2.3366;-9.4965;-0.7264;0.4959;1.8287;-1.2107;0.3376;-0.2824;0.4709;0.0;-11.21;17.03;-14.01;265.38;74.0;-107.52;2.0;35.958347;-83.92445;771.08;NaN;;802.627;;0 / 2;84005;2022-10-28 14:17:29:057
2.0695;-7.5631;0.4238;2.3187;-9.5107;-0.5833;-0.4501;0.4033;1.4894;-0.0551;-0.792;0.0427;0.0;-5.49;18.38;-4.5;277.07;75.89;-104.12;2.0;35.958347;-83.92445;771.08;NaN;;802.627;;0 / 2;84504;2022-10-28 14:17:29:556
0.6215;-8.4607;-4.6448;2.8403;-9.3522;-0.7993;-1.7776;-2.7137;-6.1641;0.6075;-1.4246;-0.189;0.0;-5.83;20.51;2.01;52.36;71.57;-100.2;0.0;35.958347;-83.92445;771.08;NaN;;802.627;;0 / 2;85005;2022-10-28 14:17:30:057
1.3418;-12.3523;-1.5556;2.0363;-9.5777;0.5393;-0.4217;2.1483;-1.1545;0.992;-0.5348;-0.091;0.0;-1.12;24.58;5.87;45.62;77.6;-75.17;0.0;35.958347;-83.92445;771.08;NaN;;802.627;;0 / 2;85505;2022-10-28 14:17:30:557
-0.0482;-7.3962;0.332;2.6649;-9.4228;0.5282;-2.4823;1.7241;-0.7378;-0.5291;0.8114;-0.3617;0.0;-0.58;30.56;6.51;33.76;72.52;-72.31;0.0;35.958347;-83.92445;771.08;NaN;;802.627;;0 / 2;86005;2022-10-28 14:17:31:057
0.6353;-7.3196;-0.2402;2.1592;-9.5321;-0.8049;-1.5722;2.1725;0.579;0.0872;-0.2204;0.1738;0.0;-0.11;31.05;10.89;71.0;76.41;-110.44;0.0;35.958347;-83.92445;771.08;NaN;;802.627;;0 / 2;86504;2022-10-28 14:17:31:556
2.6043;-7.637;0.1663;1.9691;-9.6052;0.181;1.2093;1.1406;0.3334;0.296;-1.1925;0.0208;0.0;0.36;33.15;12.39;58.09;79.31;-83.64;0.0;35.958347;-83.92445;771.08;NaN;;802.627;;0 / 2;87005;2022-10-28 14:17:32:057
3.3012;-16.9663;0.947;2.1439;-9.5543;-0.5378;0.5227;-0.7138;1.0114;-0.1357;-0.8285;-0.1705;0.0;4.2;31.26;14.63;65.08;76.97;-104.08;0.0;35.958347;-83.92445;771.08;NaN;;802.627;;0 / 2;87505;2022-10-28 14:17:32:557
2.4266;-8.0405;-0.1343;2.0128;-9.5935;-0.2908;-0.552;1.5405;2.3028;0.4496;-0.1811;0.2902;0.0;7.63;25.76;19.13;62.29;78.03;-98.22;0.0;35.958347;-83.92445;771.08;NaN;;802.627;;0 / 2;88005;2022-10-28 14:17:33:057
4.0029;-7.1106;2.6216;3.1283;-9.2752;-0.5956;0.235;2.8223;0.4502;-0.9175;1.3408;-0.4158;0.0;15.69;27.77;25.07;54.66;71.05;-100.78;0.0;35.958347;-83.92445;771.08;NaN;;802.627;;0 / 2;88506;2022-10-28 14:17:33:558
1.3268;-6.7726;0.0389;2.7113;-9.3612;-1.0893;-1.4537;3.0233;0.5675;0.2313;-1.7354;0.2148;0.0;19.97;32.66;25.46;56.39;70.54;-110.81;0.0;35.958347;-83.92445;771.08;NaN;;802.627;;0 / 2;89005;2022-10-28 14:17:34:057
1.4838;-8.0806;-0.9383;1.59;-9.6701;-0.3632;0.15;1.1496;1.4576;0.242;-1.0155;0.2801;0.0;37.56;37.33;-2.31;8.59;80.43;-102.87;0.0;35.958347;-83.92445;771.08;NaN;;802.627;;0 / 2;89505;2022-10-28 14:17:34:557
0.8061;-9.5982;-0.2151;2.4331;-9.4432;-1.0372;-3.0226;0.65;2.1337;0.4158;-1.0468;-0.3102;0.0;37.71;39.9;-20.03;356.15;74.35;-113.09;0.0;35.958347;-83.92445;771.08;NaN;;802.627;;0 / 2;90005;2022-10-28 14:17:35:057
-0.2689;-10.73;-2.805;2.4546;-9.4677;0.7127;-0.1275;-4.6593;-0.8376;1.0548;0.5489;-0.3668;0.0;26.83;36.43;-36.26;307.34;76.26;-82.43;0.0;35.958347;-83.92445;771.08;NaN;;802.627;;0 / 2;90504;2022-10-28 14:17:35:556
3.3281;-10.11;-0.9661;1.5019;-9.688;-0.2384;0.9659;0.696;-0.2727;-0.0669;-0.2896;0.1585;0.0;13.05;31.43;-35.42;300.62;81.35;-94.32;0.0;35.958347;-83.92445;771.08;NaN;;802.627;;0 / 2;91005;2022-10-28 14:17:36:057
0.871;-9.1603;-0.8611;2.5606;-9.4537;-0.4917;-1.6394;0.1889;-0.3427;0.4691;-1.8815;0.1892;0.0;2.44;36.6;-30.86;300.01;74.58;-100.87;0.0;35.958347;-83.92445;771.08;NaN;;802.627;;0 / 2;91505;2022-10-28 14:17:36:557
-0.1011;-9.4962;0.2303;2.6372;-9.4395;0.3329;-2.81;-0.2534;0.2768;0.4595;-1.5649;-0.0439;0.0;-0.43;39.15;-31.14;282.53;74.27;-82.81;0.0;35.958347;-83.92445;771.08;NaN;;802.627;;0 / 2;92005;2022-10-28 14:17:37:057
2.9689;-17.0871;-3.6117;3.9462;-8.9571;0.6071;0.1906;-8.5064;0.0274;0.1643;-1.4218;-0.5741;0.0;8.85;37.14;-35.64;292.29;67.18;-77.4;0.0;35.958347;-83.92445;771.08;NaN;;802.627;;0 / 2;92505;2022-10-28 14:17:37:557
2.7685;-7.3624;0.1059;2.7702;-9.394;0.4993;0.8227;1.9176;-0.9631;0.1274;-0.5578;0.2741;0.0;20.61;36.36;-35.12;301.15;72.72;-77.96;0.0;35.958347;-83.92445;771.08;NaN;;802.627;;0 / 2;93005;2022-10-28 14:17:38:057
2.4628;-7.1273;1.0469;3.1617;-9.2717;0.4582;-0.4039;2.0328;-0.3767;-0.1686;-0.5424;0.1196;0.0;28.16;33.68;-35.89;309.25;70.99;-81.75;0.0;35.958347;-83.92445;771.08;NaN;;802.627;;0 / 2;93504;2022-10-28 14:17:38:556
0.769;-6.1331;-0.5907;3.5708;-9.1046;0.7257;-1.5574;1.9722;-0.5405;0.102;-0.4126;-0.2253;0.0;26.81;33.21;-35.42;305.81;68.61;-76.76;0.0;35.958347;-83.92445;771.08;NaN;;802.627;;0 / 2;94005;2022-10-28 14:17:39:057
-0.0176;-8.3294;2.3794;3.0428;-9.2766;0.9261;-3.4646;-1.7612;-0.4877;-0.9732;1.1809;-0.1075;0.0;17.29;31.11;-32.4;292.29;69.08;-68.28;0.0;35.958347;-83.92445;771.08;NaN;;802.627;;0 / 2;94505;2022-10-28 14:17:39:557
2.5358;-10.424;-2.0318;3.0611;-9.3165;0.0616;0.0073;-2.7755;-5.3647;-0.2154;-0.1821;-0.2338;0.0;10.16;30.75;-25.16;301.95;71.72;-82.96;0.0;35.958347;-83.92445;771.08;NaN;;802.627;;0 / 2;95005;2022-10-28 14:17:40:057
2.697;-16.0182;3.8731;2.7167;-9.361;1.0774;0.1106;0.6508;-2.5244;-0.0677;-0.4365;-0.2275;0.0;4.11;31.58;-19.35;288.49;72.66;-68.37;0.0;35.958347;-83.92445;771.08;NaN;;802.627;;0 / 2;95504;2022-10-28 14:17:40:556
1.153;-6.8429;2.1535;3.039;-9.289;0.8056;-0.6628;1.8102;0.4888;-0.6266;1.6139;-0.3902;0.0;0.17;31.35;-14.96;291.46;71.73;-73.42;0.0;35.958347;-83.92445;771.08;NaN;;802.627;;0 / 2;96005;2022-10-28 14:17:41:057
1.5434;-8.4326;-0.3269;2.5626;-9.4517;0.5188;0.0123;1.5387;-1.7461;0.2908;-0.2264;0.2302;0.0;2.19;34.16;-11.79;305.46;74.54;-78.56;0.0;35.958347;-83.92445;771.08;NaN;;802.627;;0 / 2;96505;2022-10-28 14:17:41:557
-0.4289;-8.1574;1.8918;1.7344;-9.5178;1.6041;-2.2496;1.4752;0.7639;0.0889;0.9008;-0.3116;0.0;11.14;33.96;-17.64;281.0;75.89;-46.5;0.0;35.958347;-83.92445;771.08;NaN;;802.627;;0 / 2;97005;2022-10-28 14:17:42:057
2.5167;-9.0374;3.4851;1.9528;-9.6063;-0.2764;-1.8561;-1.2205;-1.7338;-0.3541;-0.7192;0.3082;0.0;19.43;26.7;-22.87;323.34;78.4;-98.06;0.0;35.958347;-83.92445;771.08;NaN;;802.627;;0 / 2;97505;2022-10-28 14:17:42:557
3.4223;-15.1508;0.4522;1.6418;-9.6053;1.1013;1.6628;-5.6674;0.7819;0.6781;-0.4067;-0.6336;0.0;22.18;11.64;-27.99;282.47;81.52;-61.64;0.0;35.958347;-83.92445;771.08;NaN;;802.627;;0 / 2;98006;2022-10-28 14:17:43:058
5.0824;-10.9493;-0.0269;2.0009;-9.5544;-0.9388;2.3762;1.0489;1.5232;-0.0402;-1.4392;-0.9893;0.0;23.42;-4.99;-24.39;337.66;76.98;-115.14;0.0;35.958347;-83.92445;771.08;NaN;;802.627;;0 / 2;98505;2022-10-28 14:17:43:557
2.5606;-7.3349;-1.5308;1.7455;-9.6498;0.0657;1.1711;2.3357;-1.4986;0.1529;-0.1015;0.3602;0.0;20.94;-1.22;-25.07;306.95;78.75;-87.73;0.0;35.958347;-83.92445;771.08;NaN;;802.627;;0 / 2;99005;2022-10-28 14:17:44:057
4.5604;-9.5001;0.2506;0.1704;-9.7948;-0.4511;2.2517;0.3382;1.2289;0.0443;-0.2175;0.5784;0.0;9.73;11.14;-21.37;4.66;87.18;-159.3;0.0;35.958347;-83.92445;771.08;NaN;;802.627;;0 / 2;99505;2022-10-28 14:17:44:557
0.8892;-9.227;-1.491;2.2401;-9.5415;-0.3342;-1.5986;0.6803;-0.2983;0.4015;-1.0152;-0.2541;0.0;14.33;17.12;-14.49;330.62;76.9;-100.75;0.0;35.958347;-83.92445;771.08;NaN;;802.627;;0 / 2;100005;2022-10-28 14:17:45:057
-1.5981;-10.1635;-0.9583;3.0068;-9.3302;0.2771;-4.8552;0.3806;-0.9738;0.4968;-2.9008;0.4676;0.0;21.96;14.21;-27.32;308.26;72.07;-84.74;0.0;35.958347;-83.92445;771.08;NaN;;802.627;;0 / 2;100506;2022-10-28 14:17:45:558
3.5408;-9.6984;-1.2993;1.762;-9.6065;-0.8839;2.4611;-0.7529;0.232;0.3635;-0.9158;-0.7028;0.0;8.72;10.07;-38.78;325.7;82.21;-131.86;0.0;35.958347;-83.92445;771.08;NaN;;802.627;;0 / 2;101004;2022-10-28 14:17:46:056
3.2079;-9.0078;0.3586;2.437;-9.4917;-0.3722;0.8138;0.4505;0.7299;0.2128;-0.3173;0.1465;0.0;-11.98;9.24;-17.91;251.43;75.44;-98.68;0.0;35.958347;-83.92445;771.08;NaN;;802.627;;0 / 2;101505;2022-10-28 14:17:46:557
1.9995;-9.2312;1.8458;2.0837;-9.5779;0.3042;-0.1756;0.4355;1.7055;0.4034;-0.6349;0.3799;0.0;-19.44;17.51;-1.44;179.89;76.55;-86.9;0.0;35.958347;-83.92445;771.08;NaN;;802.627;;0 / 2;102005;2022-10-28 14:17:47:057
0.061;-9.8453;0.4409;1.8922;-9.6222;-0.055;0.7824;-0.4112;0.6126;-0.093;-0.0384;-1.0111;0.0;-15.38;32.94;10.16;132.06;78.87;-91.67;0.0;35.958347;-83.92445;771.08;NaN;;802.627;;0 / 2;102504;2022-10-28 14:17:47:556
3.6144;-9.4056;-0.4167;2.1882;-9.5587;0.12;1.3839;0.4443;-0.8862;-0.0756;0.3032;0.3409;0.0;-11.21;43.89;12.09;89.66;77.11;-85.34;0.0;35.958347;-83.92445;771.08;NaN;;802.627;;0 / 2;103005;2022-10-28 14:17:48:057
3.3066;-8.9207;1.2664;2.209;-9.5399;0.5304;1.1501;0.693;0.6801;-0.1625;0.3209;-0.0252;0.0;-10.72;57.09;-4.37;325.06;76.61;-76.5;0.0;35.958347;-83.92445;771.08;NaN;;802.627;;0 / 2;103504;2022-10-28 14:17:48:556
2.3644;-9.9787;0.6571;2.6598;-9.4332;0.3318;-1.7298;-2.3349;-4.6993;-0.2669;0.801;-0.0097;0.0;-12.3;60.23;-9.02;305.23;72.93;-80.73;0.0;35.958347;-83.92445;771.08;NaN;;802.627;;0 / 2;104006;2022-10-28 14:17:49:058
5.8358;-18.201;-0.9084;2.3154;-9.4286;1.3821;-0.0343;-0.9827;-0.1144;1.6903;-1.7143;-0.6751;0.0;-8.96;58.52;-10.93;304.91;74.04;-59.17;0.0;35.958347;-83.92445;771.08;NaN;;802.627;;0 / 2;104505;2022-10-28 14:17:49:557
5.9734;-18.53;3.2492;2.6726;-9.4354;0.0159;-0.2469;2.8053;1.781;-0.5413;0.4812;-0.3374;0.0;-4.44;55.99;-11.23;315.96;74.19;-89.66;0.0;35.958347;-83.92445;771.08;NaN;;802.627;;0 / 2;105005;2022-10-28 14:17:50:057
2.8825;-7.5257;-0.1379;2.4845;-9.4027;1.2596;0.0845;1.6713;-2.4049;0.1611;-0.1477;0.5678;0.0;-0.3;54.41;-7.2;335.45;72.0;-63.7;0.0;35.958347;-83.92445;771.08;NaN;;802.627;;0 / 2;105505;2022-10-28 14:17:50:557
3.2734;-7.0131;2.2259;2.8456;-9.3627;0.6427;-0.2135;2.484;0.8329;-0.4358;-0.9555;0.5007;0.0;4.48;52.65;-9.84;329.81;70.87;-74.11;0.0;35.958347;-83.92445;771.08;NaN;;802.627;;0 / 2;106005;2022-10-28 14:17:51:057
0.5414;-6.5321;0.2016;2.6063;-9.4487;0.3164;-0.961;1.6896;0.13;0.0115;0.3268;0.253;0.0;11.76;48.75;-10.18;334.11;74.47;-83.08;0.0;35.958347;-83.92445;771.08;NaN;;802.627;;0 / 2;106504;2022-10-28 14:17:51:556
0.1989;-7.5849;-0.568;2.0261;-9.5559;0.8658;-0.7272;-0.0989;1.0099;-0.0644;-1.2392;-0.0841;0.0;15.36;45.84;-10.87;320.71;77.02;-66.86;0.0;35.958347;-83.92445;771.08;NaN;;802.627;;0 / 2;107005;2022-10-28 14:17:52:057
0.102;-6.894;-0.4137;2.3492;-9.5153;-0.3337;-0.4121;0.2754;0.165;-0.2767;0.6515;-0.6683;0.0;18.86;46.01;-6.81;351.18;78.12;-97.47;0.0;35.958347;-83.92445;771.08;NaN;;802.627;;0 / 2;107505;2022-10-28 14:17:52:557
0.1014;-8.0731;1.9875;1.0047;-9.7541;-0.1365;-1.1915;-0.2981;2.6296;-0.248;-1.1227;0.4128;0.0;25.2;49.28;-10.39;348.24;82.05;-97.21;0.0;35.958347;-83.92445;771.08;NaN;;802.627;;0 / 2;108005;2022-10-28 14:17:53:057
-1.6259;-9.0188;1.8694;2.6994;-9.4111;-0.5612;-4.5694;0.2238;2.6248;0.4057;-1.6362;-0.479;0.0;32.18;47.66;-21.15;343.58;73.67;-101.74;0.0;35.958347;-83.92445;771.08;NaN;;802.627;;0 / 2;108505;2022-10-28 14:17:53:557
3.2922;-9.635;2.2238;1.745;-9.6495;0.1094;1.8445;-1.6575;1.3799;0.2053;0.488;0.0076;0.0;27.92;47.1;-27.99;318.99;79.73;-86.41;0.0;35.958347;-83.92445;771.08;NaN;;802.627;;0 / 2;109005;2022-10-28 14:17:54:057
2.3489;-9.7014;-0.0362;0.8725;-9.7677;0.047;1.5126;-0.122;-1.2017;-0.3948;0.4464;0.056;0.0;34.63;40.99;-24.47;309.73;84.41;-70.15;0.0;35.958347;-83.92445;771.08;NaN;;802.627;;0 / 2;109505;2022-10-28 14:17:54:557
-0.2545;-9.2916;-1.2132;1.8265;-9.6343;0.1203;-2.5408;0.4839;-1.0093;0.4701;-1.4863;0.0828;0.0;36.83;40.89;-35.89;318.54;77.68;-86.91;0.0;35.958347;-83.92445;771.08;NaN;;802.627;;0 / 2;110005;2022-10-28 14:17:55:057
0.6302;-9.2237;2.1694;2.027;-9.5933;0.1739;-3.2798;0.0767;1.4484;0.594;-2.27;0.432;0.0;11.48;39.34;-54.94;284.31;78.03;-85.1;0.0;35.958347;-83.92445;771.08;NaN;;802.627;;0 / 2;110505;2022-10-28 14:17:55:557
2.8358;-9.1289;0.6541;1.4859;-9.6904;-0.2418;2.2183;-2.2577;2.6201;-0.4833;0.9863;-0.427;0.0;-13.22;38.46;-49.82;267.67;83.44;-97.38;0.0;35.958347;-83.92445;771.08;NaN;;802.627;;0 / 2;111005;2022-10-28 14:17:56:057
2.9572;-9.4496;0.8827;2.2019;-9.5545;0.1841;0.4193;0.9526;-0.0745;0.0918;0.7072;0.1651;0.0;-24.22;35.83;-38.38;247.52;76.9;-89.37;0.0;35.958347;-83.92445;771.08;NaN;;802.627;;0 / 2;111505;2022-10-28 14:17:56:557
2.5181;-8.3222;1.4569;2.0169;-9.5834;0.51;0.1758;0.8009;1.3343;-0.0386;-1.3;0.5722;0.0;-37.29;28.95;-27.0;203.64;76.58;-73.55;2.0;35.958347;-83.92445;771.08;NaN;;802.627;;0 / 2;112005;2022-10-28 14:17:57:057
3.422;-7.5452;1.121;2.8377;-9.3799;-0.3675;1.3641;-0.8071;-6.0947;-1.0067;2.304;-0.2581;0.0;-46.43;29.59;-24.02;222.93;73.04;-97.38;2.0;35.958347;-83.92445;771.08;NaN;;802.627;;0 / 2;112504;2022-10-28 14:17:57:556
3.2133;-14.6641;-0.9769;2.9941;-9.3276;0.4484;2.724;-9.577;0.6864;0.4509;-0.4016;-0.586;0.0;-50.96;30.15;-29.16;204.94;74.04;-81.05;2.0;35.958347;-83.92445;771.08;NaN;;802.627;;0 / 2;113005;2022-10-28 14:17:58:057
2.9713;-9.3177;1.844;2.5336;-9.4736;-0.0426;-0.3854;1.6804;2.0355;0.1229;-1.1575;-0.0461;0.0;-52.39;27.28;-22.89;209.1;75.03;-90.96;2.0;35.958347;-83.92445;771.08;NaN;;802.627;;0 / 2;113505;2022-10-28 14:17:58:557
2.5869;-8.549;-0.9826;1.332;-9.7153;0.1;1.252;0.9589;-0.7453;0.1493;0.4507;0.8404;0.0;-48.97;30.64;-16.58;199.96;80.71;-88.7;0.0;35.958347;-83.92445;771.08;NaN;;802.627;;0 / 1;114005;2022-10-28 14:17:59:057
0.8997;-8.1344;1.8003;2.078;-9.5351;0.9668;-1.7367;1.7732;1.4064;-0.2194;1.7453;-0.0554;0.0;-40.52;36.15;-14.53;173.78;76.48;-65.05;0.0;35.958347;-83.92445;771.08;NaN;;802.627;;0 / 1;114505;2022-10-28 14:17:59:557
0.679;-7.1913;-0.6311;1.9635;-9.5866;0.6418;-1.1357;1.6408;-0.567;0.2572;-0.4952;0.0721;0.0;-35.34;37.71;-14.17;188.17;77.48;-74.4;0.0;35.958347;-83.92445;771.08;NaN;;802.627;;0 / 1;115006;2022-10-28 14:18:00:058
0.641;-6.9586;-0.821;1.7182;-9.5874;1.1402;-1.7625;1.1166;2.0157;-0.0309;-0.0574;0.2977;0.0;-31.54;37.48;-11.19;160.61;77.86;-56.43;0.0;35.958347;-83.92445;771.08;NaN;;802.627;;0 / 1;115505;2022-10-28 14:18:00:557
-0.0458;-6.3377;2.3294;1.9583;-9.5962;-0.4983;-2.1804;3.1642;3.2385;-0.1603;0.3722;0.2588;0.0;-28.61;38.31;-6.51;232.17;74.78;-111.94;0.0;35.958347;-83.92445;771.08;NaN;;802.627;;0 / 1;116005;2022-10-28 14:18:01:057
2.9423;-12.4173;-0.2387;2.2321;-9.476;1.1804;4.76;-13.9458;-0.3076;-0.3396;1.0524;-1.0277;0.0;-20.08;40.5;-1.46;129.5;75.08;-62.13;0.0;35.958347;-83.92445;771.08;NaN;;802.627;;0 / 1;116505;2022-10-28 14:18:01:557
5.2349;-18.1594;-1.3137;2.8778;-9.374;0.1328;2.9642;-7.7596;2.2355;0.8364;-3.1575;-0.4789;0.0;-12.3;41.51;-1.54;232.34;76.49;-91.57;0.0;35.958347;-83.92445;771.08;NaN;;802.627;;0 / 1;117004;2022-10-28 14:18:02:056
2.4452;-13.9268;-0.1074;2.2186;-9.5518;0.1102;-0.3003;1.3439;-0.7845;0.2014;-0.3356;0.2637;0.0;-12.09;64.18;11.03;73.85;76.91;-87.16;0.0;35.958347;-83.92445;771.08;NaN;;802.627;;0 / 1;117505;2022-10-28 14:18:02:557
2.4652;-8.965;0.9769;-0.4305;-9.7965;0.1147;2.8118;1.0399;1.1644;-0.071;-0.5252;0.6854;0.0;-10.84;68.7;10.61;6.24;87.9;37.76;0.0;35.958347;-83.92445;771.08;NaN;;802.627;;0 / 1;118006;2022-10-28 14:18:03:058
0.2844;-9.3272;-1.6313;2.1494;-9.5676;-0.1053;-1.7988;0.3013;-1.6661;0.389;-0.4355;-0.1711;0.0;-10.86;73.84;16.89;74.02;77.32;-92.8;0.0;35.958347;-83.92445;771.08;NaN;;802.627;;0 / 1;118505;2022-10-28 14:18:03:557
0.8868;-9.2031;1.4127;1.5596;-9.6663;0.5491;-2.6494;0.6907;0.1293;0.4144;-1.756;0.8093;0.0;-29.61;67.11;14.78;120.67;77.42;-80.23;0.0;35.958347;-83.92445;771.08;NaN;;802.627;;0 / 0;119005;2022-10-28 14:18:04:057
-0.2112;-9.5489;3.026;1.5911;-9.6741;-0.2255;-0.4185;0.9968;1.8695;-0.1419;0.1302;-0.8246;0.0;-33.3;65.1;21.6;145.14;80.57;-98.07;0.0;35.958347;-83.92445;771.08;NaN;;802.627;;0 / 0;119504;2022-10-28 14:18:04:556
2.9294;-9.8468;-0.0763;1.9109;-9.6157;0.2375;1.1469;0.2645;0.3743;0.0196;0.549;0.0289;0.0;-37.16;53.85;30.28;127.81;79.83;-86.47;0.0;35.958347;-83.92445;771.08;NaN;;802.627;;0 / 0;120005;2022-10-28 14:18:05:057
1.8003;-9.4669;1.0732;1.1834;-9.7188;0.5617;0.6559;0.2343;0.2634;0.1812;-1.1933;0.6371;0.0;-34.8;50.96;42.02;97.19;82.32;-64.61;0.0;35.958347;-83.92445;771.08;NaN;;802.627;;0 / 0;120505;2022-10-28 14:18:05:557
0.8396;-8.4817;-1.3831;1.7452;-9.6501;0.0162;-1.0792;0.9969;-0.7079;0.4884;-0.8879;-0.0421;0.0;-22.65;56.53;57.39;106.92;79.63;-94.54;0.0;35.958347;-83.92445;771.08;NaN;;802.627;;0 / 0;121005;2022-10-28 14:18:06:057
0.4202;-10.445;0.5617;2.076;-9.5814;0.2389;-1.1415;-7.3169;1.6293;0.178;0.3628;-0.9443;0.0;-24.71;62.76;62.18;93.48;77.7;-83.44;0.0;35.958347;-83.92445;771.08;NaN;;802.627;;0 / 0;121505;2022-10-28 14:18:06:557
2.534;-16.1743;2.1703;2.1394;-9.5702;-0.0668;-0.5237;2.368;0.5388;-0.0087;-0.2295;-0.0134;0.0;-42.52;63.77;62.48;116.22;77.39;-91.79;0.0;35.958347;-83.92445;771.08;NaN;;802.627;;0 / 0;122005;2022-10-28 14:18:07:057
2.6581;-11.6865;-0.62;1.9263;-9.5838;0.7818;0.2676;1.4564;-1.8086;0.1965;-0.356;0.3845;0.0;-46.09;63.83;63.3;93.73;77.76;-67.91;0.0;35.958347;-83.92445;771.08;NaN;;802.627;;0 / 0;122504;2022-10-28 14:18:07:556
1.9714;-6.2677;1.6531;2.4509;-9.4951;0.0837;-0.7633;2.3683;2.2613;-0.2097;0.491;-0.1311;0.0;-42.22;67.48;65.25;108.54;76.1;-87.88;0.0;35.958347;-83.92445;771.08;NaN;;802.627;;0 / 0;123005;2022-10-28 14:18:08:057
1.9089;-7.1052;1.2467;3.2348;-9.2577;0.0397;-1.4762;2.3411;1.3294;0.2109;0.2466;-0.0288;0.0;-25.8;70.33;68.27;90.56;70.74;-89.3;0.0;35.958347;-83.92445;771.08;NaN;;802.627;;0 / 0;123505;2022-10-28 14:18:08:557
2.147;-7.363;4.183;3.3681;-9.1477;1.0703;-3.6773;0.3611;0.9541;-0.3971;-0.272;0.4649;0.0;-14.01;82.03;52.73;59.63;68.88;-72.37;0.0;35.958347;-83.92445;771.08;NaN;;802.627;;0 / 0;124005;2022-10-28 14:18:09:057
1.7928;-8.2167;-0.1466;2.7655;-9.3367;1.1615;0.1101;-0.3848;-2.5861;-0.2919;0.4807;-0.4752;0.0;-5.46;88.54;42.32;43.94;73.41;-61.11;0.0;35.958347;-83.92445;771.08;NaN;;802.627;;0 / 0;124505;2022-10-28 14:18:09:557
0.3652;-15.1146;3.7579;1.6438;-9.6417;0.711;-0.897;-8.4635;2.7218;-0.292;-0.0572;-0.5051;0.0;5.93;88.95;37.46;31.74;77.96;-55.57;0.0;35.958347;-83.92445;771.08;NaN;;802.627;;0 / 0;125005;2022-10-28 14:18:10:057
3.8994;-13.5395;1.4806;1.5266;-9.6827;0.2923;1.6243;-1.4119;0.9021;0.3443;-2.3805;-0.2988;0.0;6.3;80.79;42.99;57.05;80.88;-79.16;0.0;35.958347;-83.92445;771.08;NaN;;802.627;;0 / 0;125505;2022-10-28 14:18:10:557
4.1743;-11.2804;1.1985;1.2944;-9.6562;1.119;1.5747;1.654;0.5468;0.3929;0.1146;0.2246;0.0;9.11;66.81;37.24;32.45;80.79;-54.51;0.0;35.958347;-83.92445;771.08;NaN;;802.627;;0 / 0;126004;2022-10-28 14:18:11:056
4.5449;-19.4178;2.6707;2.1263;-9.57;0.2527;2.6585;-0.8116;1.7588;-0.8967;0.8151;-0.3795;0.0;6.38;54.47;32.74;42.25;78.16;-64.89;0.0;35.958347;-83.92445;771.08;NaN;;802.627;;0 / 0;126505;2022-10-28 14:18:11:557
1.9472;-13.1222;1.7782;2.9947;-9.2403;1.349;-0.0133;-6.3265;1.5585;0.3138;-0.9916;-0.5178;0.0;5.89;56.91;28.18;33.93;69.95;-67.22;0.0;35.958347;-83.92445;771.08;NaN;;802.627;;0 / 0;127005;2022-10-28 14:18:12:057
1.8867;-11.4754;1.4219;1.2726;-9.4476;2.3007;0.116;0.5572;-0.1201;0.2724;-0.2209;0.0978;0.0;16.89;55.24;23.72;355.66;74.45;-28.95;0.0;35.958347;-83.92445;771.08;NaN;;802.627;;0 / 0;127504;2022-10-28 14:18:12:556
3.003;-8.0079;2.1754;3.6873;-8.8795;1.9308;-1.7467;1.4604;0.8597;0.6344;-0.7102;-1.1206;0.0;23.63;55.44;23.38;11.24;69.83;-63.19;2.0;35.958347;-83.92445;771.08;NaN;;802.627;;0 / 0;128004;2022-10-28 14:18:13:056
2.6327;-7.5359;4.2909;4.5092;-7.426;4.5488;-1.6904;0.3311;-0.2535;0.8694;-1.1008;0.6731;0.0;19.56;67.8;18.08;358.65;49.22;-44.75;2.0;35.958347;-83.92445;771.08;NaN;;802.627;;0 / 0;128505;2022-10-28 14:18:13:557
4.4856;-6.0661;6.2243;5.7646;-6.245;4.8929;-0.9793;-0.1335;1.528;0.2038;0.5328;-1.0507;0.0;19.69;64.09;5.31;351.66;44.72;-51.3;0.0;35.958347;-83.92445;771.08;NaN;;802.627;;0 / 0;129005;2022-10-28 14:18:14:057
6.2417;-6.4089;5.6689;5.3012;-4.6588;6.809;-0.0426;0.742;-1.7252;-0.4281;0.8984;-0.1505;0.0;11.44;61.18;-5.4;347.94;28.36;-37.9;0.0;35.958347;-83.92445;771.08;NaN;;802.627;;0 / 0;129505;2022-10-28 14:18:14:557
4.9801;-7.3146;3.4286;5.9379;-4.3101;6.5066;-2.0974;0.0132;0.7563;1.3568;-1.4492;1.7534;0.0;12.77;62.93;-2.85;348.94;25.01;-41.76;0.0;35.958347;-83.92445;771.08;NaN;;802.627;;0 / 0;130005;2022-10-28 14:18:15:057
-0.5171;2.6351;3.6745;1.2284;6.0413;7.6265;-0.3429;-4.0531;-3.716;-1.1973;3.0454;-4.3515;3.5;8.03;50.31;-13.31;347.91;-38.03;-9.15;0.0;35.958347;-83.92445;771.08;NaN;;802.627;;0 / 0;130505;2022-10-28 14:18:15:557
-2.3901;5.7455;5.98;-2.0107;6.5614;7.0054;-0.6651;-1.0084;-0.6377;-0.2958;-0.6047;0.3218;30.9;9.94;53.59;-8.38;351.07;-42.0;16.01;2.0;35.958347;-83.92445;771.08;NaN;;802.627;;0 / 0;131005;2022-10-28 14:18:16:057
0.5405;5.5528;8.8176;-0.0691;5.3268;8.2335;0.0761;-0.4165;-0.5845;0.07;0.2976;0.0694;37.4;14.46;53.53;-6.79;344.18;-32.9;0.48;2.0;35.958347;-83.92445;771.08;NaN;;802.627;;0 / 0;131505;2022-10-28 14:18:16:557
-2.4018;6.5701;7.0089;-2.1733;6.0696;7.3896;-0.0282;0.1319;-0.4411;0.0877;0.343;-0.046;42.4;13.52;52.73;-7.74;346.61;-38.28;14.44;2.0;35.958347;-83.92445;771.08;NaN;;802.627;;0 / 0;132005;2022-10-28 14:18:17:057