sep=;
ACCELEROMETER X (m/s²);ACCELEROMETER Y (m/s²);ACCELEROMETER Z (m/s²);GRAVITY X (m/s²);GRAVITY Y (m/s²);GRAVITY Z (m/s²);LINEAR ACCELERATION X (m/s²);LINEAR ACCELERATION Y (m/s²);LINEAR ACCELERATION Z (m/s²);GYROSCOPE X (rad/s);GYROSCOPE Y (rad/s);GYROSCOPE Z (rad/s);LIGHT (lux);MAGNETIC FIELD X (μT);MAGNETIC FIELD Y (μT);MAGNETIC FIELD Z (μT);ORIENTATION Z (azimuth °);ORIENTATION X (pitch °);ORIENTATION Y (roll °);PROXIMITY (i);LOCATION Latitude : ;LOCATION Longitude : ;LOCATION Altitude ( m);LOCATION Altitude-google ( m);LOCATION Speed ( Kmh);LOCATION Accuracy ( m);LOCATION ORIENTATION (°);Satellites in range;Time since start in ms ;YYYY-MO-DD HH-MI-SS_SSS
-3.1496;3.2177;9.4615;-3.7114;3.5863;8.3387;0.7639;-0.2766;0.9757;0.5495;1.9413;1.1201;425.2;-17.31;-23.89;-22.29;127.31;-19.5;16.57;5.0;35.95832;-83.92454;691.11;NaN;0.0;35.33087;;0 / 17;5;2022-10-28 14:06:42:989
0.8273;1.8697;5.4894;2.9531;5.1746;7.7893;-2.2266;-2.0794;-0.641;1.0425;-5.0301;1.0914;644.3;-12.97;-25.18;-15.21;139.0;-29.33;-2.56;5.0;35.95832;-83.92454;691.11;NaN;0.0;35.33087;;0 / 17;505;2022-10-28 14:06:43:489
6.53;-6.3972;-0.7298;6.3515;-7.4661;-0.2918;4.3638;-0.2117;-5.0983;-0.0773;0.4159;-1.6011;137.1;-37.5;24.56;29.27;115.39;49.58;-92.63;5.0;35.95832;-83.92454;691.11;NaN;0.0;35.33087;;0 / 17;1004;2022-10-28 14:06:43:988
5.7565;-5.0728;-2.8041;5.8915;-6.916;-3.6918;-0.9774;0.676;1.9924;-0.2924;-1.1114;3.9005;1.2;-34.61;42.9;40.29;109.46;44.85;-122.07;0.0;35.95832;-83.92454;691.11;NaN;0.0;35.33087;;10 / 17;1504;2022-10-28 14:06:44:488
4.0696;-7.0522;-2.6498;5.5103;-7.6836;-2.6018;-1.0414;0.6787;0.0154;0.9515;-0.8039;-1.1783;4.4;-27.39;36.38;47.57;120.64;53.72;-119.7;0.0;35.95832;-83.92454;691.11;NaN;0.0;35.33087;;10 / 17;2004;2022-10-28 14:06:44:988
6.4226;-3.5596;-2.7568;7.1717;-6.2843;-2.2902;-1.0833;1.7185;0.3469;1.1872;-0.4104;-0.2413;0.8;-31.05;29.06;45.06;100.35;39.45;-109.78;0.0;35.95832;-83.92454;691.11;NaN;0.0;35.33087;;10 / 17;2504;2022-10-28 14:06:45:488
4.3143;-4.4776;-1.3914;7.0572;-5.7614;-3.6295;-3.4035;1.9283;2.9879;0.8415;-0.3518;0.1481;1.0;-19.52;29.18;46.33;88.81;35.98;-117.22;0.0;35.95832;-83.92454;691.11;NaN;0.0;35.33087;;10 / 17;3004;2022-10-28 14:06:45:988
10.1336;-7.1824;0.5596;7.3751;-6.1056;-2.1215;2.399;-2.766;1.3439;-0.4293;2.2523;0.0799;2.2;-10.91;38.14;43.44;67.63;38.51;-106.05;0.0;35.95832;-83.92454;691.11;NaN;0.0;35.33087;;10 / 17;3505;2022-10-28 14:06:46:489
8.2439;-6.6509;-0.993;7.2781;-6.2664;-1.9828;1.831;-0.7478;0.6474;0.577;-1.2402;-0.2766;2.2;-12.88;39.54;46.48;70.08;40.61;-103.61;0.0;35.95832;-83.92454;691.11;NaN;0.0;35.33087;;10 / 17;4004;2022-10-28 14:06:46:988
7.6436;-7.3768;-2.1811;7.4124;-5.4476;-3.3987;-1.161;1.9284;-0.8982;0.702;-0.4943;-0.6844;0.2;-7.31;46.61;55.56;65.94;34.96;-114.91;0.0;35.95832;-83.92454;691.11;NaN;0.0;35.33087;;10 / 17;4505;2022-10-28 14:06:47:489
5.6839;-5.6471;-3.652;7.2759;-5.9085;-2.8847;-1.1683;0.4826;-0.9284;-0.2643;-0.17;-0.0017;1.3;-0.02;58.67;55.82;56.35;37.05;-111.63;0.0;35.95832;-83.92454;691.11;NaN;0.0;35.33087;;10 / 17;5004;2022-10-28 14:06:47:988
4.1551;-5.479;-1.1462;7.3056;-5.5702;-3.4309;1.0393;0.0825;-0.8279;-0.1705;-0.1777;-0.0801;0.2;3.79;63.88;53.61;50.5;34.61;-115.16;0.0;35.95832;-83.92454;691.11;NaN;0.0;35.33087;;10 / 17;5504;2022-10-28 14:06:48:488
9.894;-9.1044;-3.0401;7.3383;-5.9311;-2.6723;2.2431;-3.2173;-0.4921;0.5211;0.3873;-0.1374;0.8;4.82;70.97;37.65;36.04;36.85;-112.4;0.0;35.95832;-83.92454;691.11;NaN;0.0;35.33087;;10 / 17;6005;2022-10-28 14:06:48:989
8.053;-5.1957;-3.0185;7.138;-6.0167;-3.003;1.1128;0.5141;0.2127;-0.5902;0.699;0.4387;0.4;-2.96;73.01;28.48;26.28;37.34;-113.47;0.0;35.95832;-83.92454;691.11;NaN;0.0;35.33087;;10 / 17;6505;2022-10-28 14:06:49:489
5.741;-4.8742;-2.3198;7.0828;-5.8517;-3.4295;-1.8973;1.4243;1.2655;0.6641;-0.1702;-0.0939;0.4;-7.07;60.13;24.98;27.18;36.63;-115.84;0.0;35.95832;-83.92454;691.11;NaN;0.0;35.33087;;10 / 17;7004;2022-10-28 14:06:49:988
5.985;-4.5395;-0.5486;7.2135;-6.2166;-2.343;0.893;-0.5221;1.146;-0.2396;0.6144;0.3394;2.4;-12.52;47.98;18.45;26.96;39.34;-107.99;0.0;35.95832;-83.92454;691.11;NaN;0.0;35.33087;;10 / 17;7504;2022-10-28 14:06:50:488
8.9453;-10.4901;-3.7092;7.329;-6.0726;-2.3623;3.5997;-3.1755;-0.056;-1.158;-0.1824;0.3566;2.4;-12.94;36.32;18.13;37.41;38.26;-107.87;0.0;35.95832;-83.92454;691.11;NaN;0.0;35.33087;;10 / 17;8005;2022-10-28 14:06:50:989
10.0573;-8.0348;-1.5927;7.5798;-5.8201;-2.2009;5.9605;-5.7436;-1.3252;0.6402;0.2725;-0.5575;2.4;-9.17;32.51;23.03;48.79;37.47;-109.45;0.0;35.95832;-83.92454;691.11;NaN;0.0;35.33087;;10 / 17;8504;2022-10-28 14:06:51:488
11.7132;-7.5763;-3.8073;7.4301;-5.6146;-3.0724;0.7584;0.5688;0.4115;-0.5266;0.6936;-0.608;2.4;-7.22;39.69;25.33;40.85;34.93;-112.47;0.0;35.95832;-83.92454;691.11;NaN;0.0;35.33087;;10 / 17;9005;2022-10-28 14:06:51:989
5.1511;-4.0657;-1.6077;7.3019;-5.8661;-2.9055;-0.7633;0.8939;-0.3252;0.478;-0.2806;-0.2014;2.4;-12.02;48.94;26.1;36.3;36.74;-111.7;0.0;35.95832;-83.92454;691.11;NaN;0.0;35.33087;;10 / 17;9504;2022-10-28 14:06:52:488
6.5444;-5.5513;-0.5085;7.6545;-5.6159;-2.4579;-0.2366;-0.7174;1.7066;-0.5559;0.7994;0.3018;3.3;-18.21;60.21;13.58;11.97;34.94;-107.8;0.0;35.95832;-83.92454;691.11;NaN;0.0;35.33087;;10 / 17;10005;2022-10-28 14:06:52:989
14.3728;-9.9682;-4.8823;7.4178;-5.3543;-3.5324;4.6328;-0.7842;-0.8042;-0.6429;0.124;-0.3913;3.3;-18.09;61.37;21.58;19.65;35.82;-115.05;0.0;35.95832;-83.92454;691.11;NaN;0.0;35.33087;;8 / 17;10505;2022-10-28 14:06:53:489
6.6787;-4.4964;-3.2025;7.3099;-5.9075;-2.7995;-0.8429;2.1275;-0.0047;0.5885;0.0341;-0.0894;2.4;-23.17;55.33;26.96;34.04;37.04;-110.96;0.0;35.95832;-83.92454;691.11;NaN;0.0;35.33087;;8 / 17;11005;2022-10-28 14:06:53:989
7.5512;-3.4499;-4.2577;7.4674;-5.7071;-2.7996;0.3224;1.9205;-1.369;-0.6565;0.4348;0.2043;2.4;-24.58;56.16;24.88;28.63;35.59;-110.55;0.0;35.95832;-83.92454;691.11;NaN;0.0;35.33087;;8 / 17;11504;2022-10-28 14:06:54:488
5.7918;-6.4974;1.4369;7.9619;-5.1449;-2.5118;1.5095;-2.5797;0.8987;2.7506;-0.6105;0.0192;2.2;-24.96;59.23;29.33;31.28;31.64;-107.51;0.0;35.95832;-83.92454;691.11;NaN;0.0;35.33087;;8 / 17;12005;2022-10-28 14:06:54:989
7.2132;-5.7769;-0.2435;7.7798;-5.0301;-3.216;-1.2126;-0.3945;2.6951;0.4471;-0.1812;-0.2221;4.0;-32.32;60.92;9.51;354.84;30.44;-112.87;0.0;35.95832;-83.92454;691.11;NaN;0.0;35.33087;;8 / 17;12504;2022-10-28 14:06:55:488
9.8845;-4.9729;-3.4334;7.3649;-6.1627;-1.9874;1.9836;-0.1824;-0.2478;-1.6249;0.3323;0.3515;1.3;-37.28;49.54;3.64;339.9;38.93;-105.1;0.0;35.95832;-83.92454;691.11;NaN;0.0;35.33087;;8 / 17;13005;2022-10-28 14:06:55:989
7.049;-4.0762;-2.7553;7.5529;-5.2383;-3.4183;-1.92;0.5618;1.0444;-0.218;0.3464;0.1629;0.8;-32.1;42.58;5.98;338.34;32.29;-114.35;0.0;35.95832;-83.92454;691.11;NaN;0.0;35.33087;;8 / 17;13504;2022-10-28 14:06:56:488
6.9538;-5.5241;-0.5919;7.3969;-5.4842;-3.3734;-0.3463;-0.6158;2.8486;1.331;-0.7872;0.0066;2.4;-31.07;30.66;0.21;307.66;34.0;-114.52;0.0;35.95832;-83.92454;691.11;NaN;0.0;35.33087;;8 / 17;14005;2022-10-28 14:06:56:989
6.5462;-6.1454;-0.6206;7.2941;-5.9425;-2.7665;2.2882;-1.0513;1.6201;-2.0269;-0.6076;0.3635;1.8;-29.55;16.63;-1.22;241.43;37.68;-103.2;0.0;35.95832;-83.92454;691.11;NaN;0.0;35.33087;;8 / 17;14504;2022-10-28 14:06:57:488
6.4181;-4.3406;-6.2785;7.2196;-5.5337;-3.6641;-1.0202;0.1927;-3.1384;-0.409;0.118;-0.3405;1.1;-22.59;15.19;-3.82;277.47;34.35;-116.91;0.0;35.95832;-83.92454;691.11;NaN;0.0;35.33087;;8 / 17;15004;2022-10-28 14:06:57:988
6.6114;-6.1313;-2.333;7.0723;-6.3023;-2.5365;0.0803;-0.0518;1.0169;-0.159;0.3142;0.3596;1.9;-24.06;15.0;-5.94;264.98;38.97;-110.09;0.0;35.95832;-83.92454;691.11;NaN;0.0;35.33087;;8 / 17;15505;2022-10-28 14:06:58:489
6.5985;-9.786;-5.811;7.3516;-5.8746;-2.7592;5.9588;-5.7497;-2.9222;-0.7503;0.6773;-0.0038;1.2;-19.59;22.26;-5.06;302.47;36.8;-110.57;0.0;35.95832;-83.92454;691.11;NaN;0.0;35.33087;;8 / 17;16005;2022-10-28 14:06:58:989
11.1778;-11.5514;-5.4191;7.4557;-6.1175;-1.7775;0.8357;-1.2117;-3.0936;-0.3952;1.5985;0.1097;1.1;-14.68;29.76;-4.33;333.72;38.59;-103.41;0.0;35.95832;-83.92454;691.11;NaN;0.0;35.33087;;8 / 17;16504;2022-10-28 14:06:59:488
7.0735;-4.7088;-2.1604;7.1404;-6.2096;-2.5742;-0.3062;1.3478;0.2524;-0.3338;-0.1114;0.0263;2.2;-14.55;28.91;-10.42;317.25;39.33;-108.9;0.0;35.95832;-83.92454;691.11;NaN;0.0;35.33087;;8 / 17;17004;2022-10-28 14:06:59:988
5.8451;-4.1082;-3.5148;7.2299;-5.9001;-3.0146;-0.1204;0.6926;-1.5353;-0.2025;0.4064;-0.1206;1.1;-22.71;22.05;-12.71;290.26;37.43;-113.37;0.0;35.95832;-83.92454;691.11;NaN;0.0;35.33087;;8 / 17;17505;2022-10-28 14:07:00:489
5.0734;-3.4014;-1.1569;6.9076;-6.3893;-2.7625;-1.1106;2.4056;1.4215;0.5027;-0.1681;0.1512;1.2;-23.25;13.52;-21.19;273.65;40.66;-111.8;0.0;35.95832;-83.92454;691.11;NaN;0.0;35.33087;;8 / 17;18004;2022-10-28 14:07:00:988
4.2832;-3.6371;-0.8698;7.7493;-5.4438;-2.5464;-2.1774;-0.834;0.6868;0.5225;-0.8627;0.0396;2.6;-17.14;14.21;-24.67;283.57;33.72;-108.19;0.0;35.95832;-83.92454;691.11;NaN;0.0;35.33087;;8 / 17;18505;2022-10-28 14:07:01:489
9.0939;-8.6548;-0.3359;7.3298;-6.3279;-1.55;4.2202;-4.2509;1.0021;0.1511;-0.4155;5.0E-4;0.8;-10.58;15.94;-28.37;287.75;39.77;-103.19;0.0;35.95832;-83.92454;691.11;NaN;0.0;35.33087;;8 / 17;19004;2022-10-28 14:07:01:988
8.1823;-5.4547;-1.9122;6.8851;-6.1909;-3.2309;-0.5463;2.0771;1.7742;0.7163;-1.2167;-0.0999;2.6;-5.38;11.59;-33.32;294.1;38.51;-112.77;0.0;35.95832;-83.92454;691.11;NaN;0.0;35.33087;;5 / 13;19505;2022-10-28 14:07:02:489
6.0434;-3.3503;-3.9784;7.2376;-6.0189;-2.7498;-1.0768;2.1308;-1.0287;-0.6426;0.9095;0.2207;0.9;-3.82;3.58;-17.66;284.7;37.86;-110.8;0.0;35.95832;-83.92454;691.11;NaN;0.0;35.33087;;5 / 13;20004;2022-10-28 14:07:02:988
9.2701;-4.1925;-2.9865;7.1185;-6.0091;-3.064;-1.1973;2.4806;0.2927;0.1823;0.6326;-0.0979;1.7;-3.36;1.61;-0.54;273.65;37.79;-113.29;0.0;35.95832;-83.92454;691.11;NaN;0.0;35.33087;;0 / 13;20505;2022-10-28 14:07:03:489
8.8155;-5.0886;-3.8228;7.0559;-6.0916;-3.0458;1.5222;1.2059;-1.7113;0.0489;0.1739;-0.3507;2.9;-12.64;1.91;23.38;125.79;39.37;-112.67;0.0;35.95832;-83.92454;691.11;NaN;0.0;35.33087;;0 / 13;21004;2022-10-28 14:07:03:988
6.428;-6.6054;-1.1985;7.0454;-6.699;-1.2869;-0.2298;-0.5035;0.8192;0.5038;-0.6901;-0.0357;4.2;-24.41;16.71;26.53;106.69;42.85;-99.82;0.0;35.95832;-83.92454;691.11;NaN;0.0;35.33087;;0 / 13;21505;2022-10-28 14:07:04:489
5.7467;-8.5531;-0.0326;7.5575;-5.8621;-2.1657;-1.8517;-0.4831;1.084;1.4468;-0.7923;-0.4565;6.0;-31.18;25.29;27.3;97.26;36.71;-105.99;0.0;35.95832;-83.92454;691.11;NaN;0.0;35.33087;;0 / 13;22005;2022-10-28 14:07:04:989
6.5874;-7.4396;-0.7196;7.7565;-5.4912;-2.4196;1.984;-2.821;0.3458;1.4347;-1.1298;-0.4384;10.8;-34.95;22.44;38.21;104.77;34.05;-107.33;0.0;35.95832;-83.92454;691.11;NaN;0.0;35.33087;;0 / 13;22505;2022-10-28 14:07:05:489
6.7642;-8.3498;-3.6577;6.7781;-7.0286;-0.9093;0.2269;-1.2744;-0.6016;1.5002;-0.9617;0.0116;14.4;-25.26;44.59;40.8;75.3;44.96;-99.87;0.0;35.95832;-83.92454;691.11;NaN;0.0;35.33087;;0 / 13;23004;2022-10-28 14:07:05:988
4.0382;-6.8363;-2.7628;6.6278;-6.9161;-2.0998;-2.7449;-2.331;-1.2427;-0.0205;-1.1978;-0.1339;12.8;-21.13;47.66;36.41;65.82;45.12;-103.01;0.0;35.95832;-83.92454;691.11;NaN;0.0;35.33087;;0 / 13;23505;2022-10-28 14:07:06:489
10.8174;-13.8431;-4.1306;6.9726;-6.4345;-2.4801;-1.4357;-3.0624;-3.8101;0.2778;1.2396;-0.2693;51.0;-25.95;39.49;28.61;69.44;41.01;-109.58;0.0;35.95832;-83.92454;691.11;NaN;0.0;35.33087;;0 / 13;24005;2022-10-28 14:07:06:989
10.372;-6.9015;-2.217;7.0941;-5.8549;-3.4008;0.2498;1.5594;1.0716;-0.5646;0.4242;0.155;7.0;-29.57;33.17;16.31;13.26;36.66;-115.61;0.0;35.95832;-83.92454;691.11;NaN;0.0;35.33087;;0 / 13;24504;2022-10-28 14:07:07:488
5.5863;-4.5239;-2.8851;7.1206;-6.1181;-2.8349;-1.2052;1.956;-0.1292;0.0762;-0.1084;0.0689;10.3;-30.38;28.99;8.36;313.11;38.6;-111.71;0.0;35.95832;-83.92454;691.11;NaN;0.0;35.33087;;0 / 13;25005;2022-10-28 14:07:07:989
4.765;-4.1085;-0.8536;7.3629;-5.6912;-3.0932;-2.4777;1.7487;2.1682;0.9116;-1.0006;-0.2076;3.0;-27.62;32.12;4.78;331.01;34.83;-111.77;0.0;35.95832;-83.92454;691.11;NaN;0.0;35.33087;;0 / 13;25505;2022-10-28 14:07:08:489
4.9223;-4.5078;-0.5587;7.9097;-4.9905;-2.9499;-1.9557;-0.1521;2.0316;1.0894;-1.1644;0.2108;6.6;-28.35;31.26;9.62;357.95;30.59;-110.45;0.0;35.95832;-83.92454;691.11;NaN;0.0;35.33087;;0 / 13;26005;2022-10-28 14:07:08:989
9.5318;-8.1817;-2.5316;7.3513;-6.0993;-2.2196;1.3041;-2.1348;-0.7269;-0.477;0.6195;-0.0281;7.3;-23.66;32.79;14.59;39.97;38.46;-106.8;0.0;35.95832;-83.92454;691.11;NaN;0.0;35.33087;;0 / 13;26504;2022-10-28 14:07:09:488
6.5919;-4.7372;-2.6453;7.2055;-5.9354;-3.0036;-0.9053;1.3829;1.015;-0.9454;1.3862;0.5898;1.2;-18.64;33.73;18.49;37.2;37.25;-112.63;0.0;35.95832;-83.92454;691.11;NaN;0.0;35.33087;;0 / 13;27005;2022-10-28 14:07:09:989
5.6426;-4.998;-2.2271;6.9377;-6.4682;-2.4902;-2.1732;2.3611;-0.4962;0.4087;-0.1968;-0.064;1.8;-14.55;36.86;22.39;48.76;41.23;-110.3;0.0;35.95832;-83.92454;691.11;NaN;0.0;35.33087;;0 / 13;27504;2022-10-28 14:07:10:488
4.7865;-4.1327;-1.7761;7.4543;-5.7031;-2.8423;-3.066;1.6292;1.1447;-0.1032;-0.0629;-0.1122;0.4;-10.61;40.18;20.14;33.37;35.56;-110.87;0.0;35.95832;-83.92454;691.11;NaN;0.0;35.33087;;0 / 13;28005;2022-10-28 14:07:10:989
5.7622;-3.8713;-0.7717;7.7689;-5.4605;-2.449;-2.1925;1.8014;1.8399;0.6838;-1.3559;0.2782;0.4;-10.39;39.19;26.59;45.23;33.84;-107.5;0.0;35.95832;-83.92454;691.11;NaN;0.0;35.33087;;1 / 8;28505;2022-10-28 14:07:11:489
13.7614;-10.6989;-1.5191;7.0358;-6.5465;-1.9523;3.1779;-2.655;-1.7454;1.4725;-0.9446;-0.5495;0.2;-6.81;38.01;34.24;60.16;41.88;-105.51;0.0;35.95832;-83.92454;691.11;NaN;0.0;35.33087;;1 / 8;29004;2022-10-28 14:07:11:988
6.6583;-4.2742;-2.0892;7.0146;-6.0946;-3.1341;-0.7285;1.6884;1.2418;-1.57;1.042;0.5715;1.0;-2.36;42.08;27.19;43.94;38.75;-113.56;0.0;35.95832;-83.92454;691.11;NaN;0.0;35.33087;;0 / 8;29505;2022-10-28 14:07:12:489
7.232;-5.7176;-3.7301;7.8126;-5.2752;-2.7029;-0.6814;-0.5077;-0.0569;0.5653;-0.7355;-0.0018;0.8;-1.82;45.02;40.26;51.19;32.54;-109.08;0.0;35.95832;-83.92454;691.11;NaN;0.0;35.33087;;0 / 8;30004;2022-10-28 14:07:12:988
4.882;-5.1428;-1.1192;7.4604;-5.4241;-3.3305;-2.2855;1.0422;1.838;0.6442;-0.8426;0.0224;0.0;-5.32;45.6;44.93;55.62;32.62;-111.14;0.0;35.95832;-83.92454;691.11;NaN;0.0;35.33087;;0 / 8;30505;2022-10-28 14:07:13:489
5.2753;-7.9199;-0.7164;7.8222;-5.0762;-3.0357;-1.0937;-3.278;1.2083;1.9371;-0.6266;-1.0849;1.5;-4.61;47.48;36.19;45.63;31.17;-111.21;0.0;35.95832;-83.92454;691.11;NaN;0.0;35.33087;;0 / 8;31004;2022-10-28 14:07:13:988
5.2379;-3.3906;-0.9012;7.8238;-5.4027;-2.402;-1.9595;1.6885;1.1655;0.5645;-0.1605;-0.0832;1.3;-14.66;52.84;18.49;20.48;33.13;-107.84;0.0;35.95832;-83.92454;691.11;NaN;0.0;35.33087;;0 / 8;31505;2022-10-28 14:07:14:489
7.9155;-4.1225;-1.8173;8.1693;-4.8674;-2.3961;-0.7771;0.5381;0.9518;-0.1299;-0.2502;-0.2892;1.5;-26.04;47.31;3.58;354.18;30.13;-104.87;0.0;35.95832;-83.92454;691.11;NaN;0.0;35.33087;;0 / 8;32006;2022-10-28 14:07:14:990
3.7274;-4.6771;-4.9675;8.6647;-3.8373;-2.5238;-1.1195;-1.3586;0.1054;2.1359;-0.3139;-1.1802;4.4;-38.49;40.58;12.88;359.4;24.92;-109.19;0.0;35.95832;-83.92454;691.11;NaN;0.0;35.33087;;0 / 8;32504;2022-10-28 14:07:15:488
7.9627;-3.0577;-3.0846;7.9168;-4.9746;-2.9579;0.0316;2.3647;-0.2253;-0.2174;-0.2102;0.1084;2.1;-42.66;34.26;16.76;8.51;30.48;-110.49;0.0;35.95832;-83.92454;691.11;NaN;0.0;35.33087;;0 / 8;33005;2022-10-28 14:07:15:989
8.1332;-5.2923;-2.8941;7.3282;-5.7312;-3.1019;2.2819;0.4164;-0.2685;-1.0E-4;-0.056;0.5525;2.1;-45.09;30.64;18.36;196.96;35.76;-112.94;0.0;35.95832;-83.92454;691.11;NaN;0.0;35.33087;;0 / 8;33505;2022-10-28 14:07:16:489
5.4963;-8.0743;-4.5245;7.8642;-5.3891;-2.2983;-2.7509;-3.2523;-1.5484;1.4341;-1.0339;-0.7812;2.4;-49.26;25.71;19.2;153.33;33.11;-107.43;0.0;35.95832;-83.92454;691.11;NaN;0.0;35.33087;;0 / 8;34004;2022-10-28 14:07:16:988
6.2919;-5.2011;-2.6533;7.811;-5.367;-2.5205;-3.4293;0.1119;-1.6333;1.0957;-0.8649;-0.2057;216.1;-51.47;19.78;22.07;154.61;32.26;-107.17;0.0;35.95832;-83.92454;691.11;NaN;0.0;35.33087;;0 / 8;34504;2022-10-28 14:07:17:488
7.1154;-2.3937;-1.9071;7.9789;-4.3277;-3.7119;-0.1088;1.9218;1.0133;0.7617;-0.3589;-0.2207;16.7;-49.65;15.53;21.47;192.1;26.19;-114.95;0.0;35.95832;-83.92454;691.11;NaN;0.0;35.33087;;0 / 8;35004;2022-10-28 14:07:17:988
5.5828;-4.6104;-4.3436;8.5008;-3.7728;-3.1102;-2.3713;1.367;2.101;1.728;-0.752;0.0588;2.7;-48.0;8.14;16.11;186.93;22.63;-110.1;0.0;35.95832;-83.92454;691.11;NaN;0.0;35.33087;;0 / 8;35504;2022-10-28 14:07:18:488
14.6892;-7.7761;-2.9324;8.2128;-4.5768;-2.7881;7.248;-4.131;0.9709;-0.36;-0.3124;-0.1674;2.7;-45.88;9.45;13.86;182.06;28.34;-107.57;0.0;35.95832;-83.92454;691.11;NaN;0.0;35.33087;;0 / 8;36004;2022-10-28 14:07:18:988
7.1091;-4.0143;-1.4225;8.2292;-4.5419;-2.7966;-0.5232;1.7223;-0.0703;-0.8185;0.2524;-0.1118;2.2;-41.72;10.31;12.79;184.04;29.07;-108.36;0.0;35.95832;-83.92454;691.11;NaN;0.0;35.33087;;0 / 8;36505;2022-10-28 14:07:19:489
6.7011;-3.5486;-1.4369;8.1502;-4.9955;-2.1887;-0.7569;0.7398;-0.1051;-0.2679;-0.0157;0.2196;3.8;-39.79;16.35;8.63;193.33;30.62;-105.03;0.0;35.95832;-83.92454;691.11;NaN;0.0;35.33087;;0 / 8;37004;2022-10-28 14:07:19:988
6.1035;-3.8177;-2.9877;8.3558;-4.2633;-2.8593;-1.1969;-0.8198;1.3567;0.0583;-0.2587;0.3645;0.7;-38.81;20.33;11.49;280.75;25.77;-108.89;0.0;35.95832;-83.92454;691.11;NaN;0.0;35.33087;;3 / 6;37505;2022-10-28 14:07:20:489
8.0689;-3.7783;-1.3887;8.4883;-4.0086;-2.8374;-0.3983;-0.2608;1.533;-0.5222;0.0749;0.6651;1.5;-39.69;22.07;13.44;14.68;22.8;-106.58;0.0;35.95832;-83.92454;691.11;NaN;0.0;35.33087;;3 / 6;38004;2022-10-28 14:07:20:988
10.5284;-6.4038;-3.9517;8.3431;-4.3824;-2.7125;2.6551;-1.964;-1.4867;-0.6422;0.1272;-0.4951;1.7;-41.87;24.39;11.03;273.06;28.83;-107.65;0.0;35.95832;-83.92454;691.11;NaN;0.0;35.33087;;0 / 6;38505;2022-10-28 14:07:21:489
8.7015;-4.4285;-1.7088;7.6373;-5.5857;-2.5771;-0.2981;2.1475;1.0369;0.7504;-0.0727;-0.2535;1.7;-42.47;26.72;12.58;201.35;34.72;-108.65;0.0;35.95832;-83.92454;691.11;NaN;0.0;35.33087;;0 / 6;39007;2022-10-28 14:07:21:991
5.5962;-3.6245;-2.3524;7.9219;-5.2158;-2.4918;-1.4343;0.2046;-1.2715;-0.24;0.1526;0.482;1.9;-43.69;24.08;17.85;140.84;32.13;-107.46;0.0;35.95832;-83.92454;691.11;NaN;0.0;35.33087;;0 / 6;39505;2022-10-28 14:07:22:489
6.5773;-2.9243;-2.397;7.4734;-5.5488;-3.0869;-0.9964;2.4818;0.6913;-0.0762;-0.2288;-0.0284;1.9;-40.69;23.36;30.51;123.94;34.62;-111.63;0.0;35.95832;-83.92454;691.11;NaN;0.0;35.33087;;0 / 6;40004;2022-10-28 14:07:22:988
6.0368;-3.4624;-1.2162;8.4743;-3.8458;-3.0929;-1.4545;-0.9409;-3.417;3.1894;-2.6398;-0.9409;2.5;-36.45;24.19;42.96;82.79;23.0;-105.67;0.0;35.95832;-83.92454;691.11;NaN;0.0;35.33087;;0 / 6;40504;2022-10-28 14:07:23:488
6.7247;-6.2504;-2.0073;8.3528;-4.5187;-2.4459;0.8886;-2.2523;-0.2131;1.2185;-1.1681;-0.412;2.1;-39.17;48.09;37.07;50.05;27.44;-106.32;0.0;35.95832;-83.92454;691.11;NaN;0.0;35.33087;;0 / 6;41005;2022-10-28 14:07:23:989
8.4727;-5.141;-3.2889;7.5652;-5.6627;-2.6215;0.567;0.5756;1.0249;1.8974;-0.9631;-0.0439;9.9;-58.14;42.43;27.02;110.66;35.27;-109.11;0.0;35.95832;-83.92454;691.11;NaN;0.0;35.33087;;0 / 6;41504;2022-10-28 14:07:24:488
6.5426;-3.9111;-2.2301;8.5658;-4.2686;-2.1392;-2.9269;-0.5716;0.444;2.3885;-2.0213;-0.3467;7.8;-62.31;26.49;39.0;106.8;25.8;-104.02;0.0;35.95832;-83.92454;691.11;NaN;0.0;35.33087;;0 / 6;42004;2022-10-28 14:07:24:988
6.7693;-4.034;-1.3552;8.1639;-4.8033;-2.5395;-0.4893;-0.1216;0.8644;1.1824;-0.6005;-0.0053;10.8;-54.32;19.46;53.19;113.55;27.98;-107.62;0.0;35.95832;-83.92454;691.11;NaN;0.0;35.33087;;0 / 8;42505;2022-10-28 14:07:25:489
7.794;-6.0769;-1.2954;8.5298;-3.9926;-2.7334;-1.9764;-1.3143;0.733;-0.0885;1.7729;-0.3756;21.3;-47.06;30.94;47.81;82.5;24.02;-107.77;0.0;35.95832;-83.92454;691.11;NaN;0.0;35.33087;;0 / 8;43004;2022-10-28 14:07:25:988
11.5065;-6.1789;-2.3686;8.3275;-4.8329;-1.8619;1.6651;-0.4357;-0.6525;0.0809;0.3909;-0.2083;21.3;-49.63;31.22;35.25;92.06;29.53;-102.6;0.0;35.95832;-83.92454;691.11;NaN;0.0;35.33087;;0 / 8;43505;2022-10-28 14:07:26:489
8.916;-4.6938;-1.5843;8.1003;-4.6091;-3.0515;-1.4915;0.8509;1.6839;-0.4216;0.5146;0.8172;6.5;-49.8;24.36;27.88;122.42;28.03;-110.64;0.0;35.95832;-83.92454;691.11;NaN;0.0;35.33087;;0 / 8;44004;2022-10-28 14:07:26:988
8.3166;-5.1182;-1.9516;8.3718;-4.7548;-1.8644;-0.3341;0.2607;-0.1589;0.1209;0.6577;-0.4026;3.8;-45.49;22.29;26.74;115.92;30.42;-105.79;0.0;35.95832;-83.92454;691.11;NaN;0.0;35.33087;;0 / 8;44505;2022-10-28 14:07:27:489
5.3656;-2.9791;-1.1515;8.2264;-4.4162;-2.9989;-2.9269;1.5787;1.9564;-0.0945;-0.2617;-0.4437;8.8;-41.61;20.42;30.06;108.21;26.76;-110.03;0.0;35.95832;-83.92454;691.11;NaN;0.0;35.33087;;0 / 8;45004;2022-10-28 14:07:27:988
5.2561;-2.5101;-1.6131;8.2499;-4.938;-1.9303;-0.7267;0.6019;0.8532;0.3792;-1.1501;0.2029;18.5;-36.21;20.14;32.98;99.85;30.23;-103.17;0.0;35.95832;-83.92454;691.11;NaN;0.0;35.33087;;0 / 8;45505;2022-10-28 14:07:28:489
11.8038;-6.481;-0.5166;8.6117;-4.6023;-0.9101;5.7403;-3.23;-0.003;0.5519;-1.3685;-0.8213;1.8;-32.21;28.11;32.33;73.9;27.99;-96.03;0.0;35.95832;-83.92454;691.11;NaN;0.0;35.33087;;0 / 8;46005;2022-10-28 14:07:28:989
15.181;-7.7432;-1.3316;8.3449;-4.5927;-2.3325;9.0785;-4.4116;0.6752;-1.6198;-0.1222;1.238;1.9;-32.98;28.56;34.78;71.35;25.41;-102.63;0.0;35.95832;-83.92454;691.11;NaN;0.0;35.33087;;3 / 6;46504;2022-10-28 14:07:29:488
9.7708;-5.8415;-0.9075;7.865;-5.7493;-1.1216;0.4217;0.5736;-0.3833;0.6622;-1.0062;-0.3239;2.5;-32.06;31.18;39.71;84.74;35.89;-98.12;0.0;35.95832;-83.92454;691.11;NaN;0.0;35.33087;;3 / 6;47004;2022-10-28 14:07:29:988
6.2198;-2.7742;-1.9104;8.2125;-4.2737;-3.2342;-0.9877;0.7482;1.7957;-0.0505;-0.6382;0.1847;1.7;-25.86;43.89;42.54;54.06;25.46;-109.78;2.0;35.95832;-83.92454;691.11;NaN;0.0;35.33087;;3 / 6;47505;2022-10-28 14:07:30:489
6.2707;-0.9894;-2.9154;8.7286;-3.8017;-2.3513;-2.2744;2.1294;-0.4403;-1.3358;0.5386;0.8682;2.4;-32.55;33.23;50.29;71.83;22.81;-105.08;0.0;35.95832;-83.92454;691.11;NaN;0.0;35.33087;;3 / 6;48004;2022-10-28 14:07:30:988
7.9992;-2.8702;-2.6934;7.9128;-4.9996;-2.9261;-1.4212;1.6206;0.5675;-0.4361;0.8005;0.9809;1.1;-32.78;31.78;54.47;83.43;28.08;-111.83;0.0;35.95832;-83.92454;691.11;NaN;0.0;35.33087;;3 / 6;48505;2022-10-28 14:07:31:489
10.049;-8.9393;-7.9633;8.6369;-4.2704;-1.8274;5.1635;-7.0094;-5.2908;-1.2574;2.4175;-0.8434;1.8;-24.75;40.65;54.6;73.24;30.97;-112.6;0.0;35.95832;-83.92454;691.11;NaN;0.0;35.33087;;3 / 6;49004;2022-10-28 14:07:31:988
10.9783;-9.2803;-2.6279;7.5531;-5.561;-2.8629;-0.5289;0.7387;-0.1897;0.5508;-0.4979;0.1219;0.9;-22.97;42.96;46.69;67.38;33.37;-110.84;0.0;35.95832;-83.92454;691.11;NaN;0.0;35.33087;;3 / 6;49505;2022-10-28 14:07:32:489
6.8701;-5.1081;-2.5322;7.2851;-6.1341;-2.339;0.6152;0.941;-0.2466;0.5177;-0.3025;-0.2278;1.7;-12.49;41.01;40.58;64.33;38.72;-107.8;0.0;35.95832;-83.92454;691.11;NaN;0.0;35.33087;;3 / 6;50005;2022-10-28 14:07:32:989
5.8017;-3.0769;-1.4638;8.4736;-3.5275;-3.4532;-1.5639;-0.1533;1.1832;0.8309;-0.3668;-0.0622;1.6;-3.39;43.24;34.2;41.34;21.08;-112.17;0.0;35.95832;-83.92454;691.11;NaN;0.0;35.33087;;3 / 6;50504;2022-10-28 14:07:33:488
7.381;-3.9332;-1.3579;8.184;-4.5574;-2.9023;-0.803;0.5257;1.5998;0.9435;-0.3305;0.0796;3.3;4.58;51.3;12.6;16.89;26.37;-109.53;0.0;35.95832;-83.92454;691.11;NaN;0.0;35.33087;;3 / 6;51005;2022-10-28 14:07:33:989
17.7198;-11.7805;-0.1642;8.0128;-5.4225;-1.6006;4.2942;-2.6828;0.3114;-0.7581;2.1417;0.2189;2.3;7.76;44.78;-8.59;351.62;32.96;-106.38;0.0;35.95832;-83.92454;691.11;NaN;0.0;35.33087;;3 / 6;51504;2022-10-28 14:07:34:488
9.2901;-8.6327;-3.1172;8.2474;-4.9777;-1.8367;-1.1464;-0.6773;-1.5943;0.3308;-0.16;-0.0444;0.2;10.58;29.38;-11.47;345.23;30.5;-102.56;0.0;35.95832;-83.92454;691.11;NaN;0.0;35.33087;;3 / 6;52005;2022-10-28 14:07:34:989
8.9833;-2.5576;-2.4383;7.4728;-5.2722;-3.5399;1.2769;2.6554;1.3639;0.2491;-0.3378;-0.1878;2.5;0.15;14.74;-16.59;317.15;32.52;-115.35;0.0;35.95832;-83.92454;691.11;NaN;0.0;35.33087;;3 / 6;52504;2022-10-28 14:07:35:488
8.2947;-4.0606;-2.709;8.0859;-4.7705;-2.834;-0.2665;1.1261;-0.2178;0.305;-0.4576;0.7564;4.8;-6.04;3.68;-1.86;289.86;26.06;-108.48;0.0;35.95832;-83.92454;691.11;NaN;0.0;35.33087;;3 / 6;53005;2022-10-28 14:07:35:989
7.0005;-6.1789;-1.1925;7.7653;-5.5243;-2.3135;-1.2882;-0.754;2.0494;1.5999;-0.395;0.0961;4.3;-10.63;0.02;10.14;140.79;32.06;-108.86;0.0;35.95832;-83.92454;691.11;NaN;0.0;35.33087;;3 / 6;53504;2022-10-28 14:07:36:488
6.8545;-6.9972;-1.1638;7.7291;-5.4285;-2.6387;-2.1792;-1.3164;1.8613;-0.609;-0.4637;-0.4691;2.2;-13.91;0.84;22.95;121.62;33.61;-108.85;0.0;35.95832;-83.92454;691.11;NaN;0.0;35.33087;;3 / 6;54005;2022-10-28 14:07:36:989
7.2601;-4.8425;-2.0462;7.925;-4.9579;-2.9636;-2.9286;2.1247;1.4989;0.7029;-0.1435;-0.2374;9.9;-12.08;3.28;30.23;109.38;30.37;-110.5;0.0;35.95832;-83.92454;691.11;NaN;0.0;35.33087;;3 / 6;54504;2022-10-28 14:07:37:488
7.4913;-4.3181;-0.3335;8.523;-3.9461;-2.8207;-4.0E-4;-0.8512;2.356;-0.2588;-0.1661;0.5652;20.6;-13.33;8.49;30.32;91.99;22.45;-107.92;0.0;35.95832;-83.92454;691.11;NaN;0.0;35.33087;;3 / 6;55005;2022-10-28 14:07:37:989
8.5711;-6.6852;-2.3856;8.2653;-5.1912;0.9519;0.0182;-1.4716;-3.3896;-0.4394;2.2176;-0.7743;2.4;-16.35;8.29;25.99;95.22;34.41;-89.76;0.0;35.95832;-83.92454;691.11;NaN;0.0;35.33087;;3 / 5;55505;2022-10-28 14:07:38:489
10.6857;-8.5277;-2.2789;8.0013;-5.6466;-0.5145;0.0344;-0.4502;-3.2485;0.3347;0.2282;-0.4769;0.8;-18.68;10.69;19.63;98.09;35.16;-93.68;0.0;35.95832;-83.92454;691.11;NaN;0.0;35.33087;;3 / 5;56004;2022-10-28 14:07:38:988
4.3289;-2.4132;-0.9108;8.2403;-5.043;-1.6842;-0.6452;1.9013;-0.21;-0.574;0.0177;0.4337;1.3;-21.24;16.86;16.29;78.41;30.95;-101.55;0.0;35.95832;-83.92454;691.11;NaN;0.0;35.33087;;0 / 5;56504;2022-10-28 14:07:39:488
4.0627;-1.1785;-1.8272;8.7279;-4.1681;-1.6191;-2.8462;2.3743;2.1261;1.5585;-3.3068;0.7507;1.3;-24.92;21.11;12.98;47.43;25.15;-100.51;0.0;35.95832;-83.92454;691.11;NaN;0.0;35.33087;;0 / 5;57005;2022-10-28 14:07:39:989
6.5462;-3.411;-1.4722;8.1582;-4.6507;-2.8256;-1.8047;1.4472;1.6084;0.9157;-1.1054;0.8528;0.7;-26.47;21.94;17.23;48.8;24.47;-106.77;0.0;35.95832;-83.92454;691.11;NaN;0.0;35.33087;;0 / 5;57504;2022-10-28 14:07:40:488
8.907;-5.6097;-4.3813;9.1246;-3.5739;-0.3737;2.6529;-5.0651;-5.2097;-0.7449;0.4677;0.0048;1.3;-28.63;20.19;19.71;67.55;21.37;-92.35;0.0;35.95832;-83.92454;691.11;NaN;0.0;35.33087;;0 / 5;58005;2022-10-28 14:07:40:989
10.4773;-6.9538;0.181;7.5882;-6.1753;-0.6754;3.5906;-4.3934;-2.4798;-0.5284;0.8747;-0.9768;0.2;-29.7;19.14;21.19;105.98;39.03;-95.09;0.0;35.95832;-83.92454;691.11;NaN;0.0;35.33087;;0 / 5;58504;2022-10-28 14:07:41:488
5.2651;-3.1077;0.516;7.2434;-6.5326;-1.0141;-1.3853;1.6961;1.1427;1.1602;-1.6473;-0.2618;0.8;-27.15;20.29;22.33;105.27;41.77;-97.97;0.0;35.95832;-83.92454;691.11;NaN;0.0;35.33087;;0 / 5;59005;2022-10-28 14:07:41:989
4.3573;-6.9356;-3.1026;5.8217;-7.7767;-1.342;-0.3074;2.3013;-1.4243;2.1523;-1.6546;0.1212;2.4;-22.76;22.44;24.21;116.12;50.48;-106.1;0.0;35.95832;-83.92454;691.11;NaN;0.0;35.33087;;0 / 5;59505;2022-10-28 14:07:42:489
4.9729;-5.1308;-1.3104;5.4458;-8.1456;0.4044;-0.9483;2.1796;-2.7486;0.4077;-0.4713;0.3822;0.0;-19.78;29.48;22.59;87.66;56.16;-85.75;0.0;35.95832;-83.92454;691.11;NaN;0.0;35.33087;;0 / 5;60004;2022-10-28 14:07:42:988
3.6838;-5.6285;3.1822;7.2575;-6.541;-0.8452;-3.4568;0.4815;4.1684;1.3388;-2.034;0.5249;0.0;-20.85;40.29;32.42;65.43;41.84;-96.64;2.0;35.95832;-83.92454;691.11;NaN;0.0;35.33087;;0 / 5;60504;2022-10-28 14:07:43:488
6.14;-6.8883;1.5299;5.7513;-7.8171;-1.409;-0.4386;0.8536;2.8635;3.8302;-2.4672;0.235;2.3;-18.26;54.88;47.49;75.94;52.86;-103.77;0.0;35.95832;-83.92454;691.11;NaN;0.0;35.33087;;0 / 5;61005;2022-10-28 14:07:43:989
10.5135;-7.7545;-0.5916;5.6862;-7.6194;2.4045;4.2534;-1.1442;-1.4949;-1.8503;0.6741;-0.6256;2.3;-0.53;73.35;17.83;16.69;50.04;-59.22;0.0;35.95832;-83.92454;691.11;NaN;0.0;35.33087;;0 / 5;61505;2022-10-28 14:07:44:489
6.0054;-6.9634;-4.0496;6.753;-6.8477;-1.9171;-0.8554;-0.6061;0.1601;-1.7715;-0.1841;0.152;0.5;-3.34;61.58;28.95;36.32;44.29;-105.85;0.0;35.95832;-83.92454;691.11;NaN;0.0;35.33087;;0 / 5;62005;2022-10-28 14:07:44:989
5.8516;-7.462;1.4366;5.4755;-8.1216;-0.4786;-0.7284;2.5514;1.7478;3.5349;-1.796;0.3792;3.8;-11.46;51.09;8.81;23.01;55.91;-95.0;0.0;35.95832;-83.92454;691.11;NaN;0.0;35.33087;;0 / 6;62504;2022-10-28 14:07:45:488
14.1763;-12.5091;-1.142;5.6959;-7.8563;-1.416;1.8093;2.9874;0.1006;0.4571;0.38;-2.1396;0.2;-28.14;29.1;-11.53;263.51;53.24;-103.96;0.0;35.95832;-83.92454;691.11;NaN;0.0;35.33087;;0 / 6;63004;2022-10-28 14:07:45:988
4.4629;-5.7993;-2.9151;5.9886;-7.5307;-1.8961;-1.208;2.5773;-1.5014;-0.4433;2.0699;0.5785;0.0;-32.87;18.73;-3.19;238.58;48.84;-112.84;0.0;35.95832;-83.92454;691.11;NaN;0.0;35.33087;;0 / 7;63504;2022-10-28 14:07:46:488
4.4363;-6.0377;0.2575;5.787;-7.9043;-0.451;-1.3529;1.3979;0.9812;-0.7802;0.9477;-0.1783;0.0;-32.38;17.94;3.84;174.4;53.71;-94.46;0.0;35.95832;-83.92454;691.11;NaN;0.0;35.33087;;0 / 7;64005;2022-10-28 14:07:46:989
0.3018;-4.646;1.7157;5.2837;-8.2025;-0.9859;-6.4881;-1.1897;0.9277;2.5535;-1.3123;2.09;0.0;-28.57;24.64;5.68;184.83;47.12;-102.46;2.0;35.95832;-83.92454;691.11;NaN;0.0;35.33087;;0 / 7;64505;2022-10-28 14:07:47:489
6.5339;-6.9188;-0.1259;5.8516;-7.72;-1.5263;-0.0436;2.5296;1.9876;2.4307;-1.8904;-0.2898;0.0;-25.8;33.83;7.37;137.36;51.93;-104.62;0.0;35.95832;-83.92454;691.11;NaN;0.0;35.33087;;0 / 7;65004;2022-10-28 14:07:47:988
7.1967;-11.0967;-1.8293;7.2572;-6.3605;-1.7456;4.3914;-12.2191;-2.48;-2.3303;2.0071;-0.3831;0.0;-26.16;41.19;6.23;358.98;40.44;-103.52;0.0;35.95832;-83.92454;691.11;NaN;0.0;35.33087;;0 / 7;65505;2022-10-28 14:07:48:489
6.131;-10.5341;-2.9874;5.7521;-7.8822;-0.9769;-0.9324;-1.5127;-3.5447;-0.6708;2.3068;-0.1657;0.0;-25.52;50.7;10.56;32.46;53.17;-102.04;2.0;35.95832;-83.92454;691.11;NaN;0.0;35.33087;;0 / 7;66004;2022-10-28 14:07:48:988
4.7683;-5.1212;-1.2604;5.6186;-8.0131;-0.6266;-1.9013;3.402;1.1405;-0.6787;0.6859;0.1614;0.0;-23.01;55.71;9.99;30.45;54.62;-95.84;2.0;35.95832;-83.92454;691.11;NaN;0.0;35.33087;;3 / 7;66505;2022-10-28 14:07:49:489
5.6507;-4.7055;-2.173;5.8018;-7.6813;-1.8727;0.04;2.6002;1.0065;0.3412;0.1997;0.2558;0.0;-25.07;54.9;23.03;54.8;51.56;-107.89;0.0;35.95832;-83.92454;691.11;NaN;0.0;35.33087;;3 / 7;67004;2022-10-28 14:07:49:988
5.2391;-6.0488;-0.4406;5.8621;-7.829;-0.7165;-0.9727;1.5762;-0.5666;0.1894;0.5199;0.1135;0.0;-19.65;56.68;24.32;52.95;52.97;-96.97;0.0;35.95832;-83.92454;691.11;NaN;0.0;35.33087;;3 / 7;67504;2022-10-28 14:07:50:488
5.2528;-6.1944;0.1684;7.0232;-6.6581;-1.5856;-1.4938;-0.0188;2.231;0.9757;-0.8857;0.2924;0.0;-19.01;54.34;28.39;43.57;41.4;-103.45;0.0;35.95832;-83.92454;691.11;NaN;0.0;35.33087;;3 / 7;68005;2022-10-28 14:07:50:989
9.2192;-9.9356;0.9443;5.935;-7.7807;-0.6381;2.2672;-4.7689;0.2022;0.0147;-0.6833;-0.132;0.0;-12.83;57.3;26.59;48.94;52.85;-93.38;0.0;35.95832;-83.92454;691.11;NaN;0.0;35.33087;;3 / 7;68504;2022-10-28 14:07:51:488
17.1263;-18.2533;2.2107;5.5137;-7.9978;-1.3434;2.3014;-1.5893;-2.2721;-0.2717;-0.8575;-3.1094;0.0;-4.71;57.75;16.89;30.22;54.64;-103.69;0.0;35.95832;-83.92454;691.11;NaN;0.0;35.33087;;3 / 7;69005;2022-10-28 14:07:51:989
8.8684;-4.1447;-2.7685;6.497;-6.9896;-2.2592;0.9972;1.3901;-0.3338;-1.424;3.6226;0.4607;0.0;-13.2;51.6;14.16;20.12;45.46;-109.17;0.0;35.95832;-83.92454;691.11;NaN;0.0;35.33087;;3 / 7;69504;2022-10-28 14:07:52:488
3.6526;-10.1865;-2.9243;5.4731;-8.1226;0.4888;-1.259;-1.5194;-3.0979;-2.6435;2.1225;-0.7601;0.0;-23.08;42.56;3.49;58.67;57.61;-79.09;0.0;35.95832;-83.92454;691.11;NaN;0.0;35.33087;;3 / 7;70004;2022-10-28 14:07:52:988
11.3219;-12.9523;-1.3187;7.3938;-6.2386;-1.6067;3.6892;-6.5733;0.0728;-2.1339;1.8954;-0.9942;0.0;-30.32;36.28;6.15;345.0;44.56;-103.42;0.0;35.95832;-83.92454;691.11;NaN;0.0;35.33087;;3 / 7;70505;2022-10-28 14:07:53:489
6.8234;-10.5814;-2.0803;5.9763;-7.6709;-1.2695;-0.6519;0.107;-1.1202;0.1571;0.779;0.159;0.0;-32.72;34.41;12.24;140.95;51.46;-101.99;0.0;35.95832;-83.92454;691.11;NaN;0.0;35.33087;;3 / 7;71004;2022-10-28 14:07:53:988
5.9267;-6.527;-0.0012;5.44;-8.1562;0.2292;-1.7024;2.5389;-0.8906;0.2801;-0.2785;0.2135;0.0;-33.3;36.79;9.66;119.84;56.27;-87.59;0.0;35.95832;-83.92454;691.11;NaN;0.0;35.33087;;3 / 7;71504;2022-10-28 14:07:54:488
5.2585;-6.7119;-1.4489;6.5885;-7.0496;-1.7507;-1.5464;0.4065;1.417;0.3967;-1.8835;0.1066;0.0;-36.69;34.78;14.66;107.07;44.52;-100.45;0.0;35.95832;-83.92454;691.11;NaN;0.0;35.33087;;3 / 7;72006;2022-10-28 14:07:54:990
5.7093;-6.335;2.4407;5.2023;-8.3127;-0.0766;0.9665;1.0408;2.6327;3.1566;-2.6748;0.5243;0.0;-39.66;35.12;16.43;145.51;55.27;-98.42;0.0;35.95832;-83.92454;691.11;NaN;0.0;35.33087;;3 / 7;72505;2022-10-28 14:07:55:489
5.8995;-9.6165;2.0818;6.2521;-7.5062;-0.8593;-0.856;-2.4464;-0.0391;-1.6917;1.2632;-0.4996;0.0;-35.36;42.84;16.31;92.77;49.94;-97.83;0.0;35.95832;-83.92454;691.11;NaN;0.0;35.33087;;3 / 7;73004;2022-10-28 14:07:55:988
4.2739;-6.8842;-3.1914;6.0174;-7.4186;-2.2193;-1.0711;4.2145;1.521;1.5529;-1.8387;-0.2768;0.0;-37.8;42.15;12.3;215.57;49.16;-110.24;0.0;35.95832;-83.92454;691.11;NaN;0.0;35.33087;;3 / 7;73504;2022-10-28 14:07:56:488
4.7713;-6.6437;-0.3257;6.0619;-7.6724;-0.7463;-1.4692;2.3554;-2.7892;-0.8285;0.7985;0.0193;0.0;-37.67;31.18;2.85;189.03;51.48;-97.02;0.0;35.95832;-83.92454;691.11;NaN;0.0;35.33087;;3 / 7;74005;2022-10-28 14:07:56:989
2.9468;-6.2112;0.1938;6.6334;-6.9654;-1.9107;-3.1331;1.5272;1.5497;1.1058;-1.9904;0.2149;0.0;-39.58;25.5;3.28;214.85;43.36;-102.62;0.0;35.95832;-83.92454;691.11;NaN;0.0;35.33087;;3 / 7;74505;2022-10-28 14:07:57:489
9.577;-12.7525;1.2236;6.2131;-7.5575;-0.6719;4.3968;-10.9932;-3.0517;-0.3302;-0.9862;-0.3701;0.0;-40.14;31.48;16.09;136.47;50.41;-96.17;0.0;35.95832;-83.92454;691.11;NaN;0.0;35.33087;;3 / 7;75004;2022-10-28 14:07:57:988
9.0721;-6.9425;-1.7151;6.0597;-7.6742;-0.7466;-0.7768;2.4148;-0.0106;-1.5322;1.8915;0.4239;0.0;-36.82;36.47;18.62;119.6;51.49;-97.02;0.0;35.95832;-83.92454;691.11;NaN;0.0;35.33087;;3 / 6;75505;2022-10-28 14:07:58:489
6.3775;-4.9421;-1.9579;6.3306;-7.3681;-1.3435;-0.4884;1.6212;0.2022;-0.2625;0.4348;0.5563;0.0;-36.04;38.78;20.21;107.63;48.71;-101.98;0.0;35.95832;-83.92454;691.11;NaN;0.0;35.33087;;3 / 6;76004;2022-10-28 14:07:58:988
4.6789;-5.8364;0.2695;5.9303;-7.7577;-0.9056;0.2007;1.3061;2.0715;1.3352;-0.5379;-0.0872;0.0;-28.28;45.19;23.14;80.67;51.49;-102.78;0.0;35.95832;-83.92454;691.11;NaN;0.0;35.33087;;0 / 6;76505;2022-10-28 14:07:59:489
3.6697;-8.9013;0.8895;6.7373;-6.911;-1.7371;-2.0292;-3.6886;1.4495;0.4697;-0.9083;-0.3808;0.0;-26.44;50.08;25.05;53.04;44.81;-104.46;0.0;35.95832;-83.92454;691.11;NaN;0.0;35.33087;;0 / 6;77004;2022-10-28 14:07:59:988
7.0669;-13.3555;-3.469;6.0855;-7.6691;-0.5672;1.7797;-5.7664;-2.1785;-0.0426;0.2621;-0.0552;0.0;-24.43;53.66;24.75;61.35;52.07;-97.99;0.0;35.95832;-83.92454;691.11;NaN;0.0;35.33087;;0 / 6;77505;2022-10-28 14:08:00:489
6.5632;-4.6268;-1.1853;5.9112;-7.7426;-1.1313;-0.7965;2.1388;1.115;-2.1978;2.1786;0.9197;0.0;-24.75;52.91;20.29;55.76;52.14;-100.83;0.0;35.95832;-83.92454;691.11;NaN;0.0;35.33087;;0 / 6;78004;2022-10-28 14:08:00:988
4.3457;-6.0242;-2.857;6.1233;-7.4634;-1.7243;-1.3852;2.387;-0.1875;0.9021;-0.5106;0.4048;0.0;-30.21;38.49;26.51;94.44;47.47;-107.17;0.0;35.95832;-83.92454;691.11;NaN;0.0;35.33087;;0 / 6;78504;2022-10-28 14:08:01:488
5.7123;-6.3003;-2.1864;5.8367;-7.8564;-0.6171;-0.6966;1.7393;-1.5788;0.0639;0.4663;0.2414;0.0;-29.34;27.71;24.88;111.18;53.24;-96.04;0.0;35.95832;-83.92454;691.11;NaN;0.0;35.33087;;0 / 6;79005;2022-10-28 14:08:01:989
7.188;-9.4759;0.804;6.1079;-7.4305;-1.9111;5.3829;-3.888;1.7254;-0.5936;-1.4667;-1.0142;0.0;-24.71;24.49;27.47;111.88;53.63;-99.18;0.0;35.95832;-83.92454;691.11;NaN;0.0;35.33087;;0 / 6;79504;2022-10-28 14:08:02:488
4.6331;-6.728;0.8985;6.6382;-7.0613;-1.4974;6.3174;-4.0016;0.71;3.7915;-5.3106;0.0475;0.0;-16.86;27.69;37.13;87.12;46.06;-102.71;0.0;35.95832;-83.92454;691.11;NaN;0.0;35.33087;;0 / 6;80005;2022-10-28 14:08:02:989
5.7248;-7.669;-0.204;5.7186;-7.8951;1.0657;-0.1823;0.0372;-2.4264;0.7213;0.3237;0.2134;0.0;-7.22;44.61;20.16;40.99;53.62;-79.44;0.0;35.95832;-83.92454;691.11;NaN;0.0;35.33087;;0 / 6;80505;2022-10-28 14:08:03:489
5.9471;-6.0861;-1.6226;6.9881;-6.4796;-2.3132;-1.2475;0.062;2.2178;-0.4572;-0.7488;0.1878;0.0;-16.86;42.39;27.83;54.83;41.25;-104.26;0.0;35.95832;-83.92454;691.11;NaN;0.0;35.33087;;0 / 6;81005;2022-10-28 14:08:03:989
5.6495;-6.97;1.7183;5.5116;-8.0974;-0.4736;-0.068;1.3253;1.8642;3.9816;-2.5388;-0.0545;0.0;-20.33;43.82;30.13;79.6;53.5;-105.13;0.0;35.95832;-83.92454;691.11;NaN;0.0;35.33087;;0 / 6;81504;2022-10-28 14:08:04:488
6.6858;-8.5095;1.8532;6.5716;-7.1301;-1.465;-0.1761;-2.7418;0.5164;-0.8995;0.0909;-0.5379;0.0;-20.61;44.74;11.38;23.4;46.64;-102.57;0.0;35.95832;-83.92454;691.11;NaN;0.0;35.33087;;0 / 6;82004;2022-10-28 14:08:04:988
5.5173;-5.9058;-3.2363;6.2347;-7.3165;-1.9411;0.5274;1.1383;-0.242;1.2232;-0.9538;-0.1435;0.0;-28.63;35.98;17.96;94.53;48.25;-107.29;0.0;35.95832;-83.92454;691.11;NaN;0.0;35.33087;;0 / 7;82504;2022-10-28 14:08:05:488
5.9518;-6.0667;-0.5865;6.4841;-7.2856;-1.0232;-1.0629;1.3335;0.7356;-1.1825;1.4444;0.1778;0.0;-32.18;26.19;18.49;122.81;48.55;-98.36;0.0;35.95832;-83.92454;691.11;NaN;0.0;35.33087;;0 / 7;83004;2022-10-28 14:08:05:988
4.2494;-4.8117;0.3108;7.6731;-5.9575;-1.3422;-2.4085;-0.2347;2.1339;0.3988;-0.7958;0.1218;0.0;-29.78;16.35;20.14;114.17;36.89;-98.73;0.0;35.95832;-83.92454;691.11;NaN;0.0;35.33087;;0 / 8;83505;2022-10-28 14:08:06:489
5.9198;-6.4582;0.5492;6.5002;-7.1611;-1.6238;0.3102;0.1528;1.7761;1.8568;-2.1274;-0.6497;0.0;-20.47;12.53;26.23;115.89;46.91;-104.03;0.0;35.95832;-83.92454;691.11;NaN;0.0;35.33087;;0 / 8;84005;2022-10-28 14:08:06:989
9.0039;-10.4121;-2.5445;6.0508;-7.5627;-1.5374;-0.504;3.5874;0.9411;1.4175;-1.4876;-0.0839;0.0;-10.72;18.3;31.11;95.54;50.46;-104.26;0.0;35.95832;-83.92454;691.11;NaN;0.0;35.33087;;0 / 8;84504;2022-10-28 14:08:07:488
4.7665;-5.7278;-2.17;6.1178;-7.489;-1.6303;-1.6138;1.4898;0.0469;0.1524;-0.5577;0.4952;0.0;-5.79;22.37;33.49;81.01;47.47;-103.61;0.0;35.95832;-83.92454;691.11;NaN;0.0;35.33087;;0 / 8;85004;2022-10-28 14:08:07:988
4.8087;-6.4173;1.5562;6.3631;-7.3764;-1.1274;-0.2194;0.5285;2.0611;2.0017;-0.8498;-0.2749;0.0;1.07;28.58;33.51;68.04;48.31;-105.25;0.0;35.95832;-83.92454;691.11;NaN;0.0;35.33087;;3 / 6;85505;2022-10-28 14:08:08:489
8.7514;-12.3281;-3.1537;6.0104;-7.7422;-0.3232;1.0182;-0.4633;-2.916;-1.775;0.135;-0.8062;0.0;5.61;37.16;29.14;48.17;52.14;-93.08;0.0;35.95832;-83.92454;691.11;NaN;0.0;35.33087;;3 / 6;86005;2022-10-28 14:08:08:989
6.5136;-5.4694;-1.6585;5.9622;-7.6287;-1.5574;-0.2769;2.0512;0.0045;0.1904;-0.2259;0.2999;0.0;4.91;38.94;32.68;56.73;51.07;-104.64;0.0;35.95832;-83.92454;691.11;NaN;0.0;35.33087;;3 / 6;86504;2022-10-28 14:08:09:488
5.1514;-6.8563;-1.0696;5.9819;-7.7577;-0.4532;-1.0808;0.6653;-1.2369;0.4713;0.1002;0.0416;0.0;8.34;43.93;27.45;42.34;51.67;-97.97;0.0;35.95832;-83.92454;691.11;NaN;0.0;35.33087;;3 / 6;87005;2022-10-28 14:08:09:989
8.2914;-8.5983;-1.6597;7.5345;-6.265;-0.3883;-0.4607;-1.4429;-1.2493;-1.1059;2.2478;-0.5168;0.0;8.12;44.87;26.38;36.28;41.81;-97.57;0.0;35.95832;-83.92454;691.11;NaN;0.0;35.33087;;3 / 6;87506;2022-10-28 14:08:10:490
5.7464;-10.8772;-2.4628;5.7262;-7.9286;-0.7191;-1.1302;-0.2473;-3.7519;-0.3241;2.3114;-0.1529;0.0;12.47;45.49;24.92;38.06;53.95;-97.16;0.0;35.95832;-83.92454;691.11;NaN;0.0;35.33087;;3 / 6;88005;2022-10-28 14:08:10:989
5.6961;-5.983;-0.0209;5.8624;-7.8551;0.318;-2.0507;1.5529;1.468;-2.0975;1.42;-0.1553;0.0;20.18;46.95;15.11;17.24;53.23;-86.9;0.0;35.95832;-83.92454;691.11;NaN;0.0;35.33087;;3 / 6;88504;2022-10-28 14:08:11:488
5.8717;-5.0509;-0.3353;5.8166;-7.7523;-1.4963;0.1036;2.4152;1.3306;0.7572;-1.0866;0.6391;0.0;18.62;49.78;34.44;42.04;49.64;-101.85;0.0;35.95832;-83.92454;691.11;NaN;0.0;35.33087;;3 / 6;89005;2022-10-28 14:08:11:989
2.7517;-5.08;-2.1362;5.6771;-7.9952;-0.1358;-1.6556;3.1595;-0.075;2.0469;-2.1068;-0.1765;0.0;23.49;54.62;18.49;21.65;54.97;-94.05;0.0;35.95832;-83.92454;691.11;NaN;0.0;35.33087;;3 / 6;89505;2022-10-28 14:08:12:489
4.0872;-5.6267;1.6881;7.2682;-5.9749;-2.7648;-1.9624;-1.484;2.4518;0.7032;-0.6553;-0.0613;0.0;8.53;53.33;-3.69;359.36;37.54;-110.83;0.0;35.95832;-83.92454;691.11;NaN;0.0;35.33087;;3 / 6;90004;2022-10-28 14:08:12:988
4.9594;-8.6013;1.1566;6.5618;-7.1183;-1.5631;1.9598;-2.6383;0.0753;1.8746;-2.3112;0.1915;0.0;-8.72;46.99;-12.69;332.38;46.54;-103.4;0.0;35.95832;-83.92454;691.11;NaN;0.0;35.33087;;3 / 6;90505;2022-10-28 14:08:13:489
5.8008;-8.7278;-1.867;6.5916;-7.0272;1.8277;-3.7648;-2.8436;-1.0091;-0.4305;0.497;-0.2459;0.0;-38.19;7.89;-9.04;176.22;45.77;-74.5;0.0;35.95832;-83.92454;691.11;NaN;0.0;35.33087;;3 / 6;91004;2022-10-28 14:08:13:988
4.8168;-5.7123;2.3429;6.8725;-6.7658;-1.7784;-3.6518;1.4329;5.4328;-0.0838;-0.3673;-0.1066;0.0;-29.91;9.58;0.81;204.06;43.73;-103.16;0.0;35.95832;-83.92454;691.11;NaN;0.0;35.33087;;3 / 6;91504;2022-10-28 14:08:14:488
6.1487;-5.7568;2.9785;5.0721;-8.3878;0.2994;1.1574;1.555;1.2367;3.0251;-0.099;1.0003;0.0;-29.1;21.19;8.14;144.27;58.79;-86.62;0.0;35.95832;-83.92454;691.11;NaN;0.0;35.33087;;3 / 6;92005;2022-10-28 14:08:14:989
7.3125;-7.6074;-4.4339;6.4725;-7.3672;-0.0345;1.1593;0.0486;-5.756;-3.2478;-0.4396;-0.0815;0.0;-29.53;22.31;8.89;132.33;48.7;-90.31;0.0;35.95832;-83.92454;691.11;NaN;0.0;35.33087;;3 / 6;92504;2022-10-28 14:08:15:488
5.5926;-4.8781;-1.1883;6.3624;-6.9267;-2.7769;-1.8668;1.7859;-0.2787;1.3831;-0.6638;0.0194;0.0;-29.66;27.64;-1.89;273.99;44.94;-113.58;0.0;35.95832;-83.92454;691.11;NaN;0.0;35.33087;;3 / 6;93004;2022-10-28 14:08:15:988
5.2223;-6.4313;-1.4886;6.0312;-7.5791;-1.5336;-1.0991;1.6036;-2.1723;0.3365;0.202;0.0037;0.0;-32.61;21.98;-10.72;246.95;50.57;-105.62;0.0;35.95832;-83.92454;691.11;NaN;0.0;35.33087;;3 / 6;93505;2022-10-28 14:08:16:489
4.6525;-6.1648;-0.6625;7.6997;-5.8917;-1.474;-2.8204;-0.7102;-0.885;0.2658;-0.4206;-0.1721;0.0;-28.8;22.18;-17.06;276.17;36.93;-100.84;0.0;35.95832;-83.92454;691.11;NaN;0.0;35.33087;;3 / 6;94004;2022-10-28 14:08:16:988
6.6769;-10.3505;-3.6147;6.3825;-7.3023;-1.453;0.1515;0.3439;-1.6281;0.5727;-0.3661;-0.0919;0.0;-26.32;25.86;-14.36;272.33;48.13;-102.83;0.0;35.95832;-83.92454;691.11;NaN;0.0;35.33087;;3 / 6;94505;2022-10-28 14:08:17:489
4.4109;-5.6136;-1.0355;6.3856;-7.373;-1.0164;-1.3037;0.766;-0.8569;-2.0602;2.0699;0.2255;0.0;-23.04;25.76;-11.92;275.48;48.75;-99.04;0.0;35.95832;-83.92454;691.11;NaN;0.0;35.33087;;3 / 6;95005;2022-10-28 14:08:17:989
5.9782;-4.6854;-2.9725;6.3751;-6.8404;-2.9558;-0.6383;1.8709;0.8732;0.7795;-0.9577;0.8592;0.0;-19.07;28.29;-3.3;316.57;40.33;-113.15;0.0;35.95832;-83.92454;691.11;NaN;0.0;35.33087;;0 / 6;95504;2022-10-28 14:08:18:488
4.765;-6.4119;-2.6833;6.0409;-6.7717;-3.7178;0.1554;-0.8063;1.612;1.3738;-1.9879;-0.8295;0.0;-15.49;27.68;5.04;339.47;43.67;-121.61;0.0;35.95832;-83.92454;691.11;NaN;0.0;35.33087;;0 / 6;96005;2022-10-28 14:08:18:989
13.2655;-11.4517;-6.6727;6.2108;-6.4365;-4.0209;0.6604;-1.3037;-2.3184;-2.5782;1.8762;-0.7856;0.0;7.71;9.08;15.19;73.05;47.08;-122.52;0.0;35.95832;-83.92454;691.11;NaN;0.0;35.33087;;0 / 6;96504;2022-10-28 14:08:19:488
5.4012;-5.8439;-4.9202;5.8421;-7.2176;-3.1537;-0.3222;2.5022;-2.902;-0.1988;0.9468;0.2023;0.0;8.87;11.49;14.66;65.32;47.39;-118.36;0.0;35.95832;-83.92454;691.11;NaN;0.0;35.33087;;0 / 6;97004;2022-10-28 14:08:19:988
4.6705;-4.8039;-2.9037;6.2581;-7.2789;-2.0062;-1.2027;1.7425;-0.0564;0.078;0.6677;-0.0066;0.0;9.81;15.75;9.54;39.44;48.4;-108.35;0.0;35.95832;-83.92454;691.11;NaN;0.0;35.33087;;0 / 6;97505;2022-10-28 14:08:20:489
2.6695;-5.056;-1.9959;6.8199;-5.7491;-4.0752;-3.6362;0.7073;2.1541;0.6315;-1.896;0.8278;0.0;9.6;17.1;1.37;15.65;33.57;-116.07;0.0;35.95832;-83.92454;691.11;NaN;0.0;35.33087;;0 / 6;98005;2022-10-28 14:08:20:989
5.0991;-6.8985;-1.0014;5.9346;-7.3123;-2.7353;0.8668;-1.77;1.0555;0.5132;-2.2492;0.0658;0.0;11.91;13.09;-5.96;354.43;47.42;-108.8;0.0;35.95832;-83.92454;691.11;NaN;0.0;35.33087;;0 / 6;98504;2022-10-28 14:08:21:488
4.8212;-5.0886;-0.7699;5.6964;-7.8684;-1.3453;-0.8274;2.5166;0.6385;0.7348;-1.8834;-0.0384;0.0;16.67;-5.12;-15.26;320.69;53.36;-103.29;0.0;35.95832;-83.92454;691.11;NaN;0.0;35.33087;;0 / 6;99005;2022-10-28 14:08:21:989
3.667;-6.2569;-0.6915;6.3707;-6.9422;-2.7186;-2.7258;0.9085;3.0741;2.0492;-2.0184;0.449;0.0;24.3;-16.58;-17.25;323.31;45.07;-113.11;0.0;35.95832;-83.92454;691.11;NaN;0.0;35.33087;;0 / 6;99505;2022-10-28 14:08:22:489
5.8196;-6.9903;0.2112;6.0854;-7.6438;-0.8433;0.2457;0.2498;0.6391;2.2694;-1.725;-0.3383;0.0;26.29;-22.28;-6.71;350.17;52.15;-102.22;0.0;35.95832;-83.92454;691.11;NaN;0.0;35.33087;;0 / 6;100004;2022-10-28 14:08:22:988
3.6416;-5.8412;1.6116;7.0149;-6.2931;-2.7126;-0.5061;-2.4805;2.5207;0.9247;-1.2544;-0.9916;0.0;18.88;-12.45;5.79;82.11;42.24;-110.32;0.0;35.95832;-83.92454;691.11;NaN;0.0;35.33087;;0 / 6;100504;2022-10-28 14:08:23:488
3.8922;-6.8809;0.0532;6.2647;-7.3356;-1.7647;0.9541;-0.9375;0.969;3.8587;-5.9852;-0.2873;0.0;21.24;8.27;7.65;35.46;48.42;-105.73;0.0;35.95832;-83.92454;691.11;NaN;0.0;35.33087;;0 / 6;101005;2022-10-28 14:08:23:989
9.9667;-7.9077;-1.905;6.9611;-6.5197;2.2821;-1.3143;-2.6298;-6.3817;-0.7623;1.1179;-0.1908;0.0;14.04;-5.31;-1.01;312.71;41.67;-71.85;0.0;35.95832;-83.92454;691.11;NaN;0.0;35.33087;;0 / 6;101506;2022-10-28 14:08:24:490
5.8893;-6.1657;-2.7099;6.941;-6.5457;-2.2686;-2.0147;1.0814;4.9008;0.4523;-1.0607;-0.2214;0.0;11.33;-8.81;5.48;95.31;41.87;-108.1;0.0;35.95832;-83.92454;691.11;NaN;0.0;35.33087;;0 / 6;102004;2022-10-28 14:08:24:988
6.3479;-6.3389;0.6553;5.229;-7.9746;-2.288;1.9563;0.5555;3.1566;3.5441;-3.93;-0.1702;0.0;10.58;-10.27;20.91;103.16;49.84;-114.76;0.0;35.95832;-83.92454;691.11;NaN;0.0;35.33087;;0 / 6;102504;2022-10-28 14:08:25:488
8.9339;-8.4517;-2.5956;6.4918;-7.3258;0.5994;3.1859;-1.5742;-1.0334;-1.4313;-1.15;0.3664;0.0;26.96;16.99;35.46;43.77;48.33;-84.73;0.0;35.95832;-83.92454;691.11;NaN;0.0;35.33087;;0 / 6;103005;2022-10-28 14:08:25:989
7.398;-5.7051;-1.87;6.9457;-6.2724;-2.93;-2.5743;-0.7268;-5.2778;-1.9047;2.9205;0.2747;0.0;23.76;21.51;51.84;72.43;39.76;-112.87;0.0;35.95832;-83.92454;691.11;NaN;0.0;35.33087;;0 / 6;103505;2022-10-28 14:08:26:489
6.0891;-6.4155;0.1436;5.7785;-7.8447;-1.1139;0.6096;1.0428;1.1176;2.6457;-0.6748;-0.3851;0.0;15.24;31.89;47.16;69.26;51.8;-109.34;0.0;35.95832;-83.92454;691.11;NaN;0.0;35.33087;;0 / 6;104004;2022-10-28 14:08:26:988
8.1464;-8.3498;-2.784;6.5649;-7.1907;-1.1689;1.3145;-1.2893;-2.215;-1.6389;-1.4046;0.211;0.0;11.03;46.86;24.43;30.36;46.92;-88.7;0.0;35.95832;-83.92454;691.11;NaN;0.0;35.33087;;0 / 6;104504;2022-10-28 14:08:27:488
5.5451;-5.5505;-2.4009;6.6546;-6.5456;-3.007;-1.3799;0.7099;1.7422;2.0757;-1.1863;-0.0488;0.0;-5.42;39.6;42.45;67.23;41.87;-114.32;0.0;35.95832;-83.92454;691.11;NaN;0.0;35.33087;;0 / 6;105005;2022-10-28 14:08:27:989
5.1655;-6.644;-2.2196;6.2855;-7.4157;-1.2928;0.7298;0.7782;1.3291;1.278;-1.0803;-0.1949;0.0;-5.49;42.51;33.51;59.2;49.13;-101.62;0.0;35.95832;-83.92454;691.11;NaN;0.0;35.33087;;0 / 4;105504;2022-10-28 14:08:28:488
5.9288;-9.5073;-2.744;7.2301;-6.461;-1.4668;4.6874;-3.5994;-2.4862;-0.5526;0.1414;-0.8647;0.0;-6.09;41.66;27.99;47.5;41.21;-101.47;0.0;35.95832;-83.92454;691.11;NaN;0.0;35.33087;;0 / 4;106005;2022-10-28 14:08:28:989
8.8035;-10.6669;0.3909;6.2531;-7.4831;-1.0355;-0.3307;-0.2389;-3.6289;0.3455;0.5604;0.1797;0.0;-4.59;41.34;27.94;54.44;48.96;-102.02;0.0;35.95832;-83.92454;691.11;NaN;0.0;35.33087;;0 / 4;106504;2022-10-28 14:08:29:488
5.222;-5.3246;-0.5575;6.2736;-7.4269;-1.2856;-1.1792;1.8305;-0.246;-1.4663;1.5793;0.3697;0.0;2.48;44.23;16.65;31.68;49.23;-101.58;0.0;35.95832;-83.92454;691.11;NaN;0.0;35.33087;;0 / 3;107004;2022-10-28 14:08:29:988
6.3491;-6.1107;-3.2378;6.6653;-6.8105;-2.3156;-1.3035;1.2213;0.0131;0.3848;-0.3189;0.8125;0.0;3.83;40.54;23.7;41.98;43.99;-109.16;0.0;35.95832;-83.92454;691.11;NaN;0.0;35.33087;;0 / 3;107504;2022-10-28 14:08:30:488
6.3996;-7.0618;-0.1128;6.1046;-7.3856;-2.0871;2.2099;-0.9639;3.3292;2.1848;-1.8937;-0.4475;0.0;10.71;37.56;18.3;35.89;48.86;-108.87;0.0;35.95832;-83.92454;691.11;NaN;0.0;35.33087;;0 / 0;108005;2022-10-28 14:08:30:989
11.2463;-12.6817;-2.8839;6.2723;-7.3528;-1.6628;4.1494;-3.3961;-0.9595;-1.2109;0.1841;-0.7206;0.0;12.62;33.73;11.42;24.48;52.47;-101.01;0.0;35.95832;-83.92454;691.11;NaN;0.0;35.33087;;0 / 0;108504;2022-10-28 14:08:31:488
5.2834;-6.5007;-2.8926;6.1644;-7.4907;-1.4355;-1.3641;1.4275;-3.2406;0.097;0.9768;0.0092;0.0;14.44;35.31;18.17;34.72;49.8;-103.11;0.0;35.95832;-83.92454;691.11;NaN;0.0;35.33087;;0 / 0;109005;2022-10-28 14:08:31:989
4.7261;-6.1935;-1.9762;5.9817;-7.7621;0.3741;-1.5225;1.7699;-1.869;0.5891;0.3199;0.1302;0.0;16.99;37.65;4.18;4.55;52.33;-86.42;0.0;35.95832;-83.92454;691.11;NaN;0.0;35.33087;;0 / 0;109504;2022-10-28 14:08:32:488
4.6741;-6.1606;2.1814;6.8882;-6.7872;-1.6298;-4.0365;1.8955;5.3487;0.8636;-3.0968;0.0239;0.0;11.64;39.43;-3.84;358.25;43.8;-103.31;0.0;35.95832;-83.92454;691.11;NaN;0.0;35.33087;;0 / 0;110005;2022-10-28 14:08:32:989
4.5942;-5.4506;4.197;4.269;-8.7014;1.4941;1.0813;3.9293;3.8585;2.1467;0.0346;0.897;0.0;9.83;34.5;-3.56;346.83;62.52;-79.97;0.0;35.95832;-83.92454;691.11;NaN;0.0;35.33087;;0 / 0;110504;2022-10-28 14:08:33:488
8.1347;-8.123;0.4481;6.3966;-7.375;-0.9298;1.7811;0.408;0.1122;-1.0759;-0.5302;0.0875;0.0;-3.22;12.21;-17.57;292.68;48.77;-98.27;0.0;35.95832;-83.92454;691.11;NaN;0.0;35.33087;;0 / 0;111004;2022-10-28 14:08:33:988
9.0592;-7.2179;-0.3861;7.2152;-6.0533;-2.7328;1.5807;0.251;2.0611;0.4381;-0.2579;0.3484;0.0;-7.89;24.36;-20.12;311.73;36.87;-111.84;0.0;35.95832;-83.92454;691.11;NaN;0.0;35.33087;;0 / 0;111504;2022-10-28 14:08:34:488
5.9575;-7.6511;-0.5554;6.1818;-7.6081;0.2692;0.2745;0.8625;0.04;-0.1496;0.7127;-0.9338;0.0;-29.78;4.33;-4.65;190.01;50.88;-87.51;0.0;35.95832;-83.92454;691.11;NaN;0.0;35.33087;;0 / 0;112005;2022-10-28 14:08:34:989
8.1622;-8.9988;1.0771;6.3306;-7.4489;-0.7793;0.0085;1.326;-2.191;-2.1808;-1.2161;0.3676;0.0;-32.79;-8.96;6.26;159.67;48.17;-81.21;0.0;35.95832;-83.92454;691.11;NaN;0.0;35.33087;;0 / 0;112504;2022-10-28 14:08:35:488
8.866;-6.1801;-0.5982;7.0806;-6.3508;-2.3879;0.9603;1.6503;-2.7657;-0.009;0.9215;0.1572;0.0;-30.54;-2.91;14.33;172.1;40.36;-108.64;0.0;35.95832;-83.92454;691.11;NaN;0.0;35.33087;;0 / 0;113004;2022-10-28 14:08:35:988
5.339;-7.5081;0.9374;6.4591;-7.3789;-0.0439;-0.0394;0.4796;-0.2206;0.3887;0.9799;-0.5469;0.0;-20.62;0.6;36.02;117.12;50.84;-94.13;0.0;35.95832;-83.92454;691.11;NaN;0.0;35.33087;;0 / 0;113505;2022-10-28 14:08:36:489
4.3914;-6.1313;0.8833;6.7463;-6.7829;-2.1564;-2.0858;-0.1826;3.3214;-2.353;1.2157;0.0713;0.0;-18.41;-1.63;48.75;119.83;43.76;-107.73;0.0;35.95832;-83.92454;691.11;NaN;0.0;35.33087;;0 / 0;114004;2022-10-28 14:08:36:988
10.1076;-11.2738;0.1149;6.67;-6.9905;-1.6778;4.1917;-4.7139;0.5748;0.8976;-2.0766;-0.2663;0.0;-28.89;-19.67;32.85;147.95;45.47;-104.12;0.0;35.95832;-83.92454;691.11;NaN;0.0;35.33087;;0 / 0;114505;2022-10-28 14:08:37:489
6.99;-4.4827;-1.1566;5.9543;-7.5936;-1.7475;0.669;3.1377;0.6069;0.1995;-0.5072;0.0554;0.0;-22.63;-12.73;46.41;130.49;49.42;-103.5;0.0;35.95832;-83.92454;691.11;NaN;0.0;35.33087;;0 / 0;115005;2022-10-28 14:08:37:989
5.0495;-6.1612;-3.6132;6.3025;-7.2887;-1.8231;0.0892;1.9618;-0.7636;1.1114;-0.2419;0.1765;0.0;-27.56;-17.19;34.52;147.84;46.15;-108.3;0.0;35.95832;-83.92454;691.11;NaN;0.0;35.33087;;0 / 0;115504;2022-10-28 14:08:38:488
4.7907;-6.1522;-1.3451;6.2187;-7.5407;-0.7975;-1.3308;0.4244;-1.6484;-1.7957;1.3056;0.1547;0.0;-19.78;-0.88;45.17;115.74;50.26;-97.31;0.0;35.95832;-83.92454;691.11;NaN;0.0;35.33087;;0 / 0;116004;2022-10-28 14:08:38:988
5.2167;-5.4724;-0.9383;7.5904;-5.7872;-2.2502;-3.2718;-1.9774;0.3331;-0.5938;0.6339;0.1343;0.0;-20.83;1.16;39.92;118.78;36.17;-106.51;0.0;35.95832;-83.92454;691.11;NaN;0.0;35.33087;;0 / 0;116505;2022-10-28 14:08:39:489
10.1686;-10.3487;-0.3123;6.5763;-7.0878;-1.6388;5.6165;-5.4674;-1.5489;-0.2313;-1.1928;0.2715;0.0;-20.31;4.74;37.05;116.14;47.58;-100.41;0.0;35.95832;-83.92454;691.11;NaN;0.0;35.33087;;0 / 0;117005;2022-10-28 14:08:39:989
8.8762;-5.6366;-2.8292;5.8459;-7.7194;-1.551;1.758;2.7012;0.1748;-0.3254;-0.1578;0.6386;0.0;-16.43;12.17;40.24;106.87;50.11;-102.27;0.0;35.95832;-83.92454;691.11;NaN;0.0;35.33087;;0 / 0;117505;2022-10-28 14:08:40:489
4.9298;-5.4452;-2.1709;6.1899;-7.2294;-2.3647;-1.5112;1.0733;0.1521;0.8763;-0.6512;0.5672;0.0;-16.82;9.83;38.12;116.92;47.49;-110.91;0.0;35.95832;-83.92454;691.11;NaN;0.0;35.33087;;0 / 0;118005;2022-10-28 14:08:40:989
6.2842;-6.7705;-0.5608;5.8157;-7.6669;-1.8884;-2.3921;4.4489;1.5688;2.0023;-2.2713;-0.7229;0.0;-12.9;16.09;33.34;105.63;51.43;-107.99;0.0;35.95832;-83.92454;691.11;NaN;0.0;35.33087;;0 / 0;118505;2022-10-28 14:08:41:489
4.9684;-9.3589;-1.8123;7.3263;-5.9688;-2.621;-2.304;-4.3215;0.2524;-0.3154;0.8368;-0.4633;0.0;-8.17;22.54;28.8;75.18;39.43;-111.09;0.0;35.95832;-83.92454;691.11;NaN;0.0;35.33087;;0 / 0;119005;2022-10-28 14:08:41:989
8.1018;-13.1154;-3.489;6.3002;-7.4466;-1.0128;2.1293;-6.4302;-2.5376;0.3606;0.077;-0.0522;0.0;-8.46;24.28;23.01;72.97;49.18;-100.9;0.0;35.95832;-83.92454;691.11;NaN;0.0;35.33087;;0 / 0;119504;2022-10-28 14:08:42:488
7.0403;-5.9088;-1.564;5.5355;-8.0891;-0.3081;0.9477;1.7193;-0.5255;0.0416;0.2827;0.425;0.0;-7.63;30.94;16.99;58.43;55.57;-93.19;0.0;35.95832;-83.92454;691.11;NaN;0.0;35.33087;;0 / 0;120004;2022-10-28 14:08:42:988
6.5865;-5.487;-7.9576;6.5267;-6.8175;-2.6635;-0.7646;-0.1418;1.934;0.3374;-0.6789;0.0481;0.0;-10.5;28.8;23.4;64.47;44.04;-112.2;0.0;35.95832;-83.92454;691.11;NaN;0.0;35.33087;;0 / 0;120504;2022-10-28 14:08:43:488
6.3715;-5.691;1.2858;5.2547;-8.2749;0.2915;0.4736;2.0226;1.3123;3.2407;-1.277;-0.2905;0.0;-10.74;34.82;24.86;76.97;57.56;-102.69;0.0;35.95832;-83.92454;691.11;NaN;0.0;35.33087;;0 / 0;121004;2022-10-28 14:08:43:988
4.94;-6.964;4.9935;6.8198;-6.9199;-1.3326;1.0566;-4.4351;5.5329;-0.4422;-0.3244;-0.1997;0.0;-13.18;29.72;23.83;67.22;45.52;-99.55;0.0;35.95832;-83.92454;691.11;NaN;0.0;35.33087;;0 / 0;121505;2022-10-28 14:08:44:489
10.7952;-10.212;-0.0604;6.5523;-7.2341;-0.9516;4.2712;-0.0744;2.789;3.7908;-3.301;-1.1666;0.0;-11.12;15.47;44.01;93.5;47.53;-98.26;0.0;35.95832;-83.92454;691.11;NaN;0.0;35.33087;;0 / 0;122004;2022-10-28 14:08:44:988
3.1822;-10.6971;-1.9711;6.346;-7.4727;0.239;0.0791;-1.1753;-0.3736;-0.5086;0.5056;-0.5434;0.0;11.03;24.6;47.89;61.39;49.64;-87.84;0.0;35.95832;-83.92454;691.11;NaN;0.0;35.33087;;0 / 0;122504;2022-10-28 14:08:45:488
4.4073;-5.7347;2.5615;5.8875;-7.7506;-1.1983;0.1767;0.5959;2.2483;-0.7101;0.1472;-0.0103;0.0;27.49;36.3;53.96;59.42;52.22;-101.5;0.0;35.95832;-83.92454;691.11;NaN;0.0;35.33087;;0 / 0;123005;2022-10-28 14:08:45:989
5.289;-7.2051;-2.6249;6.294;-7.1822;-2.2299;-0.6825;-0.4031;-1.3482;1.1427;-0.5619;-0.0917;0.0;30.21;30.06;69.56;73.61;46.04;-111.56;0.0;35.95832;-83.92454;691.11;NaN;0.0;35.33087;;0 / 0;123504;2022-10-28 14:08:46:488
4.5329;-6.5985;-1.4151;6.1831;-7.4956;-1.3247;-1.5523;0.9474;-1.4155;-1.9794;1.9272;0.1155;0.0;36.68;45.79;62.53;55.75;49.85;-102.09;0.0;35.95832;-83.92454;691.11;NaN;0.0;35.33087;;0 / 0;124005;2022-10-28 14:08:46:989
5.3988;-6.0081;-0.0688;7.5678;-5.7374;-2.4455;-3.6314;0.1756;0.3242;-0.4902;0.3923;0.5549;0.0;32.49;35.78;74.55;67.57;35.81;-107.91;0.0;35.95832;-83.92454;691.11;NaN;0.0;35.33087;;0 / 0;124504;2022-10-28 14:08:47:488
10.0167;-9.9449;-3.6012;6.5965;-7.0563;-1.6928;3.2724;-6.089;1.3056;-0.1708;-0.4655;0.2563;0.0;31.28;34.63;73.58;67.63;46.02;-104.39;0.0;35.95832;-83.92454;691.11;NaN;0.0;35.33087;;0 / 0;125004;2022-10-28 14:08:47:988
9.6015;-10.0597;-5.6584;6.0981;-7.4067;-2.0308;2.0073;1.7063;-0.7352;0.374;-0.7615;0.0438;0.0;34.52;48.49;60.99;58.3;49.37;-107.71;0.0;35.95832;-83.92454;691.11;NaN;0.0;35.33087;;0 / 0;125505;2022-10-28 14:08:48:489
6.1232;-4.9496;-3.1546;6.203;-7.2054;-2.4033;-0.3098;1.5346;-1.607;0.6777;0.0761;0.2376;0.0;29.19;48.96;56.1;58.62;47.29;-111.18;0.0;35.95832;-83.92454;691.11;NaN;0.0;35.33087;;0 / 0;126004;2022-10-28 14:08:48:988
5.342;-6.8234;-0.8818;6.4288;-7.2699;-1.4105;-0.6986;0.1961;1.2806;1.1427;-0.9237;-0.004;0.0;25.67;63.02;33.66;34.84;47.84;-102.37;0.0;35.95832;-83.92454;691.11;NaN;0.0;35.33087;;0 / 0;126505;2022-10-28 14:08:49:489
5.1861;-9.46;-2.3231;7.1592;-6.1887;-2.5723;1.85;-5.1424;-1.2984;-0.8948;0.2557;-0.8124;0.0;21.28;67.22;29.98;31.33;39.13;-109.76;0.0;35.95832;-83.92454;691.11;NaN;0.0;35.33087;;0 / 0;127005;2022-10-28 14:08:49:989
9.2985;-11.7679;-2.4843;6.4162;-7.2786;-1.4227;1.5382;-1.8416;-2.6017;0.2989;0.7863;-0.1598;0.0;18.0;63.41;32.96;37.52;48.68;-105.99;0.0;35.95832;-83.92454;691.11;NaN;0.0;35.33087;;0 / 0;127505;2022-10-28 14:08:50:489
5.7987;-5.7021;-0.5554;6.2241;-7.4654;-1.3033;-1.341;2.238;1.0123;-0.9773;1.0027;0.2879;0.0;21.69;58.22;12.34;17.32;49.58;-101.83;0.0;35.95832;-83.92454;691.11;NaN;0.0;35.33087;;0 / 0;128005;2022-10-28 14:08:50:989
4.2739;-6.0413;-2.3743;7.0833;-6.1982;-2.7529;-3.3451;0.8303;1.7721;0.6614;-0.3555;0.4607;0.0;21.9;47.27;20.34;30.31;37.1;-111.19;0.0;35.95832;-83.92454;691.11;NaN;0.0;35.33087;;0 / 0;128504;2022-10-28 14:08:51:488
6.3775;-5.8047;-0.2094;6.2466;-7.2501;-2.1416;2.1914;-0.3688;2.1322;1.3123;-1.5479;-0.7023;0.0;23.79;38.59;16.76;31.48;47.67;-108.92;0.0;35.95832;-83.92454;691.11;NaN;0.0;35.33087;;0 / 0;129005;2022-10-28 14:08:51:989
5.735;-5.2555;-2.1966;6.1057;-7.4937;-1.6538;0.2716;2.0762;0.1562;-1.0872;2.5652;0.5574;0.0;20.79;31.39;7.01;19.76;49.83;-105.16;0.0;35.95832;-83.92454;691.11;NaN;0.0;35.33087;;0 / 0;129505;2022-10-28 14:08:52:489
6.4122;-6.7385;-5.4404;6.8539;-6.1702;-3.3353;-1.5579;-1.039;-1.8737;0.7851;0.1158;0.7045;0.0;17.59;27.43;17.72;42.55;38.99;-115.95;0.0;35.95832;-83.92454;691.11;NaN;0.0;35.33087;;0 / 0;130005;2022-10-28 14:08:52:989
6.8495;-7.1195;1.6627;6.6705;-7.0561;1.3735;-0.3915;-0.5798;-0.336;2.066;-0.5464;0.0306;0.0;19.71;27.81;21.41;28.14;47.05;-84.11;2.0;35.95832;-83.92454;691.11;NaN;0.0;35.33087;;0 / 0;130505;2022-10-28 14:08:53:489
0.6401;0.3341;7.6149;2.6452;3.3612;8.8247;-2.3214;-4.5482;-0.6077;1.2028;2.0049;-2.3638;7.9;16.89;29.91;7.03;329.48;-20.04;-16.69;2.0;35.95832;-83.92454;691.11;NaN;0.0;35.33087;;0 / 0;131005;2022-10-28 14:08:53:989
-1.9223;4.3561;7.3301;-0.9894;4.6777;8.5622;-1.2509;-0.1653;0.1642;-0.015;-0.1464;1.726;46.2;18.68;23.76;-7.27;324.62;-28.49;6.59;2.0;35.95832;-83.92454;691.11;NaN;0.0;35.33087;;0 / 0;131505;2022-10-28 14:08:54:489
-1.803;1.7515;8.4084;-1.9975;3.746;8.8401;-0.2771;-2.2377;-0.3557;0.4775;-0.9537;-1.1535;55.3;34.59;25.22;-3.11;310.32;-22.3;15.91;2.0;35.95832;-83.92454;691.11;NaN;0.0;35.33087;;0 / 0;132004;2022-10-28 14:08:54:988
-3.4424;2.4392;8.9922;-3.6355;1.6129;8.9639;0.6001;-0.5172;1.7734;0.3539;1.0946;0.8592;55.3;33.83;27.56;0.0;312.27;-8.11;18.77;2.0;35.95832;-83.92454;691.11;NaN;0.0;35.33087;;0 / 0;132505;2022-10-28 14:08:55:489
-5.0695;3.1481;7.9768;-5.1252;2.7623;7.8913;-0.2077;0.3477;-0.4512;-0.235;-0.2065;0.1239;46.5;38.42;27.73;6.06;311.68;-16.36;33.0;2.0;35.95832;-83.92454;691.11;NaN;0.0;35.33087;;0 / 0;133004;2022-10-28 14:08:55:988
-6.3879;3.8016;6.2943;-6.2768;3.5527;6.6446;0.3131;0.0029;-0.0963;0.1269;0.7131;0.2146;43.0;40.82;25.35;7.43;312.45;-21.24;43.37;2.0;35.95832;-83.92454;691.11;NaN;0.0;35.33087;;0 / 0;133504;2022-10-28 14:08:56:488