ACCELEROMETER X (m/s²),ACCELEROMETER Y (m/s²),ACCELEROMETER Z (m/s²),GRAVITY X (m/s²),GRAVITY Y (m/s²),GRAVITY Z (m/s²),LINEAR ACCELERATION X (m/s²),LINEAR ACCELERATION Y (m/s²),LINEAR ACCELERATION Z (m/s²),GYROSCOPE X (rad/s),GYROSCOPE Y (rad/s),GYROSCOPE Z (rad/s),LIGHT (lux),MAGNETIC FIELD X (μT),MAGNETIC FIELD Y (μT),MAGNETIC FIELD Z (μT),ORIENTATION Z (azimuth °),ORIENTATION X (pitch °),ORIENTATION Y (roll °),PROXIMITY (i),SOUND LEVEL (dB),LOCATION Latitude : ,LOCATION Longitude : ,LOCATION Altitude ( m),LOCATION Altitude-google ( m),LOCATION Speed ( Kmh),LOCATION Accuracy ( m),LOCATION ORIENTATION (°),Satellites in range,Time since start in ms ,YYYY-MO-DD HH-MI-SS_SSS
0.9748,1.9842,7.6286,-0.9929,3.9883,8.9038,-0.1634,-0.0259,-0.6935,-0.6332,-0.9256,0.487,623.4,0.51,-41.76,-22.74,176.93,-24,6.36,5,35.958073,-83.924515,,NaN,,254.49283,,0 / 1,6,2022-10-28 13:52:29:429,
0.0748,0.306,9.1992,-0.972,1.2692,9.6755,0.2766,0.3524,-0.6746,-0.7496,-0.629,-0.1888,623.4,-7.18,-35.1,-33.11,161.43,-7.44,5.74,5,35.958073,-83.924515,,NaN,,254.49283,,0 / 1,506,2022-10-28 13:52:29:929,
14.1515,-4.5377,0.9694,8.2992,-5.1238,1.0199,0.7585,2.3662,1.7065,1.9745,-4.3304,2.9593,731.3,-32.83,-10.12,-17.46,205.68,31.5,-82.99,5,35.95832,-83.92443,820.25,NaN,0,23.290382,,0 / 17,1006,2022-10-28 13:52:30:429,
6.8856,-5.2774,-1.0175,8.621,-4.5474,-1.0813,-1.3582,-1.1778,1.1761,-0.5371,1.3177,-0.6502,95,-31.89,29.25,30.88,73.51,29.17,-98.13,5,35.95832,-83.92443,820.25,NaN,0,23.290382,,0 / 17,1505,2022-10-28 13:52:30:928,
7.4946,-0.2157,-0.4101,9.4128,-1.9374,-1.9536,0.7838,-0.1903,-2.8502,-0.3085,0.7345,-0.5328,0,-30.54,9.53,35.12,85.09,11.39,-101.72,0,35.95832,-83.92443,820.25,NaN,0,23.290382,,0 / 17,2006,2022-10-28 13:52:31:429,
10.9705,-0.9413,-6.8524,9.2421,-2.2655,-2.371,5.6933,-3.215,-2.6807,0.5776,-0.426,-0.139,0,-22.16,6.56,37.67,90.54,13.36,-104.39,0,35.95832,-83.92443,820.25,NaN,0,23.290382,,0 / 17,2506,2022-10-28 13:52:31:929,
12.3275,-6.8198,-3.5656,7.6034,-5.7931,-2.1904,11.4141,-3.5824,2.9771,0.9,0.3596,-0.5277,0.8,-14.51,24.09,32.55,78.81,36.21,-106.07,0,35.95832,-83.92443,820.25,NaN,0,23.290382,,0 / 17,3005,2022-10-28 13:52:32:428,
7.2562,-6.9616,0.7896,7.7586,-5.4799,-2.4381,-0.5552,-1.3997,3.2231,-0.0996,-0.3457,0.4268,1.3,0.69,43.71,24.98,35.55,32.15,-107.07,0,35.95832,-83.92443,820.25,NaN,0,23.290382,,0 / 17,3506,2022-10-28 13:52:32:929,
8.071,-5.5582,0.8841,7.7101,-5.4629,-2.623,1.3147,1.5684,3.038,0.4583,-0.5868,-0.4207,0,9.99,57.62,29.33,32.45,33.85,-108.79,0,35.95832,-83.92443,820.25,NaN,0,23.290382,,0 / 17,4005,2022-10-28 13:52:33:428,
7.5966,-4.0262,-2.3692,7.5317,-5.534,-2.9697,-0.3454,1.1497,0.4647,8.00E-04,-0.245,0.2334,0,10.8,66.94,19.78,21.68,34.35,-111.52,0,35.95832,-83.92443,820.25,NaN,0,23.290382,,0 / 17,4506,2022-10-28 13:52:33:929,
5.4838,-4.2805,-2.2361,7.7031,-4.9949,-3.4471,-2.9956,0.9644,1.5865,0.1135,0.243,-0.2521,0,8.29,67.39,13.05,14.46,30.62,-114.11,0,35.95832,-83.92443,820.25,NaN,0,23.290382,,0 / 17,5005,2022-10-28 13:52:34:428,
5.7344,-3.4998,-2.3871,8.1344,-4.8948,-2.4584,-2.4464,1.3577,0.1918,0.3828,0.2036,0.1659,0,-0.32,65.04,8.78,8.77,28.96,-107.81,0,35.95832,-83.92443,820.25,NaN,0,23.290382,,0 / 17,5506,2022-10-28 13:52:34:929,
6.4899,-4.3409,-0.9443,7.8585,-5.0621,-2.9646,-0.6543,0.1329,-1.1503,-0.4728,-0.21,-0.178,0,-6.75,54.08,0.64,357.94,31.08,-110.67,0,35.95832,-83.92443,820.25,NaN,0,23.290382,,0 / 17,6006,2022-10-28 13:52:35:429,
10.6155,-6.0724,-4.4082,8.2731,-4.8477,-2.0559,6.2656,-2.815,-0.4061,0.3312,0.7839,0.1775,0,-12.73,37.52,0.15,353.33,29.63,-103.96,0,35.95832,-83.92443,820.25,NaN,0,23.290382,,0 / 17,6506,2022-10-28 13:52:35:929,
11.0704,-9.02,-5.6079,7.996,-5.244,-2.1758,4.2907,-3.3066,2.0872,0.6352,0.5198,0.1309,0,-9.86,26.79,4.71,7.39,32.33,-105.22,2,35.95832,-83.92443,820.25,NaN,0,23.290382,,0 / 17,7006,2022-10-28 13:52:36:429,
11.0432,-7.5072,-0.2225,8.1158,-4.8541,-2.5965,2.9513,-2.7463,2.3256,0.5589,0.3789,0.2592,0,-8.83,24.71,7.95,14.63,28.2,-110.38,0,35.95832,-83.92443,820.25,NaN,0,23.290382,,0 / 17,7505,2022-10-28 13:52:36:928,
9.2877,-4.5108,-0.8575,8.0201,-4.8077,-2.9555,-0.5056,1.4897,0.3473,-0.5898,-0.4568,0.0147,0,-10.5,29.14,4.78,3.56,29.36,-110.23,0,35.95832,-83.92443,820.25,NaN,0,23.290382,,17-Sep,8006,2022-10-28 13:52:37:429,
5.7329,-4.2284,-2.4359,8.2132,-4.5444,-2.8393,-2.8247,0.6428,0.4833,0.5327,-0.265,-0.3933,0,-13.37,38.29,3.32,357.31,27,-108.62,0,35.95832,-83.92443,820.25,NaN,0,23.290382,,17-Sep,8506,2022-10-28 13:52:37:929,
7.8144,-4.2817,-2.674,7.9892,-5.4499,-1.625,-0.5974,1.0854,-0.8619,-0.1975,0.0635,0.3034,0,-14.94,46.31,-2.72,348.97,33.76,-101.5,0,35.95832,-83.92443,820.25,NaN,0,23.290382,,17-Sep,9006,2022-10-28 13:52:38:429,
6.0885,-4.4602,-2.1619,7.8971,-5.2778,-2.4395,-1.6978,0.7773,0.2384,0.2798,-0.1979,-0.431,0,-15.75,47.81,-3.06,346.48,33.86,-107.46,0,35.95832,-83.92443,820.25,NaN,0,23.290382,,17-Sep,9506,2022-10-28 13:52:38:929,
6.0951,-2.5834,-0.5192,8.0094,-4.8864,-2.8537,-1.8071,1.3966,1.395,0.265,-1.5268,-0.0482,0,-20.81,44.48,0.69,347.75,29.89,-109.61,0,35.95832,-83.92443,820.25,NaN,0,23.290382,,17-Sep,10005,2022-10-28 13:52:39:428,
9.4534,-4.5135,-3.2393,8.015,-4.9176,-2.7836,2.7591,-1.7352,-0.0568,1.378,-0.7384,-0.4265,0,-21.82,46.29,2.08,348.32,30.17,-110.99,0,35.95832,-83.92443,820.25,NaN,0,23.290382,,17-Sep,10506,2022-10-28 13:52:39:929,
8.5238,-3.664,-0.1965,7.4336,-5.5193,-3.2325,4.1882,-1.074,1.8015,0.8019,-1.1436,0.2819,0,-26.59,42,-4.63,324.97,34.25,-113.5,0,35.95832,-83.92443,820.25,NaN,0,23.290382,,17-Sep,11006,2022-10-28 13:52:40:429,
10.2479,-5.7236,-4.4671,8.2179,-5.0175,-1.8603,0.5815,-0.2626,-1.1626,-0.4612,0.4673,0.1004,0,-30.3,28.78,-5.53,310.42,30.77,-102.76,0,35.95832,-83.92443,820.25,NaN,0,23.290382,,17-Sep,11505,2022-10-28 13:52:40:928,
7.3992,-5.7517,-4.3708,7.6433,-5.3787,-2.9699,-0.6739,0.2385,-0.7513,0.6016,-0.4206,-0.3241,0,-25.2,18.23,-2.36,284.77,32.84,-111.42,0,35.95832,-83.92443,820.25,NaN,0,23.290382,,17-Sep,12006,2022-10-28 13:52:41:429,
6.9009,-4.608,-2.6007,8.148,-4.8921,-2.418,-1.9255,0.0138,-0.8097,0.7315,-0.079,-0.2836,0,-23.7,1.82,2.94,203.44,30.22,-107.7,0,35.95832,-83.92443,820.25,NaN,0,23.290382,,17-Sep,12506,2022-10-28 13:52:41:929,
6.2892,-3.801,-3.9075,7.7702,-5.2936,-2.788,-0.6446,-0.9953,1.6708,0.4924,0.7849,0.1485,0,-17.81,-5.83,1.86,196.08,32.67,-109.74,0,35.95832,-83.92443,820.25,NaN,0,23.290382,,17-Sep,13006,2022-10-28 13:52:42:429,
8.4494,-4.6214,-0.3837,7.9027,-5.0275,-2.9055,0.8206,1.8314,2.71,0.7392,-0.3563,-0.6722,0,-15.67,-6.24,-3.99,217.38,30.84,-110.19,0,35.95832,-83.92443,820.25,NaN,0,23.290382,,17-Sep,13505,2022-10-28 13:52:42:928,
10.1477,-7.6549,-1.6834,7.1123,-5.6836,-3.6444,2.3554,0.1166,1.999,0.6149,-0.6886,0.0539,0,-17.96,-8.94,-3.41,216.03,32.89,-118.35,0,35.95832,-83.92443,820.25,NaN,0,23.290382,,17-Sep,14006,2022-10-28 13:52:43:429,
11.8729,-9.4846,-1.4847,7.8902,-5.2542,-2.5117,1.5333,-3.5326,-0.1895,0.2751,1.2347,-0.1589,0,-21.36,-9.62,-9.84,226.87,31.68,-113.73,0,35.95832,-83.92443,820.25,NaN,0,23.290382,,17-Sep,14506,2022-10-28 13:52:43:929,
12.6114,-7.989,-2.1975,7.7591,-4.6655,-3.7682,0.3355,1.4658,0.5316,-0.5405,0.2282,-0.0546,0,-26.76,-20.92,-13.03,220.68,28.41,-115.9,0,35.95832,-83.92443,820.25,NaN,0,23.290382,,17-Sep,15005,2022-10-28 13:52:44:428,
8.5134,-6.4277,-2.5095,8.0508,-4.4313,-3.4233,-1.424,-0.8726,-0.2992,0.4076,-0.03,0.3778,0,-25.8,-27.51,-6.86,205.68,26.86,-113.04,0,35.95832,-83.92443,820.25,NaN,0,23.290382,,17-Sep,15506,2022-10-28 13:52:44:929,
13.9896,-9.8204,-2.9118,8.0625,-4.8465,-2.7711,3.508,-1.374,1.4494,0.3554,0.5148,-0.0425,0,-21.77,-30.71,-6.86,204.2,27.37,-115.67,0,35.95832,-83.92443,820.25,NaN,0,23.290382,,17-Sep,16006,2022-10-28 13:52:45:429,
5.2104,-4.943,-3.8273,8.0949,-4.3159,-3.4665,-2.2654,-0.5578,-0.2185,0.2646,0.1871,-0.409,0,-22.33,-28.59,-13.59,213.32,26.02,-112.75,0,35.95832,-83.92443,820.25,NaN,0,23.290382,,17-Sep,16505,2022-10-28 13:52:45:928,
7.3711,-3.1029,-3.1367,8.0078,-4.6946,-3.1633,-1.6831,1.6547,-0.4822,-0.2252,-0.3676,0.2625,0,-15.86,-32.87,-20.72,218.1,28.6,-111.56,0,35.95832,-83.92443,820.25,NaN,0,23.290382,,17-May,17006,2022-10-28 13:52:46:429,
5.3626,-2.8214,-3.1343,8.114,-4.5013,-3.1736,-2.495,1.1551,0.3526,0.3198,0.059,-0.5464,0,-7.39,-30.04,-14.49,209.72,27.32,-111.36,0,35.95832,-83.92443,820.25,NaN,0,23.290382,,17-May,17505,2022-10-28 13:52:46:928,
5.8851,-2.8086,-4.6597,8.4311,-4.2427,-2.6622,-1.7952,1.7549,-0.517,0.3171,0.7894,-0.0218,0.8,4.8,-18.06,-1.2,177.17,25.16,-109.19,0,35.95832,-83.92443,820.25,NaN,0,23.290382,,0 / 17,18006,2022-10-28 13:52:47:429,
7.4949,-3.2533,-4.13,7.9409,-4.5293,-3.5493,0.1192,1.0433,-0.9367,1.1815,-0.3662,-0.3702,0.2,11.16,-0.45,15.06,83,27.27,-111.25,0,35.95832,-83.92443,820.25,NaN,0,23.290382,,0 / 17,18505,2022-10-28 13:52:47:928,
7.7043,-3.3984,-0.4564,8.0039,-4.5053,-3.4367,0.9088,1.6785,3.626,1.4442,-0.0968,-0.9427,1.1,3.69,13.95,22.89,66.33,27.35,-113.24,0,35.95832,-83.92443,820.25,NaN,0,23.290382,,0 / 17,19006,2022-10-28 13:52:48:429,
9.3503,-3.804,-1.273,7.6776,-4.4554,-4.1682,3.3315,0.3111,2.0271,0.1263,-0.6864,0.6611,1,-6.04,21.34,19.43,48.61,27.02,-118.5,0,35.95832,-83.92443,820.25,NaN,0,23.290382,,0 / 17,19505,2022-10-28 13:52:48:928,
10.506,-6.4911,-4.2117,7.7054,-4.9139,-3.5568,0.2327,-0.3778,-1.3438,0.5001,-0.7425,-0.466,2.2,-0.21,34.28,24.19,41.79,30.07,-114.78,0,35.95832,-83.92443,820.25,NaN,0,23.290382,,0 / 18,20006,2022-10-28 13:52:49:429,
6.8527,-3.909,-3.8303,8.1349,-4.5965,-2.9777,-1.1471,0.7014,-0.8573,0.1875,-0.2337,0.0607,1.5,-3.07,43.24,20.93,29.25,27.54,-109.4,0,35.95832,-83.92443,820.25,NaN,0,23.290382,,0 / 18,20506,2022-10-28 13:52:49:929,
6.4564,-3.9377,-1.7103,7.8581,-4.569,-3.6804,-0.7482,0.5159,0.2229,0.6735,-1.1996,-0.0211,1.3,-14.42,33.21,18.73,29.97,27.77,-115.1,0,35.95832,-83.92443,820.25,NaN,0,23.290382,,0 / 18,21006,2022-10-28 13:52:50:429,
12.4505,-5.5454,-5.2753,8.2075,-4.0561,-3.515,9.3012,-3.7197,0.1204,-0.1088,1.446,-0.0995,1.1,-23.57,20.18,11.87,12.52,24.43,-113.18,0,35.95832,-83.92443,820.25,NaN,0,23.290382,,0 / 18,21506,2022-10-28 13:52:50:929,
8.5202,-6.7905,-6.4334,8.137,-4.4077,-3.2452,4.9561,-2.0849,0.8641,1.1411,1.2196,-0.0148,0,-29.42,2.79,8.7,192.3,26.71,-111.74,0,35.95832,-83.92443,820.25,NaN,0,23.290382,,0 / 18,22005,2022-10-28 13:52:51:428,
9.6568,-5.1203,-2.2035,8.1863,-4.1524,-3.4515,1.3632,-1.1183,1.0937,2.00E-04,0.3079,0.2346,0,-28.89,-2.32,7.58,198.52,24.24,-114.41,0,35.95832,-83.92443,820.25,NaN,0,23.290382,,0 / 18,22505,2022-10-28 13:52:51:928,
12.0422,-6.0805,-1.9941,7.9305,-3.9762,-4.1795,0.1138,1.4099,1.5928,-0.1935,-0.2645,-0.1442,0,-25.16,-1.88,7.07,204.27,23.92,-117.79,0,35.95832,-83.92443,820.25,NaN,0,23.290382,,0 / 18,23006,2022-10-28 13:52:52:429,
6.1214,-3.4062,-3.8794,8.1433,-3.7444,-3.9795,-1.4623,0.3523,0.4417,0.2958,-0.2536,-0.3234,0,-19.46,5.25,7.5,199.63,22.45,-116.04,0,35.95832,-83.92443,820.25,NaN,0,23.290382,,0 / 18,23506,2022-10-28 13:52:52:929,
6.4481,-1.9771,-3.3129,7.7157,-3.9933,-4.5488,-0.6584,0.7761,0.2816,-0.3283,-0.6029,0.2524,0,-15.9,11.76,7.39,331.75,24.03,-120.52,0,35.95832,-83.92443,820.25,NaN,0,23.290382,,0 / 18,24006,2022-10-28 13:52:53:429,
6.8946,-2.7371,-3.0945,8.2465,-4.1681,-3.2852,-1.2196,1.3778,0.1278,-0.0489,0.7469,-0.2073,0,-12.97,18.38,3.9,351.15,25.72,-113.91,0,35.95832,-83.92443,820.25,NaN,0,23.290382,,0 / 18,24505,2022-10-28 13:52:53:928,
6.0407,-3.2758,-3.947,8.2851,-4.1793,-3.1719,-0.7552,2.0656,2.2948,0.8212,0.0564,-0.0199,0,-11.66,21.23,-0.66,340.03,25.22,-110.95,0,35.95832,-83.92443,820.25,NaN,0,23.290382,,0 / 18,25006,2022-10-28 13:52:54:429,
6.1872,-4.1109,-2.2301,8.1159,-4.2871,-3.4529,-1.5601,0.1202,-0.4307,0.2925,0.0259,-0.3015,0,-10.22,24.66,-3.6,338.36,25.92,-113.05,0,35.95832,-83.92443,820.25,NaN,0,23.290382,,0 / 18,25505,2022-10-28 13:52:54:928,
8.3955,-3.1983,-2.2056,8.6416,-3.6126,-2.9056,1.6444,0.5334,-1.648,-0.9706,-0.0049,0.0881,0,-9.54,29.16,-7.76,336.19,21.62,-108.58,0,35.95832,-83.92443,820.25,NaN,0,23.290382,,4-Jan,26006,2022-10-28 13:52:55:429,
13.8972,-8.5789,-3.6491,8.1542,-4.2486,-3.4101,3.8089,-1.5508,1.2892,0.674,-0.0314,-0.0171,0,-8.92,34.76,-12.36,334.1,25.67,-112.69,0,35.95832,-83.92443,820.25,NaN,0,23.290382,,4-Jan,26506,2022-10-28 13:52:55:929,
6.8366,-2.4861,-3.9162,7.9842,-3.6244,-4.3916,-2.9371,0.2036,-0.6287,-0.1826,-0.4387,-0.1612,0,-13.97,44.27,-15.36,332.95,22.23,-116.56,0,35.95832,-83.92443,820.25,NaN,0,23.290382,,0 / 4,27006,2022-10-28 13:52:56:429,
9.5378,-2.8537,-3.3553,8.592,-4.1286,-2.3028,1.4362,1.1331,-1.619,-0.421,0.0502,0.0567,0,-12.9,41.83,-16.5,331.41,25.37,-103.58,0,35.95832,-83.92443,820.25,NaN,0,23.290382,,0 / 4,27505,2022-10-28 13:52:56:928,
7.6549,-5.4891,-2.9387,8.1709,-5.0575,-1.9566,-6.00E-04,0.1431,0.6404,0.471,0.2063,-0.5153,0,-14.33,35.16,-11.4,330.11,31.05,-103.47,0,35.95832,-83.92443,820.25,NaN,0,23.290382,,0 / 5,28006,2022-10-28 13:52:57:429,
8.176,-6.4478,-2.0246,8.4218,-4.5685,-2.0912,-2.1037,-1.5753,-0.0091,0.8017,0.2396,-0.3712,0,-25.57,21.54,-9.64,298.95,27.77,-103.95,0,35.95832,-83.92443,820.25,NaN,0,23.290382,,0 / 5,28505,2022-10-28 13:52:57:928,
6.9835,-2.0022,-2.6201,8.1969,-4.3439,-3.18,-1.0324,1.3311,0.6876,0.4776,-1.0753,0.1259,0,-31.48,9.24,-5.61,256.68,25.69,-109.08,0,35.95832,-83.92443,820.25,NaN,0,23.290382,,0 / 5,29006,2022-10-28 13:52:58:429,
5.607,-3.6338,-2.0438,7.7931,-4.8198,-3.4939,-2.2112,-0.9924,1.5046,0.751,-0.5653,-0.3315,0,-31.37,14.04,4.41,254.34,29.19,-113.42,0,35.95832,-83.92443,820.25,NaN,0,23.290382,,0 / 5,29506,2022-10-28 13:52:58:929,
14.4885,-4.4997,-1.2778,7.7448,-4.8563,-3.5503,9.2854,-1.6023,3.2351,1.5999,-0.1501,0.0031,0,-25.56,19.31,15.39,58.64,29.68,-114.63,0,35.95832,-83.92443,820.25,NaN,0,23.290382,,0 / 5,30006,2022-10-28 13:52:59:429,
8.6889,-4.2395,-4.302,8.4868,-4.2727,-2.4264,-0.1755,-0.1772,-0.9381,-0.1509,0.0945,0.0616,0,-22.26,17.21,26.25,81.09,25.83,-105.96,0,35.95832,-83.92443,820.25,NaN,0,23.290382,,0 / 5,30506,2022-10-28 13:52:59:929,
6.358,-1.4004,-4.3286,7.9043,-4.511,-3.6528,-2.2756,0.4111,-1.9816,0.5763,-0.867,-0.0267,0,-23.57,10.03,32.66,105.8,27.05,-109.92,0,35.95832,-83.92443,820.25,NaN,0,23.290382,,0 / 5,31005,2022-10-28 13:53:00:428,
11.511,-2.9016,-3.2509,8.4413,-3.7262,-3.3212,5.186,0.2781,-0.5905,-1.8806,-0.0861,0.1161,0,-23.59,5.63,32.68,109.62,24.66,-108.57,0,35.95832,-83.92443,820.25,NaN,0,23.290382,,0 / 5,31506,2022-10-28 13:53:00:929,
11.6806,-7.1198,-1.3466,8.0837,-4.0053,-3.8447,0.5715,0.5696,0.7509,0.572,-0.6208,-0.2957,0,-27.6,-4.69,27.13,147.81,24.11,-115.44,0,35.95832,-83.92443,820.25,NaN,0,23.290382,,0 / 5,32006,2022-10-28 13:53:01:429,
5.8753,-3.501,-3.5886,8.418,-3.5659,-3.5484,-1.971,-0.1581,-0.1003,-0.4259,-0.0544,-0.0011,0.2,-25.69,-7.16,27.51,140.7,21.32,-112.86,0,35.95832,-83.92443,820.25,NaN,0,23.290382,,0 / 5,32505,2022-10-28 13:53:01:928,
6.5982,-0.8539,-1.3113,7.9388,-4.2211,-3.9151,0.5299,2.4977,1.7796,-0.255,-0.8701,-0.0161,0,-25.42,-8.31,22.5,152.57,25.45,-113.85,0,35.95832,-83.92443,820.25,NaN,0,23.290382,,0 / 6,33006,2022-10-28 13:53:02:429,
6.5094,-3.5868,-3.9162,8.4489,-3.8121,-3.2023,-1.8485,0.2181,-0.6273,0.6299,0.3178,-0.4438,1,-25.01,-4.91,22.84,144.95,24.11,-111.43,0,35.95832,-83.92443,820.25,NaN,0,23.290382,,0 / 6,33506,2022-10-28 13:53:02:929,
5.7637,-2.3324,-2.6776,8.4646,-3.5873,-3.4135,0.1916,0.9962,1.913,0.162,-0.0458,0.1178,0,-26.23,-4.86,21.58,147.06,21.46,-111.96,0,35.95832,-83.92443,820.25,NaN,0,23.290382,,0 / 6,34006,2022-10-28 13:53:03:429,
8.3545,-6.8396,-5.284,8.4287,-4.1321,-2.8378,4.7732,-5.1396,-1.0823,-1.0435,-0.6053,0.5704,0,-27.69,-2.89,20.78,146.75,24.92,-108.61,0,35.95832,-83.92443,820.25,NaN,0,23.290382,,0 / 6,34505,2022-10-28 13:53:03:928,
14.31,-3.352,-2.8053,8.7349,-3.5149,-2.7418,3.3274,-2.339,0.3803,-0.4008,0.2563,-0.151,0.2,-31.14,-7.22,22.22,149.02,21,-107.43,0,35.95832,-83.92443,820.25,NaN,0,23.290382,,0 / 6,35006,2022-10-28 13:53:04:429,
8.7903,-2.1179,-2.6405,8.4023,-3.7917,-3.3458,-0.6527,2.1162,0.3648,0.2941,-0.4645,0.0483,0,-28.88,-2.87,23.81,145.95,23.32,-111.9,0,35.95832,-83.92443,820.25,NaN,0,23.290382,,0 / 6,35505,2022-10-28 13:53:04:928,
6.8486,-4.4662,-2.3297,8.7265,-3.496,-2.7924,-2.0525,0.3629,-0.1641,1.0432,-0.4122,-0.367,0.2,-25.07,9.73,25.67,96.56,20.88,-107.74,0,35.95832,-83.92443,820.25,NaN,0,23.290382,,0 / 7,36006,2022-10-28 13:53:05:429,
7.1246,-2.7009,-4.8811,8.6734,-3.9348,-2.3367,-1.9897,1.2261,-2.2518,0.1415,-0.2432,0.1366,0.2,-22.57,22.28,20.36,55.52,23.66,-105.08,0,35.95832,-83.92443,820.25,NaN,0,23.290382,,0 / 7,36506,2022-10-28 13:53:05:929,
6.6359,-1.9729,-1.04,8.2098,-4.1877,-3.3515,0.5291,-0.8115,-2.4344,1.6608,-1.6805,-0.5869,0.5,-16.46,37.18,19.07,25.63,25.28,-112.21,0,35.95832,-83.92443,820.25,NaN,0,23.290382,,0 / 7,37005,2022-10-28 13:53:06:428,
9.4732,-2.3462,2.056,8.3045,-4.1754,-3.1261,1.1112,1.9937,5.108,2.2063,0.0725,-1.0329,1.8,-19.22,37.88,21.23,24.68,25.39,-115.88,0,35.95832,-83.92443,820.25,NaN,0,23.290382,,0 / 7,37506,2022-10-28 13:53:06:929,
10.2129,-2.5202,-0.6467,8.4924,-3.8505,-3.037,5.559,-1.083,0.4488,-0.4142,-0.8695,-0.2036,0.5,-15.39,45.32,30.13,36.05,23.12,-109.68,0,35.95832,-83.92443,820.25,NaN,0,23.290382,,7-Mar,38005,2022-10-28 13:53:07:428,
7.0226,-5.2253,-4.8622,8.2222,-4.5268,-2.8414,-0.7203,-0.3173,-1.0205,1.2011,-0.4986,-0.3883,1.7,-8.57,44.38,45,54.42,27.49,-109.06,0,35.95832,-83.92443,820.25,NaN,0,23.290382,,7-Mar,38506,2022-10-28 13:53:07:929,
5.9402,-3.559,-2.4042,8.3234,-4.1733,-3.0781,-0.7726,0.1888,0.3821,0.3762,-0.4985,0.14,1,-18.36,38.64,30.47,42.76,25.19,-110.29,0,35.95832,-83.92443,820.25,NaN,0,23.290382,,7-Mar,39006,2022-10-28 13:53:08:429,
7.6367,-4.9756,-3.6523,7.9283,-4.1721,-3.9883,-0.1421,-0.857,0.1574,0.7441,-0.82,-0.3542,0.3,-22.61,27.17,29.18,57.3,24.97,-115.53,0,35.95832,-83.92443,820.25,NaN,0,23.290382,,7-Mar,39506,2022-10-28 13:53:08:929,
16.8936,-5.4422,-4.8547,8.3901,-3.6331,-3.5463,3.5379,-3.2251,0.7677,-0.3437,0.8027,0.2457,0.2,-19.22,24.81,29.53,58.48,21.75,-112.91,0,35.95832,-83.92443,820.25,NaN,0,23.290382,,7-Mar,40006,2022-10-28 13:53:09:429,
9.6607,-3.1732,-2.3273,8.0845,-4.1149,-3.7254,-0.5973,2.1956,0.8262,-0.3425,-0.0246,0.0355,0,-19.76,19.31,29.98,77,24.81,-114.74,0,35.95832,-83.92443,820.25,NaN,0,23.290382,,7-Mar,40506,2022-10-28 13:53:09:929,
6.0709,-4.4668,-4.6292,7.5693,-4.3627,-4.4545,-1.3965,-0.5387,-0.0582,-0.0418,-0.4734,-0.0654,0,-14.81,21.79,25.5,61.35,26.42,-120.48,0,35.95832,-83.92443,820.25,NaN,0,23.290382,,7-Mar,41006,2022-10-28 13:53:10:429,
7.0328,-2.2887,-2.9919,8.0927,-4.6418,-3.022,-0.8665,2.2858,-0.0254,0.2056,-0.1096,-0.0281,0,-13.93,21.92,21.62,58.89,28.33,-110.43,0,35.95832,-83.92443,820.25,NaN,0,23.290382,,7-Mar,41506,2022-10-28 13:53:10:929,
6.6715,-3.5031,-3.2994,8.3349,-4.2859,-2.8863,-2.0851,0.5746,0.2651,-0.4077,0.4767,-0.2799,0,-15.15,24.51,13.89,30.21,25.92,-109.1,0,35.95832,-83.92443,820.25,NaN,0,23.290382,,7-Mar,42005,2022-10-28 13:53:11:428,
6.5752,-3.0036,-1.5873,8.4948,-3.8005,-3.0927,-1.0424,-0.3662,1.2649,-0.6144,0.006,0.3489,0,-17.91,26.79,10.52,14.34,22.16,-109.38,0,35.95832,-83.92443,820.25,NaN,0,23.290382,,7-Mar,42507,2022-10-28 13:53:11:930,
5.5699,-3.0084,-2.1873,8.3225,-4.0549,-3.2348,-2.3939,-0.3318,2.172,0.1202,0.045,-0.1597,0,-16.87,33.06,11.79,13.04,24.42,-111.24,0,35.95832,-83.92443,820.25,NaN,0,23.290382,,7-Mar,43005,2022-10-28 13:53:12:428,
7.7946,-2.9548,-4.2467,8.9202,-3.084,-2.6625,5.4051,1.8076,-0.0779,-1.1864,-0.4383,0.047,0,-19.48,35.63,10.95,10.53,18.33,-106.62,0,35.95832,-83.92443,820.25,NaN,0,23.290382,,7-Mar,43506,2022-10-28 13:53:12:929,
11.0139,-6.8312,-5.3477,8.6323,-3.7018,-2.8197,4.8522,-5.5627,-0.3984,0.6305,0.4852,-0.0489,0,-18.17,38.31,16.11,19.71,22.18,-108.09,0,35.95832,-83.92443,820.25,NaN,0,23.290382,,7-Mar,44006,2022-10-28 13:53:13:429,
13.5227,-5.9623,-1.0026,8.6354,-3.808,-2.6643,3.522,-2.9953,1.0799,-0.1038,0.4181,0.0703,0,-14.77,40.89,16.03,18.83,22.23,-108.38,0,35.95832,-83.92443,820.25,NaN,0,23.290382,,7-Mar,44506,2022-10-28 13:53:13:929,
8.2445,-3.6867,-2.988,8.3282,-3.9982,-3.2903,0.409,1.1618,-2.0602,0.4652,-0.7815,-0.2529,0,-10.03,37.14,15.99,22.1,24.06,-111.56,0,35.95832,-83.92443,820.25,NaN,0,23.290382,,7-Mar,45005,2022-10-28 13:53:14:428,
8.7838,-2.9336,-5.0486,8.3115,-4.3173,-2.9069,-0.9939,-1.5385,1.3549,0.0834,-0.9512,-0.3118,0,-4.01,30.88,4.65,7.61,26.12,-109.28,0,35.95832,-83.92443,820.25,NaN,0,23.290382,,7-Mar,45506,2022-10-28 13:53:14:929,
8.0943,-5.0097,1.491,8.8212,-4.1517,-1.0579,-0.8025,-0.4677,3.5475,1.2205,0.2527,-0.061,0,-4.63,13.86,-20.19,298.44,25.63,-93.37,0,35.95832,-83.92443,820.25,NaN,0,23.290382,,7-Mar,46006,2022-10-28 13:53:15:429,
10.5706,-3.0712,-2.5196,8.3591,-3.7376,-3.5108,1.4951,1.7522,0.1202,1.5272,-1.1507,-0.7964,1.3,-8.76,-3.88,-26.68,263.35,23.57,-110.19,0,35.95832,-83.92443,820.25,NaN,0,23.290382,,7-Mar,46506,2022-10-28 13:53:15:929,
6.0748,-3.5198,-3.047,8.6178,-3.6249,-2.9604,-2.8138,1.6601,0.2568,0.6479,0.0638,-0.439,0,-8.48,-17.29,-15.71,226.76,21.69,-108.96,0,35.95832,-83.92443,820.25,NaN,0,23.290382,,6-Mar,47006,2022-10-28 13:53:16:429,
5.8555,-1.8529,-3.772,8.4694,-4.006,-2.8969,-2.9043,1.2416,-0.1618,0.3279,0.047,0.1788,0,-0.22,-19.24,-6.81,201.97,24.11,-108.88,0,35.95832,-83.92443,820.25,NaN,0,23.290382,,6-Mar,47505,2022-10-28 13:53:16:928,
6.6861,-4.0235,-1.4234,7.9448,-5.1949,-2.4626,-0.8328,1.205,0.3075,2.4093,-0.8216,-0.4333,0,7.58,-9.88,7.33,122.45,31.04,-109.89,0,35.95832,-83.92443,820.25,NaN,0,23.290382,,0 / 6,48006,2022-10-28 13:53:17:429,
10.2888,-2.2756,0.4382,8.246,-4.2115,-3.2307,2.1016,1.4988,3.4352,-0.5615,-0.5595,-0.2201,0,10.8,1.18,14.1,79.65,26.6,-111.94,0,35.95832,-83.92443,820.25,NaN,0,23.290382,,0 / 6,48506,2022-10-28 13:53:17:929,
7.2257,-1.7091,-2.8128,8.1783,-3.9578,-3.6907,-1.4834,1.5533,0.3597,-0.3996,-0.2327,0.2365,0.2,8.44,5.06,22.88,81.33,23.8,-114.29,0,35.95832,-83.92443,820.25,NaN,0,23.290382,,0 / 6,49005,2022-10-28 13:53:18:428,
5.9429,-2.7443,-3.5569,8.4238,-3.8413,-3.2332,-2.6988,0.6713,0.5972,0.0518,0.0832,-0.3786,0.6,7.78,4.61,22.71,79.99,23.06,-111,0,35.95832,-83.92443,820.25,NaN,0,23.290382,,0 / 6,49505,2022-10-28 13:53:18:928,
6.1187,-2.2463,-1.8218,8.7005,-3.3311,-3.0621,-1.2466,1.8519,1.4769,0.1633,0.0653,0.0724,2.2,51.41,-28.84,1.5,120.6,19.72,-109.83,0,35.95832,-83.92443,820.25,NaN,0,23.290382,,0 / 6,50006,2022-10-28 13:53:19:429,
8.4841,-4.4414,-3.5145,8.3072,-4.1279,-3.1814,0.3815,-0.5021,-1.6861,-0.3593,-0.4764,0.4053,0,47.21,-31.44,-3.17,124.93,24.74,-109.96,0,35.95832,-83.92443,820.25,NaN,0,23.290382,,0 / 6,50506,2022-10-28 13:53:19:929,
15.0724,-2.9994,-2.5519,8.7446,-3.5712,-2.6359,4.495,-2.9797,0.9102,0.7098,0.5064,-0.1823,0,41.72,-34.29,-7.2,161.59,21.36,-106.77,0,35.95832,-83.92443,820.25,NaN,0,23.290382,,0 / 6,51005,2022-10-28 13:53:20:428,
7.008,-2.6746,-2.3812,8.5294,-3.5728,-3.2643,-1.3642,2.2119,0.4722,0.8784,-0.3295,-0.0868,0,38.68,-35.78,-7.44,159.06,21.37,-110.94,0,35.95832,-83.92443,820.25,NaN,0,23.290382,,0 / 6,51505,2022-10-28 13:53:20:928,
7.1004,-3.5683,-3.3924,8.6997,-3.7189,-2.5798,-2.7472,0.5834,-0.3964,0.0237,0.3783,-0.3337,0,37.37,-31.35,-4.46,155.7,22.29,-106.52,0,35.95832,-83.92443,820.25,NaN,0,23.290382,,0 / 6,52006,2022-10-28 13:53:21:429,
5.9824,-2.1191,-2.5588,8.6088,-3.701,-2.8916,-2.8124,1.4516,0.3157,-0.5572,-0.026,0.2931,0,37.54,-27.97,-2.36,141.35,22.01,-107.84,0,35.95832,-83.92443,820.25,NaN,0,23.290382,,0 / 6,52506,2022-10-28 13:53:21:929,
5.3605,-2.9273,-2.4954,8.47,-4.0191,-2.8768,-3.4763,0.6608,0.2066,-0.2388,0.1306,-0.3819,0,40.35,-24.67,1.31,118.23,24.19,-108.76,0,35.95832,-83.92443,820.25,NaN,0,23.290382,,0 / 6,53006,2022-10-28 13:53:22:429,
6.4457,-1.7674,-1.4725,8.6936,-3.6074,-2.7528,-0.8403,1.3009,0.5358,0.7266,-0.6165,-0.0082,0,39.77,-25.46,1.28,125.61,21.58,-107.57,0,35.95832,-83.92443,820.25,NaN,0,23.290382,,0 / 6,53506,2022-10-28 13:53:22:929,
8.9827,-2.6237,-1.8811,8.3497,-4.0193,-3.2092,3.4452,-3.0232,-3.9209,0.9502,-1.7077,-0.0795,0,41.38,-19.91,1.99,99.76,24.2,-111.02,0,35.95832,-83.92443,820.25,NaN,0,23.290382,,0 / 6,54006,2022-10-28 13:53:23:429,
15.3802,-3.0673,-1.25,8.4859,-4.1588,-2.6199,7.0165,1.4113,1.324,0.9906,-0.2562,-0.4572,1.1,46.05,2.23,-6.92,19.99,25.87,-108.47,0,35.95832,-83.92443,820.25,NaN,0,23.290382,,0 / 6,54506,2022-10-28 13:53:23:929,
10.1061,-2.3743,0.2596,8.6127,-3.9227,-2.5699,3.5542,0.5338,0.9151,0.3268,-1.3988,-0.0775,0.6,51.9,22.74,-2.91,16.17,23.58,-106.61,0,35.95832,-83.92443,820.25,NaN,0,23.290382,,0 / 6,55006,2022-10-28 13:53:24:429,
7.9484,-4.7521,-4.1318,8.2317,-4.5645,-2.7523,-0.2176,-0.4448,-1.885,0.9241,-0.7343,-0.1833,5,58.63,27.71,-6.21,14.13,27.74,-108.49,0,35.95832,-83.92443,820.25,NaN,0,23.290382,,0 / 6,55506,2022-10-28 13:53:24:929,
7.5736,-2.7688,-3.7334,8.7258,-4.0402,-1.9257,0.2189,0.3813,-1.9325,0.5381,0.0682,-0.2136,0.9,49.63,6,-20.38,342.26,24.33,-102.45,0,35.95832,-83.92443,820.25,NaN,0,23.290382,,0 / 6,56007,2022-10-28 13:53:25:430,
5.9333,-2.983,-2.6563,8.2367,-4.1406,-3.3441,-2.1423,1.0984,0.5816,0.4501,-0.2269,-0.303,0.1,35.57,-20.78,-18.9,250.1,25.5,-111.87,0,35.95832,-83.92443,820.25,NaN,0,23.290382,,0 / 6,56505,2022-10-28 13:53:25:928,
7.5006,-0.8073,-1.1602,8.6617,-3.5129,-2.9673,1.5916,0.8336,0.2741,0.1878,-0.1726,-0.0352,0,27.69,-42.58,-14.34,188.17,20.99,-108.91,0,35.95832,-83.92443,820.25,NaN,0,23.290382,,0 / 6,57006,2022-10-28 13:53:26:429,
8.8205,-2.5932,-3.6616,8.2433,-4.231,-3.2121,-0.1711,-0.5942,-4.3413,0.0888,-1.0138,0.4627,0,27.69,-46.12,-12.58,183.95,25.56,-111.29,0,35.95832,-83.92443,820.25,NaN,0,23.290382,,0 / 6,57505,2022-10-28 13:53:26:928,
14.1344,-2.6644,-6.7095,8.9033,-3.2455,-2.5235,5.0299,-3.8154,1.7206,-0.575,0.0711,-0.3149,0,27.98,-43.56,-10.03,183.58,19.33,-105.82,0,35.95832,-83.92443,820.25,NaN,0,23.290382,,0 / 7,58006,2022-10-28 13:53:27:429,
14.1054,-5.6509,-1.8706,8.6519,-3.7333,-2.7162,5.814,-2.0523,0.8067,0.3228,-0.0929,-0.0559,0,25.59,-40.43,-11.61,187.53,21.51,-107.67,0,35.95832,-83.92443,820.25,NaN,0,23.290382,,0 / 7,58508,2022-10-28 13:53:27:931,
11.3674,-6.1229,-2.2442,8.6041,-3.6539,-2.9645,-2.1731,-0.195,-0.0418,0.1705,-0.226,-0.1798,0,21.32,-30.92,-12.11,192.75,21.88,-109.01,0,35.95832,-83.92443,820.25,NaN,0,23.290382,,0 / 8,59006,2022-10-28 13:53:28:429,
6.763,-2.2615,-2.2283,8.3914,-3.8815,-3.2695,-2.0529,2.1844,0.7694,0.2449,-0.3716,-0.2531,0,18.77,-22.12,-11.74,202.6,23.65,-110.15,0,35.95832,-83.92443,820.25,NaN,0,23.290382,,0 / 8,59506,2022-10-28 13:53:28:929,
11.8729,-6.571,-2.1153,8.5584,-3.5653,-3.1959,-4.4501,-0.1067,1.3471,0.1952,0.0037,-0.2326,0,17.34,-12.97,-8.14,196.27,21.32,-110.48,0,35.95832,-83.92443,820.25,NaN,0,23.290382,,8-Mar,60006,2022-10-28 13:53:29:429,
4.9848,-1.3717,-2.4565,8.5328,-3.7488,-3.051,-2.7164,2.6011,1.206,0.3157,-0.2398,0.0829,0,18.47,-9.47,-5.7,158.91,22.47,-109.68,0,35.95832,-83.92443,820.25,NaN,0,23.290382,,8-Mar,60507,2022-10-28 13:53:29:930,
5.6145,-3.3446,-2.7939,8.6839,-3.4263,-3.0035,-3.1063,0.2398,0.3261,-0.129,0.1871,-0.3028,0,22.05,-5.34,-4.31,45.91,21.63,-109.57,0,35.95832,-83.92443,820.25,NaN,0,23.290382,,8-Mar,61005,2022-10-28 13:53:30:428,
6.0526,-2.2573,-1.9448,8.6573,-3.6541,-2.8051,-2.7748,1.0868,1.3747,-0.4273,0.3076,0.2913,0,21.09,-5.76,-6.54,357.76,21.22,-108.19,0,35.95832,-83.92443,820.25,NaN,0,23.290382,,8-Mar,61506,2022-10-28 13:53:30:929,
6.1675,-3.428,-2.7679,8.5177,-3.9277,-2.8622,-3.4828,0.9784,1.5071,0.7544,-0.2211,-0.5918,0,21.41,-2.18,-14.01,320.29,23.61,-108.57,0,35.95832,-83.92443,820.25,NaN,0,23.290382,,8-Mar,62006,2022-10-28 13:53:31:429,
7.2165,-3.5282,-2.1891,8.7776,-3.5785,-2.5136,2.1265,1.4571,0.5636,-0.8049,-0.7101,0.0877,0,21.6,-1.84,-25.44,294.96,21.4,-105.98,0,35.95832,-83.92443,820.25,NaN,0,23.290382,,8-Mar,62505,2022-10-28 13:53:31:928,
9.2489,-4.0005,1.0792,8.9279,-3.8248,-1.354,-1.0968,-0.5879,1.5831,1.2568,1.2675,0.0589,0,21.69,-7.93,-15.52,284.96,23.37,-104.35,0,35.95832,-83.92443,820.25,NaN,0,23.290382,,8-Mar,63006,2022-10-28 13:53:32:429,
4.815,-5.0486,-2.0447,8.463,-3.5707,-3.4348,-2.4891,-1.4095,0.7825,0.1359,-0.3612,-0.2317,0,15.11,-19.97,-3.82,172.71,21.61,-111.04,0,35.95832,-83.92443,820.25,NaN,0,23.290382,,8-Mar,63506,2022-10-28 13:53:32:929,
7.6854,-1.2105,-3.6185,8.8732,-3.2817,-2.5821,-1.2178,1.6597,-0.3598,0.406,0.3828,0.1733,0,13.95,-33.81,1.09,170,19.55,-106.22,0,35.95832,-83.92443,820.25,NaN,0,23.290382,,8-Mar,64005,2022-10-28 13:53:33:428,
7.0678,-3.0263,-1.6687,8.2515,-4.0038,-3.4716,-0.2982,4.149,1.798,2.2433,-1.1894,-0.2312,0,18.19,-28.24,3.86,151.22,24.1,-112.82,0,35.95832,-83.92443,820.25,NaN,0,23.290382,,8-Mar,64507,2022-10-28 13:53:33:930,
11.3366,-1.1791,0.3514,8.7345,-4.1866,-1.5333,5.51,5.3463,4.2857,-0.0582,-1.1424,-0.4496,0,26.44,-11.17,0.39,60.2,27.25,-97.79,0,35.95832,-83.92443,820.25,NaN,0,23.290382,,8-Mar,65006,2022-10-28 13:53:34:429,
10.7471,-4.4148,-0.2234,8.7114,-3.858,-2.3234,4.4592,-0.0179,1.6245,0.1313,-1.1326,-0.3681,0,19.24,-17.91,6.34,132.46,21.06,-110.08,0,35.95832,-83.92443,820.25,NaN,0,23.290382,,8-Mar,65505,2022-10-28 13:53:34:928,
5.6366,-4.3271,-2.4864,8.6351,-3.4403,-3.1256,-2.1566,-0.744,0.9443,-0.1248,0.0803,-0.2892,0,13.76,-18.6,6.45,143.16,20.54,-109.9,0,35.95832,-83.92443,820.25,NaN,0,23.290382,,8-Mar,66006,2022-10-28 13:53:35:429,
6.3676,-2.6438,-2.5283,8.715,-3.4428,-2.8925,-3.2408,0.6138,0.8331,-0.7768,0.1779,0.3902,0,11.01,-29.57,5.83,159.94,20.55,-108.36,0,35.95832,-83.92443,820.25,NaN,0,23.290382,,8-Mar,66506,2022-10-28 13:53:35:929,
5.8762,-4.2218,-2.7126,8.2583,-4.227,-3.1786,-2.5379,0.7959,0.1984,-0.0689,0.0948,-0.0609,0,11.72,-31.44,7.44,155.5,26.15,-111.87,0,35.95832,-83.92443,820.25,NaN,0,23.290382,,8-Mar,67006,2022-10-28 13:53:36:429,
15.5055,-3.1316,-6.4014,8.8365,-3.2728,-2.7156,8.973,-0.9041,-2.3891,0.1442,0.9637,-0.1128,0,10.65,-32.42,8.16,158.76,19.67,-105.15,0,35.95832,-83.92443,820.25,NaN,0,23.290382,,8-Mar,67507,2022-10-28 13:53:36:930,
17.5295,-10.7327,-4.995,8.5039,-4.2003,-2.4925,6.2362,-3.5343,0.2341,0.6839,0.4673,-0.1279,0,10.41,-27.11,4.26,162.24,25.36,-106.34,0,35.95832,-83.92443,820.25,NaN,0,23.290382,,8-Mar,68007,2022-10-28 13:53:37:430,
13.3651,-6.475,-2.3581,8.7688,-3.3735,-2.8104,-2.817,-0.5227,0.5935,0.7265,0.5363,-0.2369,0,13.89,-18.79,4.03,149.42,20.12,-107.77,0,35.95832,-83.92443,820.25,NaN,0,23.290382,,8-Mar,68506,2022-10-28 13:53:37:929,
11.9459,-5.0309,-2.3291,8.5025,-3.8375,-3.0252,-1.3015,3.9743,0.173,0.8233,-0.6816,-0.3438,0,17.44,-11.06,0.66,120.98,23.04,-109.59,0,35.95832,-83.92443,820.25,NaN,0,23.290382,,8-Mar,69006,2022-10-28 13:53:38:429,
6.0257,-3.5297,-2.5989,8.6135,-3.3321,-3.2977,-2.2442,-0.4995,0.5259,-0.0513,-0.0432,-0.2793,0,21.13,-3.52,-1.63,54.91,20.54,-108.91,0,35.95832,-83.92443,820.25,NaN,0,23.290382,,8-Mar,69506,2022-10-28 13:53:38:929,
6.1741,-1.6582,-3.1193,8.6154,-3.6082,-2.9876,-1.905,2.5387,-0.2119,0.2433,-0.4892,0.1568,0,21.08,-5.83,-0.04,75.96,21.59,-109.13,0,35.95832,-83.92443,820.25,NaN,0,23.290382,,0 / 8,70005,2022-10-28 13:53:39:428,
5.7781,-3.3697,-2.7556,8.6469,-3.5884,-2.9198,-3.3389,1.7265,0.654,0.6532,0.1355,-0.4286,0,12.13,11.25,19.03,60.87,21.46,-108.66,0,35.95832,-83.92443,820.25,NaN,0,23.290382,,0 / 8,70506,2022-10-28 13:53:39:929,
5.9462,-1.5233,-3.8387,8.677,-3.7164,-2.6588,-2.5897,1.8331,0.2673,0.2409,-0.0447,0.1927,0,17.31,1.13,20.79,79.26,22.27,-107.04,0,35.95832,-83.92443,820.25,NaN,0,23.290382,,0 / 8,71006,2022-10-28 13:53:40:429,
5.6964,-3.9428,-1.8963,8.5464,-4.4018,-1.9375,-2.8639,0.4405,-0.0572,3.5226,-0.2517,-0.515,0,32.25,5.7,23.36,64.69,24.83,-108.51,0,35.95832,-83.92443,820.25,NaN,0,23.290382,,0 / 8,71506,2022-10-28 13:53:40:929,
7.9364,-5.3079,1.6905,8.9239,-4.0564,-0.2813,-0.2868,1.3779,2.0986,2.9604,1.093,-0.2845,0.2,34.24,20.53,12,21.59,24.43,-91.81,0,35.95832,-83.92443,820.25,NaN,0,23.290382,,0 / 8,72005,2022-10-28 13:53:41:428,
10.3807,-2.6393,0.0574,8.6447,-3.9415,-2.4298,5.1735,0.1058,0.9789,0.7033,-1.361,-0.1842,1,24.68,22.93,11.83,31.9,23.7,-105.7,0,35.95832,-83.92443,820.25,NaN,0,23.290382,,0 / 8,72506,2022-10-28 13:53:41:929,
7.9618,-4.413,-3.5865,8.4029,-3.8653,-3.2591,-0.5971,1.2693,-1.3537,1.4947,-0.6904,-0.7575,2.1,16.78,16.93,15.83,47.08,23.21,-111.2,0,35.95832,-83.92443,820.25,NaN,0,23.290382,,0 / 8,73006,2022-10-28 13:53:42:429,
7.6947,-2.3656,-3.393,8.812,-3.5737,-2.3976,-0.9763,1.208,-1.0053,-0.5308,0.1474,0.0432,0,8.79,3.68,7.18,55.43,21.71,-104.99,0,35.95832,-83.92443,820.25,NaN,0,23.290382,,0 / 8,73505,2022-10-28 13:53:42:928,
8.7368,-3.4606,-4.8224,8.2038,-3.9627,-3.6284,0.7916,-0.4252,-3.3172,-0.6645,-1.2906,0.1232,0,11.04,-7.24,11.42,105.91,23.83,-113.86,0,35.95832,-83.92443,820.25,NaN,0,23.290382,,0 / 8,74006,2022-10-28 13:53:43:429,
17.7482,-5.1906,-3.178,8.7727,-3.1525,-3.0451,8.4976,-4.7885,0.8025,1.1815,1.2606,-0.2824,0,18.83,-8.42,14.66,99.42,18.75,-109.14,0,35.95832,-83.92443,820.25,NaN,0,23.290382,,0 / 8,74506,2022-10-28 13:53:43:929,
9.0168,-3.1325,-3.1848,8.2987,-3.7946,-3.5921,3.4207,-6.63,0.0294,-0.6235,-0.5383,0.4043,0,27.32,-4.69,14.31,83.17,22.76,-113.41,0,35.95832,-83.92443,820.25,NaN,0,23.290382,,0 / 8,75006,2022-10-28 13:53:44:429,
14.8445,-6.9574,-2.5328,8.8481,-3.6348,-2.1609,0.7521,-1.4792,1.1557,-0.0622,0.8374,-0.0744,0,31.84,0.84,11.76,59.37,21.76,-103.72,0,35.95832,-83.92443,820.25,NaN,0,23.290382,,0 / 8,75506,2022-10-28 13:53:44:929,
9.7125,-9.7056,-6.1911,8.1668,-4.5889,-2.901,7.9266,-6.3583,-0.7339,0.6327,-0.0372,0.4507,0,34.28,5.42,9.86,49.38,27.9,-109.56,0,35.95832,-83.92443,820.25,NaN,0,23.290382,,0 / 8,76006,2022-10-28 13:53:45:429,
13.5347,-8.1218,-1.1228,8.872,-3.5767,-2.16,1.6959,-3.2236,1.1664,0.7213,1.4922,-0.1964,0,34.76,8.48,8.89,49.9,20.53,-111.32,0,35.95832,-83.92443,820.25,NaN,0,23.290382,,0 / 8,76507,2022-10-28 13:53:45:930,
7.5156,-2.7879,-1.931,8.4163,-3.9982,-3.0578,-0.8008,2.7575,0.4555,0.3848,-0.6364,-0.1775,0,33.24,11.87,5.72,36.6,24.06,-109.97,0,35.95832,-83.92443,820.25,NaN,0,23.290382,,0 / 8,77007,2022-10-28 13:53:46:430,
5.9462,-4.2141,-2.1655,8.7399,-3.571,-2.652,-3.8407,-0.2949,-0.6293,0.2109,0.3722,-0.613,0,31.58,16.2,-0.88,17.67,21.35,-106.88,0,35.95832,-83.92443,820.25,NaN,0,23.290382,,0 / 8,77505,2022-10-28 13:53:46:928,
9.9479,-5.1769,-1.1408,8.5271,-3.8321,-2.9621,-2.5983,1.2633,1.2028,0.1704,-0.3854,0.2036,0,31.01,21.9,-6.66,8.49,21.98,-111.42,0,35.95832,-83.92443,820.25,NaN,0,23.290382,,6-Jan,78006,2022-10-28 13:53:47:429,
9.02,-4.483,-1.6304,8.7552,-3.3477,-2.8827,-1.2388,-0.4191,0.8276,0.4327,0.4581,-0.2221,0,35.93,29.04,-8.66,4.65,20.22,-109.07,0,35.95832,-83.92443,820.25,NaN,0,23.290382,,6-Jan,78506,2022-10-28 13:53:47:929,
10.2978,-3.8154,-1.5162,8.5153,-3.4951,-3.383,-0.4665,2.9038,-0.6199,0.8104,-1.3996,-0.5331,0,35.16,33.38,-12.71,1.09,20.88,-111.67,0,35.95832,-83.92443,820.25,NaN,0,23.290382,,0 / 5,79006,2022-10-28 13:53:48:429,
6.4935,-5.3234,-4.2176,8.7099,-3.6022,-2.7078,-1.9032,-0.6513,-1.2534,0.8926,-0.188,-0.3648,0,30.32,27.19,-20.46,344.92,21.55,-107.27,0,35.95832,-83.92443,820.25,NaN,0,23.290382,,0 / 5,79506,2022-10-28 13:53:48:929,
9.9512,-2.4176,-3.2557,8.9737,-3.6593,-1.5009,0.0307,1.6264,-2.5276,0.3343,0.6559,0.0031,0,19.91,-2.1,-22.78,288.59,22.35,-97.35,0,35.95832,-83.92443,820.25,NaN,0,23.290382,,0 / 5,80005,2022-10-28 13:53:49:428,
7.0301,-5.7823,-4.0241,8.3402,-4.2651,-2.9017,-0.9965,-0.8746,1.4771,0.6283,-1.4288,-0.0855,0,14.76,-16.84,-15.64,237.13,25.01,-104.6,0,35.95832,-83.92443,820.25,NaN,0,23.290382,,0 / 5,80506,2022-10-28 13:53:49:929,
8.7613,-1.681,1.5021,8.7685,-4.0919,-1.594,1.239,2.9345,2.7156,2.3547,0.9727,-0.5691,0,12.32,-14.79,4.01,145.96,24.66,-100.3,0,35.95832,-83.92443,820.25,NaN,0,23.290382,,0 / 5,81006,2022-10-28 13:53:50:429,
13.2338,-3.117,-2.5693,8.489,-4.3668,-2.2446,2.277,1.0876,-0.7449,1.8305,-1.2436,0.1048,0,7.84,-17.42,9.99,137.8,26.44,-104.81,0,35.95832,-83.92443,820.25,NaN,0,23.290382,,0 / 5,81506,2022-10-28 13:53:50:929,
5.0145,-2.6279,-2.8666,8.4176,-4.2058,-2.7614,-3.112,1.8117,0.0988,-0.5766,-0.9784,-0.429,0,1.18,-24.34,2.21,174.06,27.04,-107.32,0,35.95832,-83.92443,820.25,NaN,0,23.290382,,0 / 5,82005,2022-10-28 13:53:51:428,
4.9741,-2.7072,-1.3639,8.6135,-3.9354,-2.5476,-3.4172,1.5602,1.1342,0.7626,-0.1272,0.1371,0,-1.99,-38.78,0.81,179.52,23,-108.65,0,35.95832,-83.92443,820.25,NaN,0,23.290382,,0 / 5,82506,2022-10-28 13:53:51:929,
5.8929,-2.9871,-2.4,8.3414,-4.2088,-2.9796,-3.3981,1.6546,1.9201,0.0677,0.2876,-0.1865,0,-3.62,-39.11,-7.63,193.97,25.42,-109.66,0,35.95832,-83.92443,820.25,NaN,0,23.290382,,0 / 5,83006,2022-10-28 13:53:52:429,
8.1215,-2.2986,-1.1791,8.6155,-3.597,-3.0009,0.4273,-1.3479,-0.7295,0.1582,0.0354,0.0941,0,1.69,-38.48,-8.87,193.15,21.52,-109.2,0,35.95832,-83.92443,820.25,NaN,0,23.290382,,0 / 5,83506,2022-10-28 13:53:52:929,
5.0937,-3.9168,-1.7809,8.3945,-4.0754,-3.0157,0.379,2.0417,-2.2173,0.4215,0.1022,-0.3327,0,10.63,-31.76,-4.97,182.34,24.56,-109.76,0,35.95832,-83.92443,820.25,NaN,0,23.290382,,0 / 4,84005,2022-10-28 13:53:53:428,
4.6295,-2.2271,-1.5586,8.6371,-3.7837,-2.6934,-3.4407,1.5863,1.415,0.3544,-0.2392,0.1386,0,17.81,-26.51,-1.95,169.19,22.25,-107.44,0,35.95832,-83.92443,820.25,NaN,0,23.290382,,0 / 4,84506,2022-10-28 13:53:53:929,
4.3944,-0.9443,-2.1532,8.5551,-3.7183,-3.0255,-4.0285,0.2156,1.5311,-0.2542,0.3918,-0.0682,0,21.36,-20.27,-1.26,150.87,22.28,-109.48,0,35.95832,-83.92443,820.25,NaN,0,23.290382,,0 / 2,85006,2022-10-28 13:53:54:429,
5.6052,-1.969,-1.8179,8.725,-3.5138,-2.7745,-1.5738,1.5617,1.2792,0.1056,0.2544,0.2657,0,20.04,-21.64,-6.24,178.5,21,-107.64,0,35.95832,-83.92443,820.25,NaN,0,23.290382,,0 / 2,85506,2022-10-28 13:53:54:929,
4.6232,-2.211,-2.3166,8.1838,-4.2973,-3.2755,0.3296,0.8374,1.7992,0.0337,-0.1788,-0.1148,0,15,-24.88,-14.1,207.78,25.99,-111.81,0,35.95832,-83.92443,820.25,NaN,0,23.290382,,0 / 2,86006,2022-10-28 13:53:55:429,
6.9808,-2.7772,-0.6718,8.7524,-3.6251,-2.5347,-1.519,0.8436,1.9088,-0.0075,0.3093,0.2847,0,15.43,-34.87,-20.06,209.76,20.74,-107.38,0,35.95832,-83.92443,820.25,NaN,0,23.290382,,0 / 2,86506,2022-10-28 13:53:55:929,
5.6611,-3.6772,-2.0252,8.4056,-4.0885,-2.9666,0.4243,0.4175,0.6574,0.2653,0.1765,-0.1308,0,22.76,-40.89,-23.01,209.28,24.64,-109.44,0,35.95832,-83.92443,820.25,NaN,0,23.290382,,0 / 2,87006,2022-10-28 13:53:56:429,
9.923,-3.4065,-5.409,8.6814,-3.7839,-2.5468,4.2593,2.1215,-2.9042,0.5775,-0.0599,-0.1258,0,31.71,-42.13,-13.09,187.75,22.7,-106.35,0,35.95832,-83.92443,820.25,NaN,0,23.290382,,0 / 2,87506,2022-10-28 13:53:56:929,
5.4398,-3.1528,-1.4821,8.4864,-3.8208,-3.0907,0.3038,2.0628,-2.3356,3.0121,-1.1744,-0.296,0,33.28,-25.88,-3.92,146.38,22.93,-110.01,0,35.95832,-83.92443,820.25,NaN,0,23.290382,,0 / 2,88006,2022-10-28 13:53:57:429,
8.2846,-1.6989,0.7777,8.8599,-4.0599,-1.0908,-0.4035,2.5579,1.9164,1.4241,0.7881,-0.3203,0,30.19,-14.64,-11.57,268.4,24.98,-101.89,0,35.95832,-83.92443,820.25,NaN,0,23.290382,,0 / 2,88506,2022-10-28 13:53:57:929,
10.3346,-4.0229,-0.8016,8.8462,-3.4301,-2.4797,5.0589,1.53,1.593,1.0345,-1.9301,-0.4311,0,27.68,-20.46,-11.25,200.15,20.47,-105.66,0,35.95832,-83.92443,820.25,NaN,0,23.290382,,0 / 2,89006,2022-10-28 13:53:58:429,
8.1885,-4.7061,-4.0484,8.3749,-4.035,-3.1225,0.1772,0.2237,-0.4737,0.9907,-0.3383,-0.3239,0,29.98,-15,4.33,100.67,24.3,-110.45,0,35.95832,-83.92443,820.25,NaN,0,23.290382,,0 / 2,89506,2022-10-28 13:53:58:929,
8.584,-3.1714,-4.0699,8.8867,-3.4481,-2.3038,-1.7237,-0.4287,2.7619,0.1632,-0.2583,-0.4119,0,41.93,12.38,22.93,54.38,20.59,-104.53,0,35.95832,-83.92443,820.25,NaN,0,23.290382,,0 / 2,90006,2022-10-28 13:53:59:429,
8.071,-4.7237,0.099,8.8894,-3.9815,-1.1382,-0.7578,-0.7446,1.2651,1.4427,1.4056,0.2313,0,40.26,26.06,32.93,50.53,21.98,-105.85,0,35.95832,-83.92443,820.25,NaN,0,23.290382,,0 / 2,90506,2022-10-28 13:53:59:929,
7.8661,-4.5299,-4.5452,8.4006,-4.1979,-2.8244,0.1278,0.1298,-0.463,0.7908,-0.3523,-0.236,0,30.13,30.47,30.19,47.19,25.35,-108.58,0,35.95832,-83.92443,820.25,NaN,0,23.290382,,0 / 2,91006,2022-10-28 13:54:00:429,
6.6174,-3.1241,-0.6057,8.7838,-3.7709,-2.19,-1.5354,0.43,2.1366,-0.5898,-0.9165,-0.2573,0,16.37,25.33,21.64,41.84,23.51,-100.97,0,35.95832,-83.92443,820.25,NaN,0,23.290382,,0 / 2,91506,2022-10-28 13:54:00:929,
8.1556,-5.2083,-6.0625,8.2133,-4.1761,-3.3576,4.0854,-4.003,1.6388,-0.0027,-0.4117,0.3727,0,7.97,17.87,25.07,59.5,25.2,-112.23,0,35.95832,-83.92443,820.25,NaN,0,23.290382,,0 / 2,92005,2022-10-28 13:54:01:428,
9.5462,-5.4547,-0.8554,8.5714,-3.5633,-3.163,-1.5464,-1.2118,0.7749,-0.1163,-0.3534,-0.078,0,5.04,16.37,20.34,55.48,21.31,-110.25,0,35.95832,-83.92443,820.25,NaN,0,23.290382,,0 / 2,92506,2022-10-28 13:54:01:929,
13.2153,-6.1484,-1.2078,8.4583,-4.1572,-2.7101,0.5086,1.3328,1.407,0.3098,-0.292,-0.0246,0,0.6,14.34,11.03,42.75,25.08,-107.77,0,35.95832,-83.92443,820.25,NaN,0,23.290382,,0 / 2,93006,2022-10-28 13:54:02:429,
6.2142,-3.4322,-2.9118,8.7306,-3.4811,-2.7979,-1.7926,-0.0272,-0.1587,-0.1768,-0.3222,-0.2948,0,2.72,16.91,6.77,25.23,21.89,-107.21,0,35.95832,-83.92443,820.25,NaN,0,23.290382,,0 / 2,93506,2022-10-28 13:54:02:929,
7.905,-1.1222,-2.7508,8.5334,-3.9575,-2.7731,-2.1003,2.692,-0.7196,0.0326,-0.4618,0.149,0,4.22,13.13,2.74,17.39,23.8,-108,0,35.95832,-83.92443,820.25,NaN,0,23.290382,,0 / 2,94006,2022-10-28 13:54:03:429,
6.0359,-3.8327,-1.7602,8.7369,-3.1203,-3.1781,-3.3189,1.7162,0.8869,0.6005,-0.0908,-0.649,0,-0.83,10.71,5.49,24.44,18.55,-109.99,0,35.95832,-83.92443,820.25,NaN,0,23.290382,,0 / 2,94506,2022-10-28 13:54:03:929,
7.7686,-0.6799,-3.6972,8.7328,-3.7875,-2.3588,-3.1944,1.2011,-0.8402,-0.2198,0.6478,0.39,0,0.96,3.26,-2.46,334.01,22.03,-106.45,0,35.95832,-83.92443,820.25,NaN,0,23.290382,,0 / 0,95006,2022-10-28 13:54:04:429,
1.6878,-0.6054,-2.0584,8.7409,-3.4791,-2.7683,-7.3403,4.0901,1.6855,0.7642,0.3465,-0.2844,0,0.38,1.63,-9.43,289.36,20.93,-110.04,0,35.95832,-83.92443,820.25,NaN,0,23.290382,,0 / 0,95507,2022-10-28 13:54:04:930,
11.482,-3.6338,-3.2734,8.8824,-3.4739,-2.2813,-2.9165,2.1502,-2.1829,0.8734,-0.9241,0.0264,0,-6.36,-9.45,-21.39,248.44,20.75,-104.4,0,35.95832,-83.92443,820.25,NaN,0,23.290382,,0 / 0,96006,2022-10-28 13:54:05:429,
8.1829,-3.7735,-4.206,8.4858,-3.9391,-2.9403,-1.3957,1.1014,-0.5119,0.3868,-0.1206,-0.3005,0,-8.83,-10.95,-21.84,245.94,23.68,-109.11,0,35.95832,-83.92443,820.25,NaN,0,23.290382,,0 / 0,96505,2022-10-28 13:54:05:928,
8.249,-2.633,-3.9724,8.9165,-3.408,-2.2479,-0.9024,0.1636,1.2871,-0.0131,-1.5402,-0.3761,0,-13.48,-18.54,-19.03,225.98,21.06,-103.1,0,35.95832,-83.92443,820.25,NaN,0,23.290382,,0 / 0,97006,2022-10-28 13:54:06:429,
8.2337,-2.9127,1.6134,8.2536,-4.5338,-2.7373,0.4486,1.3041,4.9607,0.855,-0.0279,0.1387,0,-18.75,-30.45,-10.59,202.45,25.86,-100.15,0,35.95832,-83.92443,820.25,NaN,0,23.290382,,0 / 0,97506,2022-10-28 13:54:06:929,
9.2752,-2.8828,-0.2943,8.4677,-4.1718,-2.6579,0.5878,3.2585,1.9865,1.3993,0.1665,-0.7022,0,-16.29,-31.29,18.43,161.42,25.18,-107.43,0,35.95832,-83.92443,820.25,NaN,0,23.290382,,0 / 0,98006,2022-10-28 13:54:07:429,
12.1857,-2.9282,-3.6084,8.9301,-3.5325,-1.9862,1.3968,0.5773,-2.2632,-0.0722,-0.5795,-0.0964,0,-6.19,-26.16,17.34,151.09,21.11,-102.54,0,35.95832,-83.92443,820.25,NaN,0,23.290382,,0 / 0,98505,2022-10-28 13:54:07:928,
6.6808,-3.7546,-2.8286,8.5589,-3.907,-2.766,-1.8693,1.1714,-0.4591,0.2614,-0.5324,-0.6289,0,-4.82,-27.77,27.96,141,24.74,-107.87,0,35.95832,-83.92443,820.25,NaN,0,23.290382,,0 / 0,99006,2022-10-28 13:54:08:429,
5.8582,-2.5466,-1.6965,8.585,-3.7438,-2.9073,-2.2956,1.7725,1.5357,0.6154,-0.0122,0.2161,0,9.39,-36.81,44.49,129.45,22.14,-109.49,0,35.95832,-83.92443,820.25,NaN,0,23.290382,,0 / 0,99506,2022-10-28 13:54:08:929,
5.0375,-1.6412,-2.9728,8.363,-3.6739,-3.5683,-3.3489,0.7469,1.1968,0.0492,0.1054,-0.2442,0,5.59,-43.12,36.88,139.92,22,-113.11,0,35.95832,-83.92443,820.25,NaN,0,23.290382,,0 / 0,100006,2022-10-28 13:54:09:429,
3.3607,-1.9286,-0.9272,8.2346,-3.7238,-3.8073,-4.7132,2.6363,3.174,-0.5149,0.5858,0.333,0,6.47,-34.37,30.56,138.23,22.32,-114.81,0,35.95832,-83.92443,820.25,NaN,0,23.290382,,0 / 0,100505,2022-10-28 13:54:09:928,
5.8597,-2.5023,-3.1717,8.4301,-4.0534,-2.9451,-3.7125,0.8984,0.5153,0.2023,0.2689,-0.3763,0,-37.99,6.11,17.72,159.32,24.41,-109.26,0,35.95832,-83.92443,820.25,NaN,0,23.290382,,0 / 0,101006,2022-10-28 13:54:10:429,
3.3754,-1.4133,-2.4978,8.4356,-3.9204,-3.105,-4.6801,2.4358,0.7595,-0.415,-0.1768,0.4345,0,-30.88,18.64,11.55,7.28,22.63,-110.12,0,35.95832,-83.92443,820.25,NaN,0,23.290382,,0 / 0,101506,2022-10-28 13:54:10:929,
5.196,-2.9327,-1.867,8.5044,-3.4738,-3.4319,-3.2167,0.5051,0.7872,0.1254,-0.3751,-0.5577,0,-31.01,23.93,10.95,352.62,20.75,-111.98,0,35.95832,-83.92443,820.25,NaN,0,23.290382,,0 / 0,102006,2022-10-28 13:54:11:429,
5.7269,-1.2317,-3.0024,8.3669,-3.8451,-3.3736,-2.7788,1.9676,0.8039,0.528,-0.361,0.158,0,-33.39,27.64,6.06,332.25,23.08,-111.96,0,35.95832,-83.92443,820.25,NaN,0,23.290382,,0 / 0,102506,2022-10-28 13:54:11:929,
6.3144,-4.3493,-2.4407,8.4963,-3.6389,-3.2775,-3.3922,0.7985,0.7773,0.2217,-0.0053,-0.4335,0,-34.41,33.62,-0.45,328.29,21.78,-111.09,0,35.95832,-83.92443,820.25,NaN,0,23.290382,,0 / 0,103005,2022-10-28 13:54:12:428,
9.7573,-0.4089,-3.344,8.563,-3.9041,-2.7576,1.2783,3.8441,-0.1326,1.5806,-0.8921,-0.4936,0,-38.48,34.97,-4.91,318.18,23.9,-107.19,0,35.95832,-83.92443,820.25,NaN,0,23.290382,,0 / 0,103506,2022-10-28 13:54:12:929,
8.2415,-4.0564,-5.5917,8.3879,-4.2418,-2.7964,-1.7977,-1.0329,2.4666,-0.5618,-1.2884,-0.2088,0,-41.18,52.22,12.9,358.71,25.63,-108.44,0,35.95832,-83.92443,820.25,NaN,0,23.290382,,0 / 0,104006,2022-10-28 13:54:13:429,
8.0429,-3.149,-4.0505,8.9461,-3.4049,-2.1319,-0.337,0.4685,-1.4067,0.2628,0.4354,-0.4397,0,-40.67,52.71,23.03,20.73,20.32,-103.4,0,35.95832,-83.92443,820.25,NaN,0,23.290382,,0 / 0,104506,2022-10-28 13:54:13:929,
7.4474,-2.4365,1.3313,8.9472,-3.8714,-1.0634,-0.4347,-0.7503,4.3901,0.3418,-1.168,0.0773,0,-31.69,57.64,30.9,34.5,23.25,-96.78,0,35.95832,-83.92443,820.25,NaN,0,23.290382,,0 / 0,105005,2022-10-28 13:54:14:428,
9.0754,-2.3904,0.28,8.3935,-4.4071,-2.5094,0.9168,1.9725,2.7697,1.7132,0.1895,-0.3934,0,-10.72,68.03,36.41,30.18,26.13,-111.36,0,35.95832,-83.92443,820.25,NaN,0,23.290382,,0 / 0,105507,2022-10-28 13:54:14:930,
10.9732,-4.0083,-2.4326,8.4005,-4.3875,-2.5205,1.33,-0.2516,-0.2289,0.2727,-0.5093,0.0935,0,0.83,86.51,30.69,21.99,26.58,-106.7,0,35.95832,-83.92443,820.25,NaN,0,23.290382,,0 / 0,106006,2022-10-28 13:54:15:429,
6.8674,-2.8274,-2.9492,8.343,-4.1702,-3.029,-1.2422,1.398,0.633,0.3879,-0.3959,-0.4316,0,6.75,90.84,35.31,23.78,25.17,-109.95,0,35.95832,-83.92443,820.25,NaN,0,23.290382,,0 / 0,106506,2022-10-28 13:54:15:929,
4.2604,-2.7153,-1.1216,8.4161,-4.1098,-2.9068,-1.1378,1.1124,1.9735,0.624,0.3057,0.2459,0,1.18,95.38,24.81,16.06,24.78,-109.05,0,35.95832,-83.92443,820.25,NaN,0,23.290382,,0 / 0,107005,2022-10-28 13:54:16:428,
6.5593,-3.5501,-1.7536,8.1671,-4.2637,-3.3602,-1.4868,0.6805,1.6066,-0.1812,0.3652,-0.1364,0,5.61,95.42,30.86,20.61,26.5,-113.65,0,35.95832,-83.92443,820.25,NaN,0,23.290382,,0 / 0,107506,2022-10-28 13:54:16:929,
8.141,-2.2379,-1.2646,8.46,-3.5628,-3.4505,1.0995,-1.4641,-0.7156,0.2388,-0.8158,0.0476,0,1.16,95.33,32.98,20.15,21.3,-112.19,0,35.95832,-83.92443,820.25,NaN,0,23.290382,,0 / 0,108006,2022-10-28 13:54:17:429,
8.6279,-2.4156,-3.7463,8.1875,-3.9399,-3.6896,0.3242,1.2611,-2.6851,-0.5961,-0.5099,0.1215,0,-5.29,90.86,22.84,13.93,24.6,-113.47,0,35.95832,-83.92443,820.25,NaN,0,23.290382,,0 / 0,108505,2022-10-28 13:54:17:928,
7.957,-3.9299,-2.688,8.6642,-3.4257,-3.0604,6.0891,-1.2711,-2.7918,0.1589,-0.5372,0.0138,0,-23.1,77.03,5.85,358.2,20.45,-109.45,0,35.95832,-83.92443,820.25,NaN,0,23.290382,,0 / 0,109006,2022-10-28 13:54:18:429,
7.1617,-2.828,-1.9337,8.3172,-4.0761,-3.2217,0.0867,0.4625,-0.5506,-0.093,0.2414,-0.118,0,-53.55,60.83,-14.74,317.7,24.56,-111.17,0,35.95832,-83.92443,820.25,NaN,0,23.290382,,0 / 0,109506,2022-10-28 13:54:18:929,
4.8565,-2.1999,-2.8211,8.5735,-3.5166,-3.2093,-0.8545,0.2384,1.6168,-0.0469,-0.244,0.0388,0,-58.88,59.1,-22.63,312.37,20.81,-110.25,0,35.95832,-83.92443,820.25,NaN,0,23.290382,,0 / 0,110006,2022-10-28 13:54:19:429,
5.8582,-4.9116,-2.636,8.2257,-4.1921,-3.3066,-0.9944,-0.6961,1.1902,0.0502,0.0338,-0.096,0,-49.63,60.77,-19.91,315.91,25.25,-112.26,0,35.95832,-83.92443,820.25,NaN,0,23.290382,,0 / 0,110506,2022-10-28 13:54:19:929,
7.7046,-3.5267,-1.4668,8.4405,-4.0163,-2.966,0.7439,-1.4632,-2.6701,-0.3454,-0.0671,0.1156,0,-39.11,52.46,-17.72,319.33,24.18,-109.36,0,35.95832,-83.92443,820.25,NaN,0,23.290382,,0 / 0,111007,2022-10-28 13:54:20:430,
11.7781,-6.3452,-1.8972,7.8595,-4.5776,-3.6666,5.657,0.4276,1.0282,1.2996,-0.2482,0.0156,0,-36.39,42.9,-14.25,312.49,27.83,-115.01,0,35.95832,-83.92443,820.25,NaN,0,23.290382,,0 / 0,111506,2022-10-28 13:54:20:929,
10.3863,-4.9343,1.1204,8.1959,-5.0578,-1.8485,0.1348,-0.798,1.0521,1.964,-0.2442,0.1404,0,-41.68,30.47,-20.33,286.11,29.58,-106.14,0,35.95832,-83.92443,820.25,NaN,0,23.290382,,0 / 0,112006,2022-10-28 13:54:21:429,
15.044,0.3562,2.7102,8.6465,-2.9102,3.5972,5.3017,2.3438,-2.7307,-0.2555,0.905,-2.8761,0,-45.96,6.64,-24.9,203.72,25.08,-69.03,2,35.95832,-83.92443,820.25,NaN,0,23.290382,,0 / 0,112505,2022-10-28 13:54:21:928,
0.2366,4.0008,5.5241,-0.0475,5.3828,8.1972,1.5103,-2.7292,0.6795,1.1039,0.0838,-0.6328,11.8,-12.83,-2.51,-20.33,57.27,-33.29,0.33,2,35.95832,-83.92443,820.25,NaN,0,23.290382,,0 / 0,113006,2022-10-28 13:54:22:429,
-2.2056,6.0829,7.0436,-1.4725,6.5177,7.1779,-2.0143,0.8298,0.5074,0.6628,0.6397,0.1145,26.6,0.98,1.07,-11.01,8.7,-41.65,11.59,2,35.95832,-83.92443,820.25,NaN,0,23.290382,,0 / 0,113506,2022-10-28 13:54:22:929,
-1.27,8.0794,4.8649,-0.8908,7.7184,5.9835,-0.7347,-0.0478,-1.1663,-0.1736,0.3791,0.2679,24,1.86,2.48,-5.12,347.65,-54.24,9.05,2,35.95832,-83.92443,820.25,NaN,0,23.290382,,0 / 0,114005,2022-10-28 13:54:23:428,
-2.9438,7.6819,6.0715,-2.2533,7.4687,5.9424,-0.6481,0.2369,0.2688,0.2137,0.4257,0.041,24,1.46,2.01,-3.56,4.52,-48.76,18.88,2,35.95832,-83.92443,820.25,NaN,0,23.290382,,0 / 0,114506,2022-10-28 13:54:23:929,
-1.2212,7.0627,6.3835,-0.8222,7.093,6.7219,-0.2605,-0.0427,-0.4009,0.0218,0.039,0.0173,26.8,1.78,3.04,-4.41,343.67,-46.33,6.97,2,35.95832,-83.92443,820.25,NaN,0,23.290382,,0 / 0,115005,2022-10-28 13:54:24:428,
-1.4928,7.0854,6.4843,-1.3729,7.0376,6.6902,-0.1268,0.0854,-0.1668,-0.0247,-0.0577,-0.0026,26.8,1.58,2.33,-5.87,352.73,-45.86,11.6,2,35.95832,-83.92443,820.25,NaN,0,23.290382,,0 / 0,115506,2022-10-28 13:54:24:929,
-2.6967,7.2969,6.044,-2.7484,7.4866,5.7067,0.2689,-0.1757,0.2162,0.3405,1.1471,0.0761,26.8,1.33,2.23,-3.6,7.11,-48.45,21.66,0,35.95832,-83.92443,820.25,NaN,0,23.290382,,0 / 0,116007,2022-10-28 13:54:25:430,
-3.6948,7.6295,4.8763,-3.4011,7.6611,5.0903,-0.3205,0.0301,-0.1484,-0.051,0.0668,0.0075,26.8,0.36,2.19,4.91,234.3,-51.63,33.99,0,35.95832,-83.92443,820.25,NaN,0,23.290382,,0 / 0,116505,2022-10-28 13:54:25:928,