sep=;
ACCELEROMETER X (m/s²);ACCELEROMETER Y (m/s²);ACCELEROMETER Z (m/s²);GRAVITY X (m/s²);GRAVITY Y (m/s²);GRAVITY Z (m/s²);LINEAR ACCELERATION X (m/s²);LINEAR ACCELERATION Y (m/s²);LINEAR ACCELERATION Z (m/s²);GYROSCOPE X (rad/s);GYROSCOPE Y (rad/s);GYROSCOPE Z (rad/s);LIGHT (lux);MAGNETIC FIELD X (μT);MAGNETIC FIELD Y (μT);MAGNETIC FIELD Z (μT);ORIENTATION Z (azimuth °);ORIENTATION X (pitch °);ORIENTATION Y (roll °);PROXIMITY (i);SOUND LEVEL (dB);LOCATION Latitude : ;LOCATION Longitude : ;LOCATION Altitude ( m);LOCATION Altitude-google ( m);LOCATION Speed ( Kmh);LOCATION Accuracy ( m);LOCATION ORIENTATION (°);Satellites in range;Time since start in ms ;YYYY-MO-DD HH-MI-SS_SSS
-1.5305;3.7092;8.7024;-1.7652;3.7242;8.8986;-0.4419;0.036;-0.1653;-0.4273;-0.3434;0.1435;413.5;-8.89;-43.78;-29.85;149.92;-25.3;14.97;5.0;35.958218;-83.92447;802.38;NaN;0.0;103.199776;;4 / 6;5;2022-09-09 16:17:41:586
1.4477;5.1634;5.9695;0.438;4.2112;8.8456;-0.8008;-1.4241;1.4706;0.9673;-0.751;0.286;413.5;-17.27;-38.98;-35.04;142.47;-25.43;-2.83;5.0;35.958218;-83.92447;802.38;NaN;0.0;103.199776;;4 / 6;504;2022-09-09 16:17:42:085
6.5447;3.0018;8.3372;1.1039;2.5878;9.3944;-0.8554;0.0745;-0.8707;-0.3719;-0.2947;0.9826;373.6;-27.22;-35.23;-34.24;136.43;-15.3;-6.7;5.0;35.9582;-83.92448;806.25;NaN;0.0;60.678257;;4 / 17;1005;2022-09-09 16:17:42:586
-2.426;3.32;8.6653;-1.0751;4.1115;8.838;-1.2344;-1.3503;-2.9519;0.1327;1.0542;-0.2633;455.8;-24.21;-35.64;-35.19;124.57;-24.79;6.94;5.0;35.9582;-83.92448;806.25;NaN;0.0;60.678257;;4 / 17;1504;2022-09-09 16:17:43:085
1.0358;0.8315;5.1832;-4.3239;3.2683;8.1727;-0.6912;-0.4744;2.9147;1.6271;-1.5206;0.6272;510.2;-3.49;-34.82;-36.92;139.41;-4.61;44.88;5.0;35.958206;-83.92447;807.17;NaN;0.0;41.652317;;6 / 20;2005;2022-09-09 16:17:43:586
4.8784;4.3675;4.7892;6.4999;3.7546;6.3107;-2.8983;-0.7511;0.3198;1.1639;-6.0149;-0.0859;510.2;-21.51;-41.76;-31.37;156.48;-18.71;-16.5;5.0;35.958206;-83.92447;807.17;NaN;0.0;41.652317;;6 / 20;2505;2022-09-09 16:17:44:086
7.8353;3.1143;6.3897;7.1415;5.501;3.8611;5.4863;-0.5248;2.5409;-2.4438;-0.7492;0.4363;163.5;-46.76;-35.25;-7.14;103.59;-34.12;-61.6;5.0;35.958206;-83.92447;807.17;NaN;0.0;41.652317;;5 / 21;3004;2022-09-09 16:17:44:585
12.5085;-0.0209;4.2434;8.9004;3.5499;2.0862;-1.6512;-0.4294;-0.7059;0.4287;-0.5898;1.3631;132.5;-48.04;-31.52;-0.11;113.15;-27.21;-65.66;5.0;35.958206;-83.92447;807.17;NaN;0.0;41.652317;;5 / 21;3505;2022-09-09 16:17:45:086
4.9621;3.7403;-6.3924;6.0275;3.4667;-6.9153;0.4131;-0.8364;0.1241;0.5218;-0.6829;-0.8941;91.0;-26.12;-17.85;49.93;79.21;-20.7;-138.92;5.0;35.95822;-83.92448;811.59;NaN;0.0;23.20056;;5 / 21;4005;2022-09-09 16:17:45:586
4.9454;1.8634;-11.0225;4.7466;2.8329;-8.1003;1.9249;-0.8674;-0.7326;0.237;0.2496;-0.6227;47.9;13.91;-2.03;84.24;72.71;-16.79;-149.63;5.0;35.95822;-83.92448;811.59;NaN;0.0;23.20056;;5 / 21;4528;2022-09-09 16:17:46:109
7.6974;0.853;-7.4219;5.1141;2.5329;-7.975;-0.2024;1.875;-1.084;0.8729;-0.2053;0.3935;47.9;8.16;-8.85;84.75;77.02;-18.42;-146.3;5.0;35.95824;-83.92445;824.51;NaN;0.0;17.384298;;5 / 21;4994;2022-09-09 16:17:46:575
4.037;1.922;-7.1731;6.0514;2.2793;-7.3727;-1.2689;0.3309;0.5351;-0.2282;0.0606;-0.2768;38.0;-2.93;3.68;57.96;66.83;-13.44;-140.62;5.0;35.95824;-83.92445;824.51;NaN;0.0;17.384298;;5 / 21;5526;2022-09-09 16:17:47:107
6.37;2.2726;-4.634;8.3013;2.5661;-4.5468;-2.7545;-0.031;0.0074;0.3712;0.3489;-0.2956;21.0;-35.94;-3.04;37.91;57.68;-15.17;-118.71;5.0;35.958244;-83.924446;822.29;NaN;0.0;17.10371;;6 / 21;5990;2022-09-09 16:17:47:571
6.3556;3.6326;-2.9892;9.1519;2.8323;-2.0954;-1.5493;1.1296;-0.1534;-0.659;0.0362;-0.1238;16.6;-44.55;10.93;39.26;47.41;-16.79;-102.9;5.0;35.958244;-83.924446;822.29;NaN;0.0;17.10371;;6 / 21;6655;2022-09-09 16:17:48:236
9.4355;3.0162;0.2704;9.1612;3.4971;-0.1148;-0.3605;-1.123;0.4013;-0.3218;1.5948;-0.4567;20.0;-47.57;5.14;36.83;58.9;-20.89;-90.72;5.0;35.958252;-83.92443;823.22;NaN;0.0;16.45063;;6 / 21;6965;2022-09-09 16:17:48:546
6.3497;3.3535;1.0484;9.175;3.2884;1.0846;-1.8532;-0.6821;-0.4383;-1.0423;-1.7179;-0.5342;20.0;-40.63;-12.9;30.49;92.62;-18.22;-78.13;0.0;35.958252;-83.92443;823.22;NaN;0.0;16.45063;;6 / 21;7445;2022-09-09 16:17:49:026
12.9742;-0.2195;2.5579;9.0168;0.1175;3.8541;1.1717;1.5;0.7386;-0.2652;0.9079;4.6264;115.1;-13.13;-35.29;-10.48;186.69;-0.69;-66.86;0.0;35.958256;-83.92443;827.54;NaN;0.0;16.492107;;6 / 21;8101;2022-09-09 16:17:49:682
7.3002;-2.3803;8.3982;7.2236;-2.8939;5.9678;4.3539;-3.2262;0.3741;-1.246;0.5403;-1.6012;69.7;-22.87;-1.01;-28.11;208.01;18.58;-49.81;0.0;35.958256;-83.92443;827.54;NaN;0.0;16.492107;;6 / 21;8608;2022-09-09 16:17:50:189
8.7891;-3.7137;2.784;8.9346;-3.1845;2.4906;-0.9896;0.1446;-1.1458;-0.9348;0.0223;-0.1055;69.7;-29.1;8.68;-21.71;259.53;18.95;-74.42;0.0;35.958256;-83.92443;827.54;NaN;0.0;16.492107;;5 / 21;8915;2022-09-09 16:17:50:496
5.5152;-2.0904;4.5473;8.2807;-3.089;4.2496;-2.1505;1.5514;-0.8773;0.1038;0.0505;0.0267;69.7;-49.39;20.87;-8.74;71.15;18.36;-62.83;0.0;35.958256;-83.92443;827.54;NaN;0.0;16.492107;;5 / 21;9342;2022-09-09 16:17:50:923
3.9269;-6.2061;4.0217;6.3658;-4.1943;6.1688;0.1765;-3.5685;2.2034;1.3436;-1.4793;-0.323;156.7;-62.91;1.65;-14.33;122.72;25.32;-45.9;0.0;35.958256;-83.92443;827.54;NaN;0.0;16.492107;;6 / 21;9842;2022-09-09 16:17:51:423
7.7656;-4.0896;3.6628;8.2422;-3.9206;3.5868;-0.3565;1.1808;1.966;1.0002;-2.1085;0.5627;205.4;-63.52;-6.32;-12.02;154.79;23.57;-66.48;0.0;35.958256;-83.92443;827.54;NaN;0.0;16.492107;;6 / 21;10343;2022-09-09 16:17:51:924
5.9952;-4.2248;3.422;7.8809;-5.0737;2.8845;-0.3891;0.5856;0.8521;-0.3305;0.3467;-0.1597;180.2;-60.71;-10.11;5.94;144.38;31.16;-69.9;0.0;35.958256;-83.92443;827.54;NaN;0.0;16.492107;;6 / 21;10832;2022-09-09 16:17:52:413
5.8708;-5.9785;4.0217;5.7736;-4.7622;6.337;1.6559;0.3461;-0.7384;-0.4556;1.791;-0.7798;180.2;-59.44;-7.18;-8.85;127.34;29.05;-42.34;0.0;35.958256;-83.92443;827.54;NaN;0.0;16.492107;;6 / 21;11417;2022-09-09 16:17:52:998
9.7086;-6.1702;6.7295;7.3658;-3.3066;5.5661;0.3097;-1.9449;1.7084;2.8165;0.2301;1.185;180.2;-55.67;-7.82;-23.81;151.99;19.71;-52.92;0.0;35.958256;-83.92443;827.54;NaN;0.0;16.492107;;6 / 22;11956;2022-09-09 16:17:53:537
7.3792;-1.8559;7.139;7.9481;-3.66;4.4275;-0.5892;1.3019;-0.1353;-0.2104;-1.0882;0.9431;180.2;-56.61;-2.94;-16.29;150.45;21.91;-60.88;0.0;35.958256;-83.92443;827.54;NaN;0.0;16.492107;;6 / 22;12311;2022-09-09 16:17:53:892
2.5478;-2.6916;0.1304;8.7713;-0.6273;4.3407;-3.2084;-6.6063;0.616;0.3273;-1.3524;-1.1627;180.2;-49.97;10.82;-6.47;98.27;19.6;-50.85;0.0;35.958256;-83.92442;829.17;NaN;0.0;33.570072;;6 / 22;12893;2022-09-09 16:17:54:474
6.3389;-2.5848;3.7513;7.4027;-2.7483;5.8153;-0.0646;-0.8298;-0.7292;0.8413;0.6016;-0.4604;180.2;-42.92;6.88;-17.47;132.29;21.74;-54.5;0.0;35.958256;-83.92442;829.17;NaN;0.0;33.570072;;6 / 22;13265;2022-09-09 16:17:54:846
6.8345;-2.3228;7.3101;8.4623;-4.0628;2.838;-1.9011;0.504;4.6743;-0.8287;-1.5183;1.2875;162.8;-37.03;5.89;-16.78;201.05;24.47;-71.46;0.0;35.958256;-83.92442;829.17;NaN;0.0;33.570072;;7 / 22;13765;2022-09-09 16:17:55:346
7.9059;-4.1841;4.922;8.0979;-3.6014;4.1981;-1.935;-0.1142;-0.4437;-0.8146;-0.1827;0.6202;162.8;-28.48;12.58;-13.72;37.5;21.55;-62.6;0.0;35.958256;-83.92442;829.17;NaN;0.0;33.570072;;7 / 22;14324;2022-09-09 16:17:55:905
6.3999;-0.0138;9.1681;8.3078;-0.2225;5.2059;0.3042;-3.8775;-3.5687;-0.234;0.758;-0.9663;39.1;-17.61;13.67;-21.21;328.42;1.3;-57.93;2.0;35.958256;-83.92442;829.17;NaN;0.0;33.570072;;3 / 22;14745;2022-09-09 16:17:56:326
7.6603;-2.2534;5.359;7.3262;-3.6664;5.3902;1.1895;0.871;1.4158;-1.1659;0.0429;1.0847;35.2;-17.06;13.86;-26.01;301.82;11.88;-57.25;2.0;35.958256;-83.92442;829.17;NaN;0.0;33.570072;;3 / 22;15245;2022-09-09 16:17:56:826
7.8688;-3.3105;6.3969;6.9848;-3.5201;5.9154;-1.7143;0.5261;2.662;0.2617;0.4217;0.1187;42.5;-15.88;22.89;-16.12;352.04;21.04;-49.74;2.0;35.958256;-83.92442;829.17;NaN;0.0;33.570072;;4 / 22;15745;2022-09-09 16:17:57:326
4.4584;-0.8157;8.3456;7.5553;-2.1114;5.8847;-2.0007;-1.9891;-0.9815;-1.3434;1.1876;-0.8126;42.5;-27.97;10.28;-16.65;53.96;12.43;-52.09;0.0;35.958256;-83.92442;829.17;NaN;0.0;33.570072;;4 / 22;16246;2022-09-09 16:17:57:827
2.7643;-4.8592;5.9049;4.5934;-3.7423;7.8145;-0.6269;-1.6708;0.683;1.586;-1.319;-0.9454;53.5;-27.71;5.04;-22.82;123.81;22.43;-30.45;0.0;35.958256;-83.92442;829.17;NaN;0.0;33.570072;;4 / 22;16745;2022-09-09 16:17:58:326
6.2731;-1.4225;6.2028;7.0117;-3.1113;6.1095;-0.19;-0.9218;1.3202;-1.1466;-0.6228;0.3944;46.6;-22.72;-0.96;-25.78;154.88;18.45;-32.33;0.0;35.958256;-83.92442;829.17;NaN;0.0;33.570072;;4 / 22;17245;2022-09-09 16:17:58:826
7.4749;-5.6016;9.4971;4.2769;-6.2876;6.1923;1.2181;-3.4562;3.8234;-0.2679;0.4133;-1.8763;69.4;-11.77;-3.24;-25.28;192.31;39.88;-34.63;0.0;35.958256;-83.92442;829.17;NaN;0.0;33.570072;;4 / 22;17746;2022-09-09 16:17:59:327
13.3846;-7.9741;8.2654;7.2705;-4.1108;5.1392;0.059;1.1281;0.8338;1.1304;-0.0909;0.5627;72.1;10.13;19.52;-19.52;307.14;24.78;-54.75;0.0;35.958256;-83.92442;829.17;NaN;0.0;33.570072;;4 / 22;18246;2022-09-09 16:17:59:827
10.6663;-5.1718;6.7654;6.334;-5.2102;5.3763;0.3021;2.2008;-2.2946;-0.9229;1.9516;1.051;85.3;19.91;43.39;-18.22;325.18;32.09;-49.68;0.0;35.958256;-83.92442;829.17;NaN;0.0;33.570072;;5 / 22;18746;2022-09-09 16:18:00:327
5.9653;-3.9162;6.5297;6.0465;-4.6704;6.148;-4.279;0.0364;-1.3083;-1.1705;0.3507;0.3567;89.1;2.1;40.8;-2.42;355.51;28.44;-44.52;0.0;35.958256;-83.92442;829.17;NaN;0.0;33.570072;;5 / 22;19246;2022-09-09 16:18:00:827
5.5283;-3.3392;5.0058;6.6514;-5.6331;4.4942;-0.5517;1.7757;1.633;0.1313;0.4668;0.0732;135.6;-1.67;23.27;5.51;17.1;35.06;-55.95;0.0;35.958256;-83.92442;829.17;NaN;0.0;33.570072;;4 / 22;19745;2022-09-09 16:18:01:326
3.035;-5.9354;4.3762;6.3398;-4.7174;5.8071;-3.771;-0.9141;-0.145;0.0436;-1.6717;-0.4924;162.6;-6.26;13.22;7.09;38.6;28.75;-47.51;0.0;35.958256;-83.92442;829.17;NaN;0.0;33.570072;;4 / 22;20245;2022-09-09 16:18:01:826
8.8765;-1.4106;-0.6598;8.6574;-2.8668;3.6057;1.5554;-4.8245;3.2843;2.1412;-3.7479;1.6377;134.7;-15.06;-8.14;7.73;129.39;17.0;-67.39;0.0;35.958256;-83.92442;829.17;NaN;0.0;33.570072;;5 / 22;20745;2022-09-09 16:18:02:326
12.3589;-3.9054;4.1465;9.6036;1.8431;0.7382;-1.8938;-1.5233;-1.1324;-0.8122;1.7208;2.4169;287.7;-17.14;-25.52;28.93;128.84;-4.66;-83.13;0.0;35.958256;-83.92442;829.17;NaN;0.0;33.570072;;5 / 22;21246;2022-09-09 16:18:02:827
8.4709;-0.0987;4.9496;9.4448;-0.6345;2.5621;-1.1397;-0.7575;-1.4386;-2.7409;1.1803;-0.1104;795.7;-9.71;-33.04;-16.52;205.02;-0.81;-81.42;0.0;35.958256;-83.92442;829.17;NaN;0.0;33.570072;;5 / 22;21745;2022-09-09 16:18:03:326
8.6097;-0.9173;2.6321;8.7429;-2.5187;3.6591;-0.4322;1.4649;-1.7528;-0.5868;0.6716;2.0153;935.2;-15.88;-19.24;-24.75;225.8;1.62;-75.41;0.0;35.958256;-83.92442;829.17;NaN;0.0;33.570072;;5 / 22;22245;2022-09-09 16:18:03:826
10.3896;-6.5339;3.2414;8.366;-3.292;3.9171;0.0844;0.6657;1.5819;-0.0308;0.7471;-0.2776;1096.7999;-21.69;-13.86;-22.76;206.42;19.61;-64.91;0.0;35.958256;-83.92442;829.17;NaN;0.0;33.570072;;5 / 22;22860;2022-09-09 16:18:04:441
6.443;-4.8568;7.1773;6.3589;-5.5024;5.0456;0.2455;0.6685;2.0244;-0.6912;-0.0321;0.3169;1096.7999;-26.81;-10.8;-25.33;180.51;32.77;-47.61;0.0;35.958256;-83.92442;829.17;NaN;0.0;33.570072;;5 / 22;23245;2022-09-09 16:18:04:826
3.3078;-4.34;2.729;6.4133;-2.9;6.8286;-0.0575;-2.5516;-2.0998;0.1976;-0.4649;1.7424;1293.4;-30.32;-21.24;-28.93;176.44;17.2;-43.2;0.0;35.958256;-83.92442;829.17;NaN;0.0;33.570072;;5 / 22;23745;2022-09-09 16:18:05:326
4.9418;-8.6587;5.219;7.0865;-2.47;6.3127;-1.8261;-5.45;-1.1458;2.4247;-0.7736;-0.2171;1122.0;-37.05;-29.32;-26.03;172.81;26.16;-47.56;0.0;35.958256;-83.92442;829.17;NaN;0.0;33.570072;;5 / 22;24245;2022-09-09 16:18:05:826
8.9291;-6.7974;4.6481;6.8947;-4.718;5.1356;0.1867;0.4723;-1.297;0.891;0.1864;-0.0195;751.7;-36.15;-24.82;-22.67;175.87;28.76;-53.32;0.0;35.958256;-83.92442;829.17;NaN;0.0;33.570072;;4 / 22;24745;2022-09-09 16:18:06:326
7.6878;-4.1566;4.1919;7.4684;-4.9628;3.9703;-1.5817;0.5575;1.0026;-0.8985;0.3696;0.0421;180.9;-29.91;-17.59;-23.62;189.26;25.87;-59.34;0.0;35.958256;-83.92442;829.17;NaN;0.0;33.570072;;4 / 22;25245;2022-09-09 16:18:06:826
3.1235;-4.0238;3.3514;8.6299;-2.3695;4.01;-7.0792;-2.1595;-2.022;-1.6346;2.5824;0.8131;158.1;-8.62;5.42;-24.64;271.01;13.98;-65.08;0.0;35.958256;-83.92442;829.17;NaN;0.0;33.570072;;5 / 22;25745;2022-09-09 16:18:07:326
7.2978;-6.2264;6.1226;7.8627;-4.7969;3.3672;-2.8942;3.1688;6.1648;2.0347;-0.6134;0.5951;139.3;0.94;35.25;-16.8;328.53;33.09;-69.5;0.0;35.958256;-83.92442;829.17;NaN;0.0;33.570072;;5 / 22;26246;2022-09-09 16:18:07:827
3.5545;-3.5809;3.2438;7.5616;-3.5051;5.1679;-4.3802;1.4273;1.3241;1.0504;-2.6459;1.0166;62.7;-20.53;40.67;-11.64;3.74;20.94;-55.65;0.0;35.958256;-83.92442;829.17;NaN;0.0;33.570072;;4 / 22;26745;2022-09-09 16:18:08:326
6.8237;-2.9859;3.7848;7.0951;-4.7023;4.8702;1.045;1.3131;-0.2986;-0.2946;0.6219;0.127;67.6;-37.82;22.05;-3.22;72.03;24.89;-57.77;0.0;35.958256;-83.92442;829.17;NaN;0.0;33.570072;;4 / 22;27245;2022-09-09 16:18:08:826
6.693;-5.0605;7.2132;5.1789;-5.9406;5.836;6.0573;-3.2208;-1.8145;-3.2616;5.0936;-1.5244;67.6;-45.71;9.96;-1.07;111.79;29.64;-54.98;0.0;35.958256;-83.92442;829.17;NaN;0.0;33.570072;;2 / 22;27745;2022-09-09 16:18:09:326
11.0013;-5.6889;8.8412;6.4987;-4.4682;5.8286;0.1713;-1.4879;0.433;-0.2256;0.213;0.8702;67.6;-40.05;-6.54;-45.11;191.47;27.11;-48.11;0.0;35.958256;-83.92442;829.17;NaN;0.0;33.570072;;2 / 22;28245;2022-09-09 16:18:09:826
6.1292;-2.913;3.865;7.2289;-4.7469;4.6238;-1.2692;0.8381;1.3114;0.2659;0.7923;-0.2687;59.9;-42.51;-2.72;-27.96;180.87;28.95;-57.4;0.0;35.958256;-83.92442;829.17;NaN;0.0;33.570072;;2 / 22;28745;2022-09-09 16:18:10:326
2.6016;-4.9313;5.2573;5.9658;-4.9789;5.9825;-0.8714;-2.1761;-2.1268;-0.3602;-0.6925;-1.5261;59.9;-44.32;2.01;-30.34;149.92;35.61;-38.04;0.0;35.958256;-83.92442;829.17;NaN;0.0;33.570072;;2 / 22;29246;2022-09-09 16:18:10:827
8.648;-6.0168;1.6205;6.5658;-4.6316;5.6222;-0.8138;1.3462;-1.3367;1.7813;0.4093;1.3148;59.9;-48.45;-8.03;-27.54;163.16;28.18;-49.43;0.0;35.958256;-83.92442;829.17;NaN;0.0;33.570072;;4 / 22;29745;2022-09-09 16:18:11:326
11.5256;-6.7089;4.7115;7.2653;-4.8093;4.5007;-2.0445;1.2273;-1.1235;-0.5953;1.2076;0.346;59.9;-58.11;6.02;7.91;114.33;29.37;-58.22;0.0;35.958256;-83.92442;829.17;NaN;0.0;33.570072;;4 / 22;30245;2022-09-09 16:18:11:826
5.7392;-2.8005;3.725;7.8349;-3.5762;4.69;-3.8284;-1.936;-1.3148;-0.1095;-1.2444;-1.4767;59.9;-82.71;-0.47;-18.28;125.55;17.98;-54.41;0.0;35.958256;-83.92442;829.17;NaN;0.0;33.570072;;5 / 22;30745;2022-09-09 16:18:12:326
7.8736;-0.9727;6.3849;8.0637;-2.9856;4.7152;3.7467;-1.6993;1.1805;0.6434;-1.5294;0.4742;60.7;-78.73;-24.53;-16.48;151.01;17.72;-59.68;2.0;35.958256;-83.92442;829.17;NaN;0.0;33.570072;;5 / 22;31246;2022-09-09 16:18:12:827
10.2305;-7.2069;8.2594;8.0321;-3.0011;4.7591;0.283;2.2953;-1.6098;0.1252;0.3544;0.8886;60.7;-81.73;-22.46;7.48;130.91;17.82;-59.35;2.0;35.958256;-83.92442;829.17;NaN;0.0;33.570072;;7 / 19;31746;2022-09-09 16:18:13:327
10.9116;-5.0354;7.8284;7.0898;-3.1236;6.0123;-1.7447;2.0432;3.5975;0.3021;0.6549;0.3453;55.1;-68.18;-18.56;-28.37;156.69;15.87;-54.79;2.0;35.958256;-83.92442;829.17;NaN;0.0;33.570072;;7 / 19;32245;2022-09-09 16:18:13:826
7.494;-0.9329;6.9248;8.5709;-1.1887;4.6148;-0.4899;-1.6271;-0.1786;-0.4157;-0.2192;0.1772;43.1;-61.37;-6.32;-17.66;135.93;6.96;-61.7;0.0;35.958256;-83.92442;829.17;NaN;0.0;33.570072;;7 / 19;32745;2022-09-09 16:18:14:326
5.5956;-2.0079;5.7697;7.1369;-1.517;6.5524;-2.2777;-0.1633;0.2492;-0.2712;1.2839;-0.4385;34.6;-61.78;12.86;-18.92;89.05;11.56;-55.93;0.0;35.958256;-83.92442;829.17;NaN;0.0;33.570072;;7 / 19;33245;2022-09-09 16:18:14:826
11.8777;-7.317;10.6331;7.1789;-1.9942;6.3763;-1.1201;-0.9522;0.2143;2.6476;-1.2127;2.5423;34.6;-63.11;19.03;-32.87;75.1;11.73;-48.39;0.0;35.958256;-83.92442;829.17;NaN;0.0;33.570072;;6 / 19;33745;2022-09-09 16:18:15:326
11.5938;-3.9772;5.3626;7.7054;-2.2996;5.6133;-2.9309;1.0734;-1.9416;1.6408;-0.6835;0.0554;29.4;-63.15;19.44;-27.51;79.57;13.56;-53.93;0.0;35.958256;-83.92442;829.17;NaN;0.0;33.570072;;6 / 19;34246;2022-09-09 16:18:15:827
2.5777;-3.023;3.7035;6.9656;-1.2273;6.793;0.0335;-2.0865;1.1755;1.4342;-1.2359;-1.0315;29.4;-58.16;35.12;-62.44;11.12;13.68;-41.24;0.0;35.958256;-83.92442;829.17;NaN;0.0;33.570072;;6 / 19;34745;2022-09-09 16:18:16:326
12.4834;-4.2212;5.8762;7.1707;-0.3446;6.6807;-0.9549;-1.2629;-0.2351;1.1855;1.321;1.4607;32.7;-52.71;37.31;-71.38;317.22;4.41;-55.27;0.0;35.958256;-83.92442;829.17;NaN;0.0;33.570072;;6 / 19;35245;2022-09-09 16:18:16:826
9.5997;-1.6394;7.4743;7.9731;-1.9911;5.3513;0.4115;1.5119;0.64;-0.8724;-0.1822;0.9783;68.7;-44.36;31.48;-80.94;305.7;1.09;-54.88;0.0;35.958256;-83.92442;829.17;NaN;0.0;33.570072;;4 / 18;35745;2022-09-09 16:18:17:326
7.0822;-3.3739;5.2478;7.1561;-2.0346;6.3891;-3.2544;-2.979;-1.9559;0.2248;-0.2527;1.5386;91.4;-38.06;34.58;-85.52;292.98;11.97;-48.24;0.0;35.958256;-83.92442;829.17;NaN;0.0;33.570072;;4 / 18;36245;2022-09-09 16:18:17:826
5.878;-2.8352;3.585;7.7074;-2.3754;5.5788;-0.0328;-1.3463;-0.6985;-0.1756;-0.4376;-0.6166;108.0;-37.52;29.03;-84.21;280.82;14.02;-54.1;0.0;35.958256;-83.92442;829.17;NaN;0.0;33.570072;;3 / 18;36745;2022-09-09 16:18:18:326
10.847;-10.9116;10.3639;6.3808;-4.1115;6.209;-1.3916;1.346;0.24;0.9766;0.0664;1.1069;133.4;-32.48;35.18;-84.17;272.52;22.41;-47.69;0.0;35.958256;-83.92442;829.17;NaN;0.0;33.570072;;3 / 18;37246;2022-09-09 16:18:18:827
5.2795;-4.1052;7.6872;6.7647;-3.5723;6.1358;-2.9686;-0.4192;-0.5427;-0.7994;-0.282;-0.3748;133.4;-27.92;40.13;-85.59;280.91;21.36;-47.79;0.0;35.958256;-83.92442;829.17;NaN;0.0;33.570072;;3 / 14;37745;2022-09-09 16:18:19:326
6.3915;-3.0948;5.304;7.4499;-3.9331;5.02;-1.0003;2.0958;4.3331;-0.982;0.1005;-0.9137;133.4;-36.69;46.14;-94.54;278.36;23.64;-56.03;0.0;35.958256;-83.92442;829.17;NaN;0.0;33.570072;;3 / 14;38245;2022-09-09 16:18:19:826
1.8176;-5.0294;1.5775;5.8172;-3.0116;7.298;-1.8356;-0.3112;3.4872;3.3657;-3.1418;1.2183;163.2;-29.04;56.03;-89.36;308.8;17.88;-38.56;2.0;35.958256;-83.92442;829.17;NaN;0.0;33.570072;;3 / 12;38746;2022-09-09 16:18:20:327
8.5726;-3.7699;2.2513;6.3414;-5.5977;4.9621;1.3607;1.2459;-3.2748;-0.9607;-0.4594;1.1211;201.3;-34.12;54.45;-85.67;291.81;24.13;-44.63;2.0;35.958256;-83.92442;829.17;NaN;0.0;33.570072;;3 / 12;39246;2022-09-09 16:18:20:827
2.7814;-11.4981;8.4772;6.5002;-4.758;5.5928;2.9906;-0.8436;-1.0205;-0.6958;0.3134;-0.4642;201.3;-40.99;50.72;-87.23;272.9;29.02;-49.29;2.0;35.958256;-83.92442;829.17;NaN;0.0;33.570072;;4 / 12;39745;2022-09-09 16:18:21:326
7.0977;-4.7169;5.4763;7.0337;-4.3515;5.269;-2.0083;-0.0041;-1.0612;-1.6098;0.3024;-0.3339;311.8;-36.69;56.83;-83.55;289.1;26.34;-53.16;2.0;35.958256;-83.92442;829.17;NaN;0.0;33.570072;;4 / 12;40245;2022-09-09 16:18:21:826
5.7882;-2.5741;2.2741;7.1491;-4.9433;4.5414;0.8469;1.5075;0.5788;0.6656;0.0447;-0.9133;252.4;-43.26;65.34;-81.81;288.76;30.27;-57.57;2.0;35.958256;-83.92442;829.17;NaN;0.0;33.570072;;4 / 12;40745;2022-09-09 16:18:22:326
6.1798;-6.2408;5.0836;5.7235;-4.6143;6.49;1.6481;-1.8316;-0.5086;-0.7143;1.21;-0.8614;348.8;-48.13;59.79;-70.03;322.25;28.07;-41.41;0.0;35.958256;-83.92442;829.17;NaN;0.0;33.570072;;4 / 12;41246;2022-09-09 16:18:22:827
7.646;-6.3341;2.4275;7.2897;-3.9341;5.2492;-0.5384;-2.115;0.1612;1.86;-0.9951;-0.1531;223.4;-55.89;50.29;-63.43;304.83;23.65;-54.24;0.0;35.958256;-83.92442;829.17;NaN;0.0;33.570072;;4 / 12;41745;2022-09-09 16:18:23:326
5.3572;-2.2774;2.3506;7.2854;-4.9913;4.2639;-1.7822;2.4869;-1.9051;-0.5545;1.1364;-0.4185;337.1;-55.29;53.49;-41.91;295.9;32.88;-66.45;0.0;35.958256;-83.92442;829.17;NaN;0.0;33.570072;;4 / 12;42246;2022-09-09 16:18:23:827
5.1993;-5.8373;7.3591;5.3804;-5.5097;6.0717;1.3375;-0.8027;-2.6991;-1.1297;2.1706;-2.5883;361.9;-68.87;37.58;-55.01;138.93;34.18;-41.55;0.0;35.958256;-83.92442;829.17;NaN;0.0;33.570072;;5 / 12;42745;2022-09-09 16:18:24:326
6.583;-5.0115;6.6685;7.3167;-4.9558;4.2516;0.1842;-1.1591;0.8036;-0.5397;1.9771;0.4256;351.1;-69.32;25.43;-64.14;198.08;27.24;-51.28;0.0;35.958256;-83.92442;829.17;NaN;0.0;33.570072;;5 / 12;43246;2022-09-09 16:18:24:827
6.3185;-2.7622;5.5373;7.1968;-5.1264;4.254;1.068;-0.7917;1.5127;-0.6848;-0.0592;0.0687;917.8;-72.98;24.26;-39.34;171.08;31.52;-59.41;0.0;35.958256;-83.92442;829.17;NaN;0.0;33.570072;;4 / 12;43746;2022-09-09 16:18:25:327
4.3828;-5.2268;6.3933;7.1044;-2.79;6.1574;-4.5413;-0.114;1.1063;1.7403;-0.2555;2.6441;1305.7999;-73.33;21.11;-37.89;97.88;16.53;-49.08;0.0;35.958256;-83.92442;829.17;NaN;0.0;33.570072;;4 / 12;44245;2022-09-09 16:18:25:826
5.1718;-5.3991;4.9508;5.8455;-6.4398;4.5309;0.4799;1.8143;3.3062;0.2538;0.0779;-1.074;1305.7999;-62.08;22.07;-35.31;160.82;41.05;-52.22;0.0;35.958256;-83.92442;829.17;NaN;0.0;33.570072;;4 / 12;44745;2022-09-09 16:18:26:326
8.1404;-5.1012;4.223;6.4978;-3.5568;6.4263;0.0451;-2.5919;-2.0132;1.0509;-1.3878;1.3094;1482.1;-56.57;3.45;-41.25;153.95;21.27;-45.32;0.0;35.958256;-83.92442;829.17;NaN;0.0;33.570072;;4 / 12;45245;2022-09-09 16:18:26:826
3.4457;-6.516;5.1063;6.494;-3.4265;6.5006;-1.2708;-1.7312;-2.9658;0.9564;0.2911;-0.5252;1482.1;-65.08;-7.37;-31.89;149.44;24.29;-47.24;0.0;35.958256;-83.92442;829.17;NaN;0.0;33.570072;;3 / 12;45745;2022-09-09 16:18:27:326
6.3903;-4.8736;8.6498;6.5112;-5.2846;5.0841;0.0871;1.1227;1.4646;0.0169;-0.1984;-0.5528;1128.4;-72.09;-24.3;-36.45;164.28;34.55;-50.45;0.0;35.958256;-83.92442;829.17;NaN;0.0;33.570072;;3 / 12;46246;2022-09-09 16:18:27:827
8.6324;-4.8245;5.1784;7.0958;-3.0124;6.0618;-2.6131;-1.1004;-3.802;0.4406;-0.076;1.7237;753.5;-56.7;-27.82;-48.66;180.27;17.89;-49.49;0.0;35.958256;-83.92442;829.17;NaN;0.0;33.570072;;3 / 12;46745;2022-09-09 16:18:28:326
1.9839;-7.226;2.8271;4.7761;-5.708;6.3858;6.8832;-3.5736;1.7022;-0.6888;2.9205;-1.3237;148.9;-55.65;-17.79;-38.61;174.41;32.59;-50.88;0.0;35.958256;-83.92442;829.17;NaN;0.0;33.570072;;3 / 12;47245;2022-09-09 16:18:28:826
8.7461;-8.016;5.001;5.6866;-4.9774;6.2497;-2.8518;-1.3585;0.6735;-0.1852;0.3173;-0.1778;448.7;-37.39;3.62;-58.37;200.65;30.5;-42.3;0.0;35.958256;-83.92442;829.17;NaN;0.0;33.570072;;3 / 11;47745;2022-09-09 16:18:29:326
4.183;-3.9173;4.4169;6.0983;-5.1472;5.6998;0.3133;0.391;-0.9926;0.221;-0.3955;0.293;182.1;-39.26;12.39;-50.64;204.78;31.66;-46.93;2.0;35.958256;-83.92442;829.17;NaN;0.0;33.570072;;3 / 11;48246;2022-09-09 16:18:29:827
4.8915;-3.8563;5.4428;6.4721;-5.3876;5.0255;-1.6536;-0.2791;-0.3754;0.3234;-1.2721;0.2406;56.6;-47.51;12.71;-46.11;195.15;33.32;-52.17;2.0;35.958256;-83.92442;829.17;NaN;0.0;33.570072;;2 / 11;48746;2022-09-09 16:18:30:327
4.6845;-3.8791;5.4978;5.8576;-5.5497;5.5731;-0.9781;2.3836;-0.7547;0.646;-0.0021;0.0305;56.6;-47.21;11.16;-39.11;170.74;34.47;-46.43;2.0;35.958256;-83.92442;829.17;NaN;0.0;33.570072;;2 / 11;49245;2022-09-09 16:18:30:826
2.3611;-5.4087;3.4388;6.1451;-4.4815;6.1906;-1.7982;-1.1235;4.8586;0.2391;-0.1644;-0.7597;50.3;-40.67;20.94;-43.56;155.4;34.57;-35.74;2.0;35.958256;-83.92442;829.17;NaN;0.0;33.570072;;3 / 10;49746;2022-09-09 16:18:31:327
6.8788;-4.3265;2.7075;6.9262;-4.6368;5.1671;2.2723;-4.1994;0.513;0.667;-1.658;1.1618;45.5;-48.24;25.03;-36.28;181.38;28.22;-53.28;2.0;35.958256;-83.92442;829.17;NaN;0.0;33.570072;;3 / 10;50246;2022-09-09 16:18:31:827
5.1646;-13.4554;7.9445;6.1605;-5.0917;5.6827;-1.1628;2.3556;-2.0876;0.0691;1.2182;-0.2676;45.5;-45.13;35.01;-27.53;73.82;31.28;-47.31;2.0;35.958256;-83.92442;829.17;NaN;0.0;33.570072;;3 / 10;50745;2022-09-09 16:18:32:326
4.3684;-5.0785;6.2303;6.2576;-5.1963;5.4783;-0.326;0.1872;1.0609;-0.3306;-0.4557;-0.2442;50.9;-55.61;29.78;-39.6;118.52;28.49;-45.18;2.0;35.958256;-83.92442;829.17;NaN;0.0;33.570072;;3 / 10;51245;2022-09-09 16:18:32:826
7.1671;-4.2081;0.5216;6.842;-6.1497;3.3969;0.2163;2.2323;-0.2941;-0.3173;-1.2577;0.8421;50.9;-63.97;28.37;-27.88;171.24;38.84;-63.6;2.0;35.958256;-83.92442;829.17;NaN;0.0;33.570072;;4 / 10;51745;2022-09-09 16:18:33:326
5.2795;-5.61;4.7868;5.688;-5.1664;6.0931;0.6219;-2.7942;1.6906;-0.682;0.694;-1.0755;58.7;-66.64;27.81;-32.12;114.92;31.79;-43.03;2.0;35.958256;-83.92442;829.17;NaN;0.0;33.570072;;4 / 10;52245;2022-09-09 16:18:33:826
11.8813;-8.4841;5.0919;7.3158;-3.6736;5.3994;-1.1165;-1.7358;-1.0276;0.978;-0.317;-0.2785;58.7;-71.87;1.86;-42.96;164.5;22.0;-53.57;0.0;35.958256;-83.92442;829.17;NaN;0.0;33.570072;;4 / 10;52745;2022-09-09 16:18:34:326
7.762;-3.0266;2.796;8.0832;-3.9031;3.9494;0.1872;0.6815;-1.0426;-1.3329;1.4275;-0.4909;58.7;-79.27;3.38;-8.38;151.47;25.31;-72.17;0.0;35.958256;-83.92442;829.17;NaN;0.0;33.570072;;4 / 10;53246;2022-09-09 16:18:34:827
6.5327;-3.97;2.9399;7.0951;-3.9843;5.4732;1.6056;-0.4994;-2.1173;-1.1564;1.2062;-0.3602;61.1;-70.01;-5.23;-28.48;148.83;23.97;-52.35;0.0;35.958256;-83.92442;829.17;NaN;0.0;33.570072;;4 / 10;53746;2022-09-09 16:18:35:327
6.8812;-4.2715;5.3973;7.4857;-3.8137;5.0587;-1.2672;-0.5707;-1.0176;0.2176;-0.4766;0.435;61.1;-51.81;-3.3;-56.59;209.56;22.89;-55.95;2.0;35.958256;-83.92442;829.17;NaN;0.0;33.570072;;4 / 10;54246;2022-09-09 16:18:35:827
7.6113;-3.8097;6.2088;7.6898;-4.3737;4.2319;0.3373;1.1453;-0.4601;-0.0904;0.0011;0.903;46.0;-52.89;2.27;-36.6;194.32;26.49;-61.17;2.0;35.958256;-83.92442;829.17;NaN;0.0;33.570072;;5 / 10;54745;2022-09-09 16:18:36:326
5.7882;-5.6782;5.2813;7.42;-4.6886;4.3739;1.261;-0.4472;-1.4751;0.6806;1.0126;-1.1272;41.5;-51.84;12.92;-20.59;151.16;28.56;-59.48;0.0;35.958256;-83.92442;829.17;NaN;0.0;33.570072;;5 / 10;55245;2022-09-09 16:18:36:826
7.1731;-2.3539;9.5186;6.7509;-5.1334;4.9238;-0.8472;2.815;4.9612;-1.0174;-0.7306;0.9189;39.9;-45.81;22.05;-14.77;109.6;31.56;-53.89;0.0;35.958256;-83.92442;829.17;NaN;0.0;33.570072;;4 / 10;55745;2022-09-09 16:18:37:326
7.0259;-3.6957;5.3339;7.5602;-4.6193;4.2043;-0.7171;0.791;2.0631;-0.5172;-0.319;0.2675;33.8;-35.61;31.37;-9.13;40.96;24.43;-57.29;2.0;35.958256;-83.92442;829.17;NaN;0.0;33.570072;;4 / 10;56246;2022-09-09 16:18:37:827
7.5407;-4.6834;6.5584;6.6617;-5.0196;5.1571;0.7312;1.4016;-0.4978;0.4385;1.008;-0.0893;28.2;-32.06;27.68;-3.3;59.45;30.79;-52.25;2.0;35.958256;-83.92442;829.17;NaN;0.0;33.570072;;3 / 10;56745;2022-09-09 16:18:38:326
5.8971;-3.6574;5.6306;7.7343;-3.4898;4.9165;-1.5265;-0.1385;0.3823;-0.0568;-0.1971;-0.0172;28.2;-32.59;17.85;-9.39;69.27;22.76;-56.65;2.0;35.958256;-83.92442;829.17;NaN;0.0;33.570072;;3 / 10;57246;2022-09-09 16:18:38:827
7.2353;-0.6027;6.2686;8.4924;-1.8908;4.5249;-0.8107;1.672;1.7855;1.6268;-1.0232;-0.3356;28.2;-23.36;7.28;-11.38;29.5;11.12;-61.95;0.0;35.958256;-83.92442;829.17;NaN;0.0;33.570072;;2 / 10;57745;2022-09-09 16:18:39:326
9.4941;-3.7953;15.6081;7.1561;-2.9903;6.0016;5.4561;-2.1192;2.9037;-1.5585;2.0008;1.2279;41.1;-13.61;12.71;-24.84;292.52;17.75;-50.01;0.0;35.958256;-83.92442;829.17;NaN;0.0;33.570072;;2 / 10;58245;2022-09-09 16:18:39:826
7.4127;-3.0458;7.5736;7.2046;-4.2443;5.1235;-1.2419;0.2638;2.4269;2.2915;-2.1057;2.319;33.5;-10.05;14.44;-28.07;276.94;25.65;-54.58;0.0;35.958256;-83.92442;829.17;NaN;0.0;33.570072;;2 / 10;58746;2022-09-09 16:18:40:327
8.1882;-4.6594;3.1313;8.0371;-3.4964;4.3989;0.0865;-0.471;-1.1669;0.5185;-0.8689;1.1094;96.5;-14.98;5.18;-29.7;257.55;17.96;-59.0;0.0;35.958256;-83.92442;829.17;NaN;0.0;33.570072;;2 / 10;59246;2022-09-09 16:18:40:827
5.7523;-5.7117;6.3909;7.5941;-3.8916;4.8328;-0.0419;-1.5542;-1.3668;-0.8617;2.7348;-0.5502;138.8;-23.7;-1.99;-25.99;210.42;23.38;-57.53;0.0;35.958256;-83.92442;829.17;NaN;0.0;33.570072;;2 / 9;59745;2022-09-09 16:18:41:326
7.1073;-6.2587;4.2841;7.0964;-4.7154;4.8556;0.1359;0.5004;-0.866;-0.2472;-0.9983;0.4742;164.3;-29.74;-7.37;-34.35;202.18;28.74;-55.62;0.0;35.958256;-83.92442;829.17;NaN;0.0;33.570072;;2 / 9;60246;2022-09-09 16:18:41:827
7.9155;-4.6475;2.7829;7.4196;-5.469;3.3481;2.0224;2.0164;-0.2926;-0.5645;0.7598;-0.5234;141.5;-22.46;-9.3;-20.16;201.56;33.9;-65.71;0.0;35.958256;-83.92442;829.17;NaN;0.0;33.570072;;0 / 9;60745;2022-09-09 16:18:42:326
8.8179;-10.8206;9.8671;5.8179;-5.6098;5.5545;4.6191;-0.2801;-2.1011;0.0571;1.295;0.6682;127.3;-22.37;-12.62;-25.14;199.66;30.95;-58.52;0.0;35.958256;-83.92442;829.17;NaN;0.0;33.570072;;0 / 9;61246;2022-09-09 16:18:42:827
12.3805;-7.919;7.1725;7.4639;-4.2307;4.7499;-2.8512;-0.2248;-2.6622;-0.8711;0.2921;0.4461;105.9;-15.94;9.13;-40.86;262.81;19.04;-56.63;0.0;35.958256;-83.92442;829.17;NaN;0.0;33.570072;;0 / 9;61745;2022-09-09 16:18:43:326
6.2504;-3.6861;4.678;7.1862;-4.7906;4.6454;1.0259;-0.0018;0.4816;-0.3466;1.6782;-1.0843;102.9;-18.9;21.9;-41.7;270.6;29.24;-57.12;0.0;35.958256;-83.92442;829.17;NaN;0.0;33.570072;;0 / 9;62245;2022-09-09 16:18:43:826
10.0101;-7.3181;6.8504;6.3937;-5.1427;5.3706;-0.5197;1.1322;-1.8165;-0.9959;0.5876;0.3241;102.9;-20.4;26.81;-45.02;269.42;31.63;-49.97;0.0;35.958256;-83.92442;829.17;NaN;0.0;33.570072;;1 / 9;62745;2022-09-09 16:18:44:326
3.417;-7.2799;8.9501;6.3688;-5.1146;5.4268;4.1476;-2.631;2.0196;-0.1798;0.1571;-1.0627;129.9;-20.7;28.78;-45.43;273.29;31.44;-49.57;0.0;35.958256;-83.92442;829.17;NaN;0.0;33.570072;;1 / 9;63246;2022-09-09 16:18:44:827
3.417;-7.2799;8.9501;6.3688;-5.1146;5.4268;4.1476;-2.631;2.0196;-0.1798;0.1571;-1.0627;243.9;-20.7;28.78;-45.43;273.29;31.44;-49.57;0.0;35.958256;-83.92442;829.17;NaN;0.0;33.570072;;1 / 9;63746;2022-09-09 16:18:45:327
2.2702;-4.4608;4.6119;6.3688;-5.1146;5.4268;4.1476;-2.631;2.0196;-0.1798;0.1571;-1.0627;262.7;-20.7;28.78;-45.43;273.29;31.44;-49.57;0.0;35.958256;-83.92442;829.17;NaN;0.0;33.570072;;1 / 9;64246;2022-09-09 16:18:45:827
2.2702;-4.4608;4.6119;6.3688;-5.1146;5.4268;4.1476;-2.631;2.0196;-0.1798;0.1571;-1.0627;219.6;-20.7;28.78;-45.43;273.29;31.44;-49.57;0.0;35.958256;-83.92442;829.17;NaN;0.0;33.570072;;1 / 9;64748;2022-09-09 16:18:46:329
4.8628;-5.7751;4.4324;6.3688;-5.1146;5.4268;4.1476;-2.631;2.0196;-0.1798;0.1571;-1.0627;230.1;-20.7;28.78;-45.43;273.29;31.44;-49.57;0.0;35.958256;-83.92442;829.17;NaN;0.0;33.570072;;1 / 9;65248;2022-09-09 16:18:46:829
4.8628;-5.7751;4.4324;6.3688;-5.1146;5.4268;4.1476;-2.631;2.0196;-0.1798;0.1571;-1.0627;166.2;-20.7;28.78;-45.43;273.29;31.44;-49.57;0.0;35.958256;-83.92442;829.17;NaN;0.0;33.570072;;1 / 9;65745;2022-09-09 16:18:47:326
10.9511;-8.8202;6.2088;6.3688;-5.1146;5.4268;4.1476;-2.631;2.0196;-0.1798;0.1571;-1.0627;382.6;-20.7;28.78;-45.43;273.29;31.44;-49.57;0.0;35.958256;-83.92442;829.17;NaN;0.0;33.570072;;1 / 9;66245;2022-09-09 16:18:47:826
10.9511;-8.8202;6.2088;6.3688;-5.1146;5.4268;4.1476;-2.631;2.0196;-0.1798;0.1571;-1.0627;499.2;-20.7;28.78;-45.43;273.29;31.44;-49.57;0.0;35.958256;-83.92442;829.17;NaN;0.0;33.570072;;1 / 9;66745;2022-09-09 16:18:48:326
5.933;-3.5988;6.7905;6.3688;-5.1146;5.4268;4.1476;-2.631;2.0196;-0.1798;0.1571;-1.0627;589.8;-20.7;28.78;-45.43;273.29;31.44;-49.57;0.0;35.958256;-83.92442;829.17;NaN;0.0;33.570072;;1 / 9;67245;2022-09-09 16:18:48:826
5.933;-3.5988;6.7905;6.3688;-5.1146;5.4268;4.1476;-2.631;2.0196;-0.1798;0.1571;-1.0627;897.1;-20.7;28.78;-45.43;273.29;31.44;-49.57;0.0;35.958256;-83.92442;829.17;NaN;0.0;33.570072;;1 / 9;67746;2022-09-09 16:18:49:327
7.8075;-5.6267;3.7143;6.3688;-5.1146;5.4268;4.1476;-2.631;2.0196;-0.1798;0.1571;-1.0627;1075.0;-20.7;28.78;-45.43;273.29;31.44;-49.57;0.0;35.958256;-83.92442;829.17;NaN;0.0;33.570072;;1 / 9;68246;2022-09-09 16:18:49:827
7.8075;-5.6267;3.7143;6.3688;-5.1146;5.4268;4.1476;-2.631;2.0196;-0.1798;0.1571;-1.0627;1075.0;-20.7;28.78;-45.43;273.29;31.44;-49.57;0.0;35.958256;-83.92442;829.17;NaN;0.0;33.570072;;1 / 9;68746;2022-09-09 16:18:50:327
8.6767;-2.1553;13.1542;6.3688;-5.1146;5.4268;4.1476;-2.631;2.0196;-0.1798;0.1571;-1.0627;1075.0;-20.7;28.78;-45.43;273.29;31.44;-49.57;0.0;35.958256;-83.92442;829.17;NaN;0.0;33.570072;;1 / 9;69246;2022-09-09 16:18:50:827
8.6767;-2.1553;13.1542;6.3688;-5.1146;5.4268;4.1476;-2.631;2.0196;-0.1798;0.1571;-1.0627;1075.0;-20.7;28.78;-45.43;273.29;31.44;-49.57;0.0;35.958256;-83.92442;829.17;NaN;0.0;33.570072;;1 / 9;69745;2022-09-09 16:18:51:326
8.5546;-4.803;4.2051;6.3688;-5.1146;5.4268;4.1476;-2.631;2.0196;-0.1798;0.1571;-1.0627;630.5;-20.7;28.78;-45.43;273.29;31.44;-49.57;0.0;35.958256;-83.92442;829.17;NaN;0.0;33.570072;;1 / 9;70246;2022-09-09 16:18:51:827
8.5546;-4.803;4.2051;6.3688;-5.1146;5.4268;4.1476;-2.631;2.0196;-0.1798;0.1571;-1.0627;236.4;-20.7;28.78;-45.43;273.29;31.44;-49.57;0.0;35.958256;-83.92442;829.17;NaN;0.0;33.570072;;1 / 9;70746;2022-09-09 16:18:52:327
8.5546;-4.803;4.2051;6.3688;-5.1146;5.4268;4.1476;-2.631;2.0196;-0.1798;0.1571;-1.0627;266.9;-20.7;28.78;-45.43;273.29;31.44;-49.57;0.0;35.958256;-83.92442;829.17;NaN;0.0;33.570072;;1 / 9;71245;2022-09-09 16:18:52:826
6.3879;-3.5055;3.3742;6.3688;-5.1146;5.4268;4.1476;-2.631;2.0196;-0.1798;0.1571;-1.0627;60.6;-20.7;28.78;-45.43;273.29;31.44;-49.57;0.0;35.958256;-83.92442;829.17;NaN;0.0;33.570072;;1 / 9;71745;2022-09-09 16:18:53:326
6.3879;-3.5055;3.3742;6.3688;-5.1146;5.4268;4.1476;-2.631;2.0196;-0.1798;0.1571;-1.0627;57.3;-20.7;28.78;-45.43;273.29;31.44;-49.57;0.0;35.958256;-83.92442;829.17;NaN;0.0;33.570072;;1 / 9;72246;2022-09-09 16:18:53:827
6.3879;-3.5055;3.3742;6.3688;-5.1146;5.4268;4.1476;-2.631;2.0196;-0.1798;0.1571;-1.0627;57.3;-20.7;28.78;-45.43;273.29;31.44;-49.57;0.0;35.958256;-83.92442;829.17;NaN;0.0;33.570072;;1 / 9;72746;2022-09-09 16:18:54:327
5.246;-4.0466;5.6246;6.3688;-5.1146;5.4268;4.1476;-2.631;2.0196;-0.1798;0.1571;-1.0627;50.0;-20.7;28.78;-45.43;273.29;31.44;-49.57;0.0;35.958256;-83.92442;829.17;NaN;0.0;33.570072;;1 / 9;73246;2022-09-09 16:18:54:827
4.736;-5.0043;5.1745;6.3688;-5.1146;5.4268;4.1476;-2.631;2.0196;-0.1798;0.1571;-1.0627;50.0;-20.7;28.78;-45.43;273.29;31.44;-49.57;0.0;35.958256;-83.92442;829.17;NaN;0.0;33.570072;;1 / 9;73746;2022-09-09 16:18:55:327
4.736;-5.0043;5.1745;6.3688;-5.1146;5.4268;4.1476;-2.631;2.0196;-0.1798;0.1571;-1.0627;57.3;-20.7;28.78;-45.43;273.29;31.44;-49.57;0.0;35.958256;-83.92442;829.17;NaN;0.0;33.570072;;1 / 9;74246;2022-09-09 16:18:55:827
4.736;-5.0043;5.1745;6.3688;-5.1146;5.4268;4.1476;-2.631;2.0196;-0.1798;0.1571;-1.0627;57.3;-20.7;28.78;-45.43;273.29;31.44;-49.57;0.0;35.958256;-83.92442;829.17;NaN;0.0;33.570072;;1 / 9;74746;2022-09-09 16:18:56:327
11.8059;-9.0909;6.7929;6.3688;-5.1146;5.4268;4.1476;-2.631;2.0196;-0.1798;0.1571;-1.0627;65.2;-20.7;28.78;-45.43;273.29;31.44;-49.57;0.0;35.958256;-83.92442;829.17;NaN;0.0;33.570072;;1 / 9;75245;2022-09-09 16:18:56:826
6.1534;-4.1518;4.0854;6.3688;-5.1146;5.4268;4.1476;-2.631;2.0196;-0.1798;0.1571;-1.0627;72.9;-20.7;28.78;-45.43;273.29;31.44;-49.57;0.0;35.958256;-83.92442;829.17;NaN;0.0;33.570072;;1 / 9;75747;2022-09-09 16:18:57:328
6.1534;-4.1518;4.0854;6.3688;-5.1146;5.4268;4.1476;-2.631;2.0196;-0.1798;0.1571;-1.0627;72.9;-20.7;28.78;-45.43;273.29;31.44;-49.57;0.0;35.958256;-83.92442;829.17;NaN;0.0;33.570072;;1 / 9;76246;2022-09-09 16:18:57:827
6.1534;-4.1518;4.0854;6.3688;-5.1146;5.4268;4.1476;-2.631;2.0196;-0.1798;0.1571;-1.0627;72.9;-20.7;28.78;-45.43;273.29;31.44;-49.57;0.0;35.958256;-83.92442;829.17;NaN;0.0;33.570072;;1 / 9;76746;2022-09-09 16:18:58:327
6.1534;-4.1518;4.0854;6.3688;-5.1146;5.4268;4.1476;-2.631;2.0196;-0.1798;0.1571;-1.0627;72.9;-20.7;28.78;-45.43;273.29;31.44;-49.57;0.0;35.958256;-83.92442;829.17;NaN;0.0;33.570072;;1 / 9;77246;2022-09-09 16:18:58:827
7.3457;-3.4409;3.0583;6.3688;-5.1146;5.4268;4.1476;-2.631;2.0196;-0.1798;0.1571;-1.0627;61.4;-20.7;28.78;-45.43;273.29;31.44;-49.57;0.0;35.958256;-83.92442;829.17;NaN;0.0;33.570072;;1 / 9;77746;2022-09-09 16:18:59:327
10.0917;-5.5597;5.4643;6.3688;-5.1146;5.4268;4.1476;-2.631;2.0196;-0.1798;0.1571;-1.0627;48.7;-20.7;28.78;-45.43;273.29;31.44;-49.57;0.0;35.958256;-83.92442;829.17;NaN;0.0;33.570072;;1 / 9;78245;2022-09-09 16:18:59:826
10.0917;-5.5597;5.4643;6.3688;-5.1146;5.4268;4.1476;-2.631;2.0196;-0.1798;0.1571;-1.0627;48.7;-20.7;28.78;-45.43;273.29;31.44;-49.57;0.0;35.958256;-83.92442;829.17;NaN;0.0;33.570072;;1 / 9;78746;2022-09-09 16:19:00:327
6.3544;-6.996;6.8722;6.3688;-5.1146;5.4268;4.1476;-2.631;2.0196;-0.1798;0.1571;-1.0627;33.1;-20.7;28.78;-45.43;273.29;31.44;-49.57;0.0;35.958256;-83.92442;829.17;NaN;0.0;33.570072;;1 / 9;79246;2022-09-09 16:19:00:827
6.3544;-6.996;6.8722;6.3688;-5.1146;5.4268;4.1476;-2.631;2.0196;-0.1798;0.1571;-1.0627;33.1;-20.7;28.78;-45.43;273.29;31.44;-49.57;0.0;35.958256;-83.92442;829.17;NaN;0.0;33.570072;;1 / 9;79745;2022-09-09 16:19:01:326
6.3544;-6.996;6.8722;6.3688;-5.1146;5.4268;4.1476;-2.631;2.0196;-0.1798;0.1571;-1.0627;24.6;-20.7;28.78;-45.43;273.29;31.44;-49.57;0.0;35.958256;-83.92442;829.17;NaN;0.0;33.570072;;1 / 9;80247;2022-09-09 16:19:01:828
9.8904;-6.4478;4.1668;6.3688;-5.1146;5.4268;4.1476;-2.631;2.0196;-0.1798;0.1571;-1.0627;18.7;-20.7;28.78;-45.43;273.29;31.44;-49.57;0.0;35.958256;-83.92442;829.17;NaN;0.0;33.570072;;1 / 9;80746;2022-09-09 16:19:02:327
6.4382;-4.2763;1.4542;6.3688;-5.1146;5.4268;4.1476;-2.631;2.0196;-0.1798;0.1571;-1.0627;22.8;-20.7;28.78;-45.43;273.29;31.44;-49.57;0.0;35.958256;-83.92442;829.17;NaN;0.0;33.570072;;1 / 9;81246;2022-09-09 16:19:02:827
6.4382;-4.2763;1.4542;6.3688;-5.1146;5.4268;4.1476;-2.631;2.0196;-0.1798;0.1571;-1.0627;49.4;-20.7;28.78;-45.43;273.29;31.44;-49.57;0.0;35.958256;-83.92442;829.17;NaN;0.0;33.570072;;1 / 9;81746;2022-09-09 16:19:03:327
4.5326;-2.653;4.1118;6.3688;-5.1146;5.4268;4.1476;-2.631;2.0196;-0.1798;0.1571;-1.0627;57.8;-20.7;28.78;-45.43;273.29;31.44;-49.57;0.0;35.958256;-83.92442;829.17;NaN;0.0;33.570072;;1 / 9;82246;2022-09-09 16:19:03:827
4.5326;-2.653;4.1118;6.3688;-5.1146;5.4268;4.1476;-2.631;2.0196;-0.1798;0.1571;-1.0627;82.2;-20.7;28.78;-45.43;273.29;31.44;-49.57;0.0;35.958256;-83.92442;829.17;NaN;0.0;33.570072;;1 / 9;82745;2022-09-09 16:19:04:326
4.384;-7.9035;4.5712;6.3688;-5.1146;5.4268;4.1476;-2.631;2.0196;-0.1798;0.1571;-1.0627;99.0;-20.7;28.78;-45.43;273.29;31.44;-49.57;0.0;35.958256;-83.92442;829.17;NaN;0.0;33.570072;;1 / 9;83246;2022-09-09 16:19:04:827
4.384;-7.9035;4.5712;6.3688;-5.1146;5.4268;4.1476;-2.631;2.0196;-0.1798;0.1571;-1.0627;87.6;-20.7;28.78;-45.43;273.29;31.44;-49.57;0.0;35.958256;-83.92442;829.17;NaN;0.0;33.570072;;1 / 9;83746;2022-09-09 16:19:05:327
6.2611;-3.2542;4.9783;6.3688;-5.1146;5.4268;4.1476;-2.631;2.0196;-0.1798;0.1571;-1.0627;100.0;-20.7;28.78;-45.43;273.29;31.44;-49.57;0.0;35.958256;-83.92442;829.17;NaN;0.0;33.570072;;1 / 9;84246;2022-09-09 16:19:05:827
6.2611;-3.2542;4.9783;6.3688;-5.1146;5.4268;4.1476;-2.631;2.0196;-0.1798;0.1571;-1.0627;90.7;-20.7;28.78;-45.43;273.29;31.44;-49.57;0.0;35.958256;-83.92442;829.17;NaN;0.0;33.570072;;1 / 9;84746;2022-09-09 16:19:06:327
8.8872;-5.5884;2.3231;6.3688;-5.1146;5.4268;4.1476;-2.631;2.0196;-0.1798;0.1571;-1.0627;93.6;-20.7;28.78;-45.43;273.29;31.44;-49.57;0.0;35.958256;-83.92442;829.17;NaN;0.0;33.570072;;1 / 9;85246;2022-09-09 16:19:06:827
8.8872;-5.5884;2.3231;6.3688;-5.1146;5.4268;4.1476;-2.631;2.0196;-0.1798;0.1571;-1.0627;76.1;-20.7;28.78;-45.43;273.29;31.44;-49.57;0.0;35.958256;-83.92442;829.17;NaN;0.0;33.570072;;1 / 9;85747;2022-09-09 16:19:07:328
6.8836;-3.2303;3.7238;6.3688;-5.1146;5.4268;4.1476;-2.631;2.0196;-0.1798;0.1571;-1.0627;202.6;-20.7;28.78;-45.43;273.29;31.44;-49.57;0.0;35.958256;-83.92442;829.17;NaN;0.0;33.570072;;1 / 9;86246;2022-09-09 16:19:07:827
6.8836;-3.2303;3.7238;6.3688;-5.1146;5.4268;4.1476;-2.631;2.0196;-0.1798;0.1571;-1.0627;63.9;-20.7;28.78;-45.43;273.29;31.44;-49.57;0.0;35.958256;-83.92442;829.17;NaN;0.0;33.570072;;1 / 9;86745;2022-09-09 16:19:08:326
6.8836;-3.2303;3.7238;6.3688;-5.1146;5.4268;4.1476;-2.631;2.0196;-0.1798;0.1571;-1.0627;110.3;-20.7;28.78;-45.43;273.29;31.44;-49.57;0.0;35.958256;-83.92442;829.17;NaN;0.0;33.570072;;1 / 9;87246;2022-09-09 16:19:08:827
2.7535;-3.4313;6.7044;6.3688;-5.1146;5.4268;4.1476;-2.631;2.0196;-0.1798;0.1571;-1.0627;286.9;-20.7;28.78;-45.43;273.29;31.44;-49.57;0.0;35.958256;-83.92442;829.17;NaN;0.0;33.570072;;1 / 9;87745;2022-09-09 16:19:09:326
2.7535;-3.4313;6.7044;6.3688;-5.1146;5.4268;4.1476;-2.631;2.0196;-0.1798;0.1571;-1.0627;100.8;-20.7;28.78;-45.43;273.29;31.44;-49.57;0.0;35.958256;-83.92442;829.17;NaN;0.0;33.570072;;1 / 9;88245;2022-09-09 16:19:09:826
9.4881;-3.1175;2.1939;6.3688;-5.1146;5.4268;4.1476;-2.631;2.0196;-0.1798;0.1571;-1.0627;49.3;-20.7;28.78;-45.43;273.29;31.44;-49.57;0.0;35.958256;-83.92442;829.17;NaN;0.0;33.570072;;1 / 9;88745;2022-09-09 16:19:10:326
9.4881;-3.1175;2.1939;6.3688;-5.1146;5.4268;4.1476;-2.631;2.0196;-0.1798;0.1571;-1.0627;142.5;-20.7;28.78;-45.43;273.29;31.44;-49.57;0.0;35.958256;-83.92442;829.17;NaN;0.0;33.570072;;1 / 9;89246;2022-09-09 16:19:10:827
4.3002;-3.1223;5.6605;6.3688;-5.1146;5.4268;4.1476;-2.631;2.0196;-0.1798;0.1571;-1.0627;330.6;-20.7;28.78;-45.43;273.29;31.44;-49.57;0.0;35.958256;-83.92442;829.17;NaN;0.0;33.570072;;1 / 9;89745;2022-09-09 16:19:11:326
4.3002;-3.1223;5.6605;6.3688;-5.1146;5.4268;4.1476;-2.631;2.0196;-0.1798;0.1571;-1.0627;596.3;-20.7;28.78;-45.43;273.29;31.44;-49.57;0.0;35.958256;-83.92442;829.17;NaN;0.0;33.570072;;1 / 9;90246;2022-09-09 16:19:11:827
9.9215;-4.7982;6.3239;6.3688;-5.1146;5.4268;4.1476;-2.631;2.0196;-0.1798;0.1571;-1.0627;719.1;-20.7;28.78;-45.43;273.29;31.44;-49.57;0.0;35.958256;-83.92442;829.17;NaN;0.0;33.570072;;1 / 9;90745;2022-09-09 16:19:12:326
9.9215;-4.7982;6.3239;6.3688;-5.1146;5.4268;4.1476;-2.631;2.0196;-0.1798;0.1571;-1.0627;820.7;-20.7;28.78;-45.43;273.29;31.44;-49.57;0.0;35.958256;-83.92442;829.17;NaN;0.0;33.570072;;1 / 9;91245;2022-09-09 16:19:12:826
5.3967;-4.978;6.0221;6.3688;-5.1146;5.4268;4.1476;-2.631;2.0196;-0.1798;0.1571;-1.0627;926.7;-20.7;28.78;-45.43;273.29;31.44;-49.57;0.0;35.958256;-83.92442;829.17;NaN;0.0;33.570072;;1 / 9;91745;2022-09-09 16:19:13:326
5.3967;-4.978;6.0221;6.3688;-5.1146;5.4268;4.1476;-2.631;2.0196;-0.1798;0.1571;-1.0627;555.1;-20.7;28.78;-45.43;273.29;31.44;-49.57;0.0;35.958256;-83.92442;829.17;NaN;0.0;33.570072;;1 / 9;92245;2022-09-09 16:19:13:826
6.2898;-7.2523;4.6863;6.3688;-5.1146;5.4268;4.1476;-2.631;2.0196;-0.1798;0.1571;-1.0627;300.2;-20.7;28.78;-45.43;273.29;31.44;-49.57;0.0;35.958256;-83.92442;829.17;NaN;0.0;33.570072;;1 / 9;92745;2022-09-09 16:19:14:326
6.2898;-7.2523;4.6863;6.3688;-5.1146;5.4268;4.1476;-2.631;2.0196;-0.1798;0.1571;-1.0627;128.8;-20.7;28.78;-45.43;273.29;31.44;-49.57;0.0;35.958256;-83.92442;829.17;NaN;0.0;33.570072;;1 / 9;93245;2022-09-09 16:19:14:826
8.0064;-1.413;4.0615;6.3688;-5.1146;5.4268;4.1476;-2.631;2.0196;-0.1798;0.1571;-1.0627;34.3;-20.7;28.78;-45.43;273.29;31.44;-49.57;0.0;35.958256;-83.92442;829.17;NaN;0.0;33.570072;;1 / 9;93745;2022-09-09 16:19:15:326
8.0064;-1.413;4.0615;6.3688;-5.1146;5.4268;4.1476;-2.631;2.0196;-0.1798;0.1571;-1.0627;31.5;-20.7;28.78;-45.43;273.29;31.44;-49.57;0.0;35.958256;-83.92442;829.17;NaN;0.0;33.570072;;1 / 9;94246;2022-09-09 16:19:15:827
7.8269;-1.4058;5.9456;6.3688;-5.1146;5.4268;4.1476;-2.631;2.0196;-0.1798;0.1571;-1.0627;38.5;-20.7;28.78;-45.43;273.29;31.44;-49.57;0.0;35.958256;-83.92442;829.17;NaN;0.0;33.570072;;1 / 9;94746;2022-09-09 16:19:16:327
7.8269;-1.4058;5.9456;6.3688;-5.1146;5.4268;4.1476;-2.631;2.0196;-0.1798;0.1571;-1.0627;37.6;-20.7;28.78;-45.43;273.29;31.44;-49.57;0.0;35.958256;-83.92442;829.17;NaN;0.0;33.570072;;1 / 9;95246;2022-09-09 16:19:16:827
7.8269;-1.4058;5.9456;6.3688;-5.1146;5.4268;4.1476;-2.631;2.0196;-0.1798;0.1571;-1.0627;41.8;-20.7;28.78;-45.43;273.29;31.44;-49.57;0.0;35.958256;-83.92442;829.17;NaN;0.0;33.570072;;1 / 9;95747;2022-09-09 16:19:17:328
6.6296;-4.3866;6.3957;6.3688;-5.1146;5.4268;4.1476;-2.631;2.0196;-0.1798;0.1571;-1.0627;36.9;-20.7;28.78;-45.43;273.29;31.44;-49.57;0.0;35.958256;-83.92442;829.17;NaN;0.0;33.570072;;1 / 9;96247;2022-09-09 16:19:17:828
6.6296;-4.3866;6.3957;6.3688;-5.1146;5.4268;4.1476;-2.631;2.0196;-0.1798;0.1571;-1.0627;46.1;-20.7;28.78;-45.43;273.29;31.44;-49.57;0.0;35.958256;-83.92442;829.17;NaN;0.0;33.570072;;1 / 9;96746;2022-09-09 16:19:18:327
6.6296;-4.3866;6.3957;6.3688;-5.1146;5.4268;4.1476;-2.631;2.0196;-0.1798;0.1571;-1.0627;46.1;-20.7;28.78;-45.43;273.29;31.44;-49.57;0.0;35.958256;-83.92442;829.17;NaN;0.0;33.570072;;1 / 9;97248;2022-09-09 16:19:18:829
1.4273;-3.5007;7.212;6.3688;-5.1146;5.4268;4.1476;-2.631;2.0196;-0.1798;0.1571;-1.0627;54.0;-20.7;28.78;-45.43;273.29;31.44;-49.57;0.0;35.958256;-83.92442;829.17;NaN;0.0;33.570072;;1 / 9;97746;2022-09-09 16:19:19:327
5.6507;-4.6044;5.3088;6.3688;-5.1146;5.4268;4.1476;-2.631;2.0196;-0.1798;0.1571;-1.0627;60.5;-20.7;28.78;-45.43;273.29;31.44;-49.57;0.0;35.958256;-83.92442;829.17;NaN;0.0;33.570072;;1 / 9;98246;2022-09-09 16:19:19:827
5.6507;-4.6044;5.3088;6.3688;-5.1146;5.4268;4.1476;-2.631;2.0196;-0.1798;0.1571;-1.0627;67.9;-20.7;28.78;-45.43;273.29;31.44;-49.57;0.0;35.958256;-83.92442;829.17;NaN;0.0;33.570072;;1 / 9;98745;2022-09-09 16:19:20:326
5.6507;-4.6044;5.3088;6.3688;-5.1146;5.4268;4.1476;-2.631;2.0196;-0.1798;0.1571;-1.0627;67.9;-20.7;28.78;-45.43;273.29;31.44;-49.57;0.0;35.958256;-83.92442;829.17;NaN;0.0;33.570072;;1 / 9;99245;2022-09-09 16:19:20:826
6.7902;-2.8854;4.8108;6.3688;-5.1146;5.4268;4.1476;-2.631;2.0196;-0.1798;0.1571;-1.0627;57.5;-20.7;28.78;-45.43;273.29;31.44;-49.57;0.0;35.958256;-83.92442;829.17;NaN;0.0;33.570072;;1 / 9;99748;2022-09-09 16:19:21:329
7.0343;-4.9253;4.6193;6.3688;-5.1146;5.4268;4.1476;-2.631;2.0196;-0.1798;0.1571;-1.0627;36.2;-20.7;28.78;-45.43;273.29;31.44;-49.57;0.0;35.958256;-83.92442;829.17;NaN;0.0;33.570072;;1 / 9;100246;2022-09-09 16:19:21:827
7.0343;-4.9253;4.6193;6.3688;-5.1146;5.4268;4.1476;-2.631;2.0196;-0.1798;0.1571;-1.0627;50.3;-20.7;28.78;-45.43;273.29;31.44;-49.57;0.0;35.958256;-83.92442;829.17;NaN;0.0;33.570072;;1 / 9;100746;2022-09-09 16:19:22:327
3.9317;-5.5478;4.6433;6.3688;-5.1146;5.4268;4.1476;-2.631;2.0196;-0.1798;0.1571;-1.0627;17.7;-20.7;28.78;-45.43;273.29;31.44;-49.57;0.0;35.958256;-83.92442;829.17;NaN;0.0;33.570072;;1 / 9;101246;2022-09-09 16:19:22:827
3.9317;-5.5478;4.6433;6.3688;-5.1146;5.4268;4.1476;-2.631;2.0196;-0.1798;0.1571;-1.0627;13.4;-20.7;28.78;-45.43;273.29;31.44;-49.57;0.0;35.958256;-83.92442;829.17;NaN;0.0;33.570072;;1 / 9;101745;2022-09-09 16:19:23:326
8.4805;-5.045;4.739;6.3688;-5.1146;5.4268;4.1476;-2.631;2.0196;-0.1798;0.1571;-1.0627;28.5;-20.7;28.78;-45.43;273.29;31.44;-49.57;0.0;35.958256;-83.92442;829.17;NaN;0.0;33.570072;;1 / 9;102245;2022-09-09 16:19:23:826
8.4805;-5.045;4.739;6.3688;-5.1146;5.4268;4.1476;-2.631;2.0196;-0.1798;0.1571;-1.0627;19.9;-20.7;28.78;-45.43;273.29;31.44;-49.57;0.0;35.958256;-83.92442;829.17;NaN;0.0;33.570072;;1 / 9;102745;2022-09-09 16:19:24:326
8.4805;-5.045;4.739;6.3688;-5.1146;5.4268;4.1476;-2.631;2.0196;-0.1798;0.1571;-1.0627;21.8;-20.7;28.78;-45.43;273.29;31.44;-49.57;0.0;35.958256;-83.92442;829.17;NaN;0.0;33.570072;;1 / 9;103245;2022-09-09 16:19:24:826
9.9838;-2.251;5.5265;6.3688;-5.1146;5.4268;4.1476;-2.631;2.0196;-0.1798;0.1571;-1.0627;38.7;-20.7;28.78;-45.43;273.29;31.44;-49.57;0.0;35.958256;-83.92442;829.17;NaN;0.0;33.570072;;1 / 9;103746;2022-09-09 16:19:25:327
9.9838;-2.251;5.5265;6.3688;-5.1146;5.4268;4.1476;-2.631;2.0196;-0.1798;0.1571;-1.0627;38.7;-20.7;28.78;-45.43;273.29;31.44;-49.57;0.0;35.958256;-83.92442;829.17;NaN;0.0;33.570072;;1 / 9;104246;2022-09-09 16:19:25:827
8.2074;-4.4847;4.3415;6.3688;-5.1146;5.4268;4.1476;-2.631;2.0196;-0.1798;0.1571;-1.0627;12.7;-20.7;28.78;-45.43;273.29;31.44;-49.57;0.0;35.958256;-83.92442;829.17;NaN;0.0;33.570072;;1 / 9;104746;2022-09-09 16:19:26:327
8.2074;-4.4847;4.3415;6.3688;-5.1146;5.4268;4.1476;-2.631;2.0196;-0.1798;0.1571;-1.0627;30.0;-20.7;28.78;-45.43;273.29;31.44;-49.57;0.0;35.958256;-83.92442;829.17;NaN;0.0;33.570072;;1 / 9;105248;2022-09-09 16:19:26:829
4.3074;-5.2962;3.3838;6.3688;-5.1146;5.4268;4.1476;-2.631;2.0196;-0.1798;0.1571;-1.0627;36.7;-20.7;28.78;-45.43;273.29;31.44;-49.57;0.0;35.958256;-83.92442;829.17;NaN;0.0;33.570072;;1 / 9;105745;2022-09-09 16:19:27:326
4.3074;-5.2962;3.3838;6.3688;-5.1146;5.4268;4.1476;-2.631;2.0196;-0.1798;0.1571;-1.0627;44.7;-20.7;28.78;-45.43;273.29;31.44;-49.57;0.0;35.958256;-83.92442;829.17;NaN;0.0;33.570072;;1 / 9;106245;2022-09-09 16:19:27:826
4.3074;-5.2962;3.3838;6.3688;-5.1146;5.4268;4.1476;-2.631;2.0196;-0.1798;0.1571;-1.0627;44.7;-20.7;28.78;-45.43;273.29;31.44;-49.57;0.0;35.958256;-83.92442;829.17;NaN;0.0;33.570072;;1 / 9;106745;2022-09-09 16:19:28:326
11.0563;-8.9785;6.9559;6.3688;-5.1146;5.4268;4.1476;-2.631;2.0196;-0.1798;0.1571;-1.0627;36.6;-20.7;28.78;-45.43;273.29;31.44;-49.57;0.0;35.958256;-83.92442;829.17;NaN;0.0;33.570072;;1 / 9;107245;2022-09-09 16:19:28:826
6.9506;-4.3412;5.5433;6.3688;-5.1146;5.4268;4.1476;-2.631;2.0196;-0.1798;0.1571;-1.0627;43.4;-20.7;28.78;-45.43;273.29;31.44;-49.57;0.0;35.958256;-83.92442;829.17;NaN;0.0;33.570072;;1 / 9;107746;2022-09-09 16:19:29:327
6.9506;-4.3412;5.5433;6.3688;-5.1146;5.4268;4.1476;-2.631;2.0196;-0.1798;0.1571;-1.0627;43.4;-20.7;28.78;-45.43;273.29;31.44;-49.57;0.0;35.958256;-83.92442;829.17;NaN;0.0;33.570072;;1 / 9;108246;2022-09-09 16:19:29:827
6.9506;-4.3412;5.5433;6.3688;-5.1146;5.4268;4.1476;-2.631;2.0196;-0.1798;0.1571;-1.0627;43.4;-20.7;28.78;-45.43;273.29;31.44;-49.57;0.0;35.958256;-83.92442;829.17;NaN;0.0;33.570072;;1 / 9;108745;2022-09-09 16:19:30:326
6.9506;-4.3412;5.5433;6.3688;-5.1146;5.4268;4.1476;-2.631;2.0196;-0.1798;0.1571;-1.0627;43.4;-20.7;28.78;-45.43;273.29;31.44;-49.57;0.0;35.958256;-83.92442;829.17;NaN;0.0;33.570072;;1 / 9;109246;2022-09-09 16:19:30:827
6.0191;-2.5884;5.3255;6.3688;-5.1146;5.4268;4.1476;-2.631;2.0196;-0.1798;0.1571;-1.0627;50.3;-20.7;28.78;-45.43;273.29;31.44;-49.57;0.0;35.958256;-83.92442;829.17;NaN;0.0;33.570072;;1 / 9;109746;2022-09-09 16:19:31:327
6.0191;-2.5884;5.3255;6.3688;-5.1146;5.4268;4.1476;-2.631;2.0196;-0.1798;0.1571;-1.0627;50.3;-20.7;28.78;-45.43;273.29;31.44;-49.57;0.0;35.958256;-83.92442;829.17;NaN;0.0;33.570072;;1 / 9;110245;2022-09-09 16:19:31:826
5.3847;-3.1008;6.6757;6.3688;-5.1146;5.4268;4.1476;-2.631;2.0196;-0.1798;0.1571;-1.0627;43.5;-20.7;28.78;-45.43;273.29;31.44;-49.57;0.0;35.958256;-83.92442;829.17;NaN;0.0;33.570072;;1 / 9;110745;2022-09-09 16:19:32:326
5.3847;-3.1008;6.6757;6.3688;-5.1146;5.4268;4.1476;-2.631;2.0196;-0.1798;0.1571;-1.0627;43.5;-20.7;28.78;-45.43;273.29;31.44;-49.57;0.0;35.958256;-83.92442;829.17;NaN;0.0;33.570072;;1 / 9;111245;2022-09-09 16:19:32:826
10.4865;-8.3752;10.6475;6.3688;-5.1146;5.4268;4.1476;-2.631;2.0196;-0.1798;0.1571;-1.0627;32.5;-20.7;28.78;-45.43;273.29;31.44;-49.57;0.0;35.958256;-83.92442;829.17;NaN;0.0;33.570072;;1 / 9;111745;2022-09-09 16:19:33:326
10.4865;-8.3752;10.6475;6.3688;-5.1146;5.4268;4.1476;-2.631;2.0196;-0.1798;0.1571;-1.0627;25.4;-20.7;28.78;-45.43;273.29;31.44;-49.57;0.0;35.958256;-83.92442;829.17;NaN;0.0;33.570072;;1 / 9;112246;2022-09-09 16:19:33:827
10.4865;-8.3752;10.6475;6.3688;-5.1146;5.4268;4.1476;-2.631;2.0196;-0.1798;0.1571;-1.0627;22.5;-20.7;28.78;-45.43;273.29;31.44;-49.57;0.0;35.958256;-83.92442;829.17;NaN;0.0;33.570072;;1 / 9;112745;2022-09-09 16:19:34:326
6.8859;-1.9301;5.0189;6.3688;-5.1146;5.4268;4.1476;-2.631;2.0196;-0.1798;0.1571;-1.0627;16.2;-20.7;28.78;-45.43;273.29;31.44;-49.57;0.0;35.958256;-83.92442;829.17;NaN;0.0;33.570072;;1 / 9;113245;2022-09-09 16:19:34:826
6.8859;-1.9301;5.0189;6.3688;-5.1146;5.4268;4.1476;-2.631;2.0196;-0.1798;0.1571;-1.0627;22.8;-20.7;28.78;-45.43;273.29;31.44;-49.57;0.0;35.958256;-83.92442;829.17;NaN;0.0;33.570072;;1 / 9;113745;2022-09-09 16:19:35:326
6.5818;-4.025;4.684;6.3688;-5.1146;5.4268;4.1476;-2.631;2.0196;-0.1798;0.1571;-1.0627;22.8;-20.7;28.78;-45.43;273.29;31.44;-49.57;0.0;35.958256;-83.92442;829.17;NaN;0.0;33.570072;;1 / 9;114245;2022-09-09 16:19:35:826
6.5818;-4.025;4.684;6.3688;-5.1146;5.4268;4.1476;-2.631;2.0196;-0.1798;0.1571;-1.0627;26.4;-20.7;28.78;-45.43;273.29;31.44;-49.57;0.0;35.958256;-83.92442;829.17;NaN;0.0;33.570072;;1 / 9;114745;2022-09-09 16:19:36:326
6.5818;-4.025;4.684;6.3688;-5.1146;5.4268;4.1476;-2.631;2.0196;-0.1798;0.1571;-1.0627;26.4;-20.7;28.78;-45.43;273.29;31.44;-49.57;0.0;35.958256;-83.92442;829.17;NaN;0.0;33.570072;;1 / 9;115245;2022-09-09 16:19:36:826
6.5818;-4.025;4.684;6.3688;-5.1146;5.4268;4.1476;-2.631;2.0196;-0.1798;0.1571;-1.0627;26.4;-20.7;28.78;-45.43;273.29;31.44;-49.57;0.0;35.958256;-83.92442;829.17;NaN;0.0;33.570072;;1 / 9;115745;2022-09-09 16:19:37:326
11.2217;-1.8129;6.2183;6.3688;-5.1146;5.4268;4.1476;-2.631;2.0196;-0.1798;0.1571;-1.0627;29.8;-20.7;28.78;-45.43;273.29;31.44;-49.57;0.0;35.958256;-83.92442;829.17;NaN;0.0;33.570072;;1 / 9;116246;2022-09-09 16:19:37:827
11.2217;-1.8129;6.2183;6.3688;-5.1146;5.4268;4.1476;-2.631;2.0196;-0.1798;0.1571;-1.0627;37.7;-20.7;28.78;-45.43;273.29;31.44;-49.57;0.0;35.958256;-83.92442;829.17;NaN;0.0;33.570072;;1 / 9;116745;2022-09-09 16:19:38:326
5.9115;-6.2611;2.2872;6.3688;-5.1146;5.4268;4.1476;-2.631;2.0196;-0.1798;0.1571;-1.0627;43.7;-20.7;28.78;-45.43;273.29;31.44;-49.57;0.0;35.958256;-83.92442;829.17;NaN;0.0;33.570072;;1 / 9;117246;2022-09-09 16:19:38:827
5.9115;-6.2611;2.2872;6.3688;-5.1146;5.4268;4.1476;-2.631;2.0196;-0.1798;0.1571;-1.0627;43.7;-20.7;28.78;-45.43;273.29;31.44;-49.57;0.0;35.958256;-83.92442;829.17;NaN;0.0;33.570072;;1 / 9;117746;2022-09-09 16:19:39:327
5.6387;-1.3938;4.1788;6.3688;-5.1146;5.4268;4.1476;-2.631;2.0196;-0.1798;0.1571;-1.0627;59.9;-20.7;28.78;-45.43;273.29;31.44;-49.57;0.0;35.958256;-83.92442;829.17;NaN;0.0;33.570072;;1 / 9;118246;2022-09-09 16:19:39:827
5.6387;-1.3938;4.1788;6.3688;-5.1146;5.4268;4.1476;-2.631;2.0196;-0.1798;0.1571;-1.0627;59.9;-20.7;28.78;-45.43;273.29;31.44;-49.57;0.0;35.958256;-83.92442;829.17;NaN;0.0;33.570072;;1 / 9;118746;2022-09-09 16:19:40:327
7.4438;-1.2407;5.8427;6.3688;-5.1146;5.4268;4.1476;-2.631;2.0196;-0.1798;0.1571;-1.0627;72.6;-20.7;28.78;-45.43;273.29;31.44;-49.57;0.0;35.958256;-83.92442;829.17;NaN;0.0;33.570072;;1 / 9;119248;2022-09-09 16:19:40:829
7.4438;-1.2407;5.8427;6.3688;-5.1146;5.4268;4.1476;-2.631;2.0196;-0.1798;0.1571;-1.0627;72.6;-20.7;28.78;-45.43;273.29;31.44;-49.57;0.0;35.958256;-83.92442;829.17;NaN;0.0;33.570072;;1 / 9;119745;2022-09-09 16:19:41:326
7.4438;-1.2407;5.8427;6.3688;-5.1146;5.4268;4.1476;-2.631;2.0196;-0.1798;0.1571;-1.0627;83.1;-20.7;28.78;-45.43;273.29;31.44;-49.57;0.0;35.958256;-83.92442;829.17;NaN;0.0;33.570072;;1 / 9;120245;2022-09-09 16:19:41:826
4.8197;-3.8671;4.9352;6.3688;-5.1146;5.4268;4.1476;-2.631;2.0196;-0.1798;0.1571;-1.0627;71.2;-20.7;28.78;-45.43;273.29;31.44;-49.57;0.0;35.958256;-83.92442;829.17;NaN;0.0;33.570072;;1 / 9;120745;2022-09-09 16:19:42:326
8.4087;-5.2699;6.2327;6.3688;-5.1146;5.4268;4.1476;-2.631;2.0196;-0.1798;0.1571;-1.0627;45.1;-20.7;28.78;-45.43;273.29;31.44;-49.57;0.0;35.958256;-83.92442;829.17;NaN;0.0;33.570072;;1 / 9;121246;2022-09-09 16:19:42:827
8.4087;-5.2699;6.2327;6.3688;-5.1146;5.4268;4.1476;-2.631;2.0196;-0.1798;0.1571;-1.0627;47.7;-20.7;28.78;-45.43;273.29;31.44;-49.57;0.0;35.958256;-83.92442;829.17;NaN;0.0;33.570072;;1 / 9;121746;2022-09-09 16:19:43:327
10.0555;-8.1547;9.2255;6.3688;-5.1146;5.4268;4.1476;-2.631;2.0196;-0.1798;0.1571;-1.0627;33.5;-20.7;28.78;-45.43;273.29;31.44;-49.57;0.0;35.958256;-83.92442;829.17;NaN;0.0;33.570072;;1 / 9;122248;2022-09-09 16:19:43:829
10.0555;-8.1547;9.2255;6.3688;-5.1146;5.4268;4.1476;-2.631;2.0196;-0.1798;0.1571;-1.0627;27.2;-20.7;28.78;-45.43;273.29;31.44;-49.57;0.0;35.958256;-83.92442;829.17;NaN;0.0;33.570072;;1 / 9;122746;2022-09-09 16:19:44:327
3.7591;-2.9501;3.9129;6.3688;-5.1146;5.4268;4.1476;-2.631;2.0196;-0.1798;0.1571;-1.0627;17.3;-20.7;28.78;-45.43;273.29;31.44;-49.57;0.0;35.958256;-83.92442;829.17;NaN;0.0;33.570072;;1 / 9;123246;2022-09-09 16:19:44:827
3.7591;-2.9501;3.9129;6.3688;-5.1146;5.4268;4.1476;-2.631;2.0196;-0.1798;0.1571;-1.0627;15.0;-20.7;28.78;-45.43;273.29;31.44;-49.57;0.0;35.958256;-83.92442;829.17;NaN;0.0;33.570072;;1 / 9;123745;2022-09-09 16:19:45:326
3.7591;-2.9501;3.9129;6.3688;-5.1146;5.4268;4.1476;-2.631;2.0196;-0.1798;0.1571;-1.0627;17.7;-20.7;28.78;-45.43;273.29;31.44;-49.57;0.0;35.958256;-83.92442;829.17;NaN;0.0;33.570072;;1 / 9;124245;2022-09-09 16:19:45:826
10.3525;-0.338;4.2051;6.3688;-5.1146;5.4268;4.1476;-2.631;2.0196;-0.1798;0.1571;-1.0627;20.9;-20.7;28.78;-45.43;273.29;31.44;-49.57;0.0;35.958256;-83.92442;829.17;NaN;0.0;33.570072;;1 / 9;124746;2022-09-09 16:19:46:327
10.3525;-0.338;4.2051;6.3688;-5.1146;5.4268;4.1476;-2.631;2.0196;-0.1798;0.1571;-1.0627;20.9;-20.7;28.78;-45.43;273.29;31.44;-49.57;0.0;35.958256;-83.92442;829.17;NaN;0.0;33.570072;;1 / 9;125248;2022-09-09 16:19:46:829
6.7974;-4.8748;4.8036;6.3688;-5.1146;5.4268;4.1476;-2.631;2.0196;-0.1798;0.1571;-1.0627;23.3;-20.7;28.78;-45.43;273.29;31.44;-49.57;0.0;35.958256;-83.92442;829.17;NaN;0.0;33.570072;;1 / 9;125745;2022-09-09 16:19:47:326
6.7974;-4.8748;4.8036;6.3688;-5.1146;5.4268;4.1476;-2.631;2.0196;-0.1798;0.1571;-1.0627;23.3;-20.7;28.78;-45.43;273.29;31.44;-49.57;0.0;35.958256;-83.92442;829.17;NaN;0.0;33.570072;;1 / 9;126246;2022-09-09 16:19:47:827
6.7974;-4.8748;4.8036;6.3688;-5.1146;5.4268;4.1476;-2.631;2.0196;-0.1798;0.1571;-1.0627;23.3;-20.7;28.78;-45.43;273.29;31.44;-49.57;0.0;35.958256;-83.92442;829.17;NaN;0.0;33.570072;;1 / 9;126746;2022-09-09 16:19:48:327
6.6105;-4.3193;5.237;6.3688;-5.1146;5.4268;4.1476;-2.631;2.0196;-0.1798;0.1571;-1.0627;28.0;-20.7;28.78;-45.43;273.29;31.44;-49.57;0.0;35.958256;-83.92442;829.17;NaN;0.0;33.570072;;1 / 9;127246;2022-09-09 16:19:48:827
6.6105;-4.3193;5.237;6.3688;-5.1146;5.4268;4.1476;-2.631;2.0196;-0.1798;0.1571;-1.0627;28.0;-20.7;28.78;-45.43;273.29;31.44;-49.57;0.0;35.958256;-83.92442;829.17;NaN;0.0;33.570072;;1 / 9;127747;2022-09-09 16:19:49:328
1.5063;-6.5794;2.924;6.3688;-5.1146;5.4268;4.1476;-2.631;2.0196;-0.1798;0.1571;-1.0627;33.7;-20.7;28.78;-45.43;273.29;31.44;-49.57;0.0;35.958256;-83.92442;829.17;NaN;0.0;33.570072;;1 / 9;128246;2022-09-09 16:19:49:827
7.3983;-6.242;1.7725;6.3688;-5.1146;5.4268;4.1476;-2.631;2.0196;-0.1798;0.1571;-1.0627;39.7;-20.7;28.78;-45.43;273.29;31.44;-49.57;0.0;35.958256;-83.92442;829.17;NaN;0.0;33.570072;;1 / 9;128746;2022-09-09 16:19:50:327
7.3983;-6.242;1.7725;6.3688;-5.1146;5.4268;4.1476;-2.631;2.0196;-0.1798;0.1571;-1.0627;34.3;-20.7;28.78;-45.43;273.29;31.44;-49.57;0.0;35.958256;-83.92442;829.17;NaN;0.0;33.570072;;1 / 9;129246;2022-09-09 16:19:50:827
7.3983;-6.242;1.7725;6.3688;-5.1146;5.4268;4.1476;-2.631;2.0196;-0.1798;0.1571;-1.0627;41.2;-20.7;28.78;-45.43;273.29;31.44;-49.57;0.0;35.958256;-83.92442;829.17;NaN;0.0;33.570072;;1 / 9;129745;2022-09-09 16:19:51:326
9.1196;-4.2523;3.8243;6.3688;-5.1146;5.4268;4.1476;-2.631;2.0196;-0.1798;0.1571;-1.0627;52.3;-20.7;28.78;-45.43;273.29;31.44;-49.57;0.0;35.958256;-83.92442;829.17;NaN;0.0;33.570072;;1 / 9;130246;2022-09-09 16:19:51:827
6.8333;-2.8711;0.705;6.3688;-5.1146;5.4268;4.1476;-2.631;2.0196;-0.1798;0.1571;-1.0627;42.8;-20.7;28.78;-45.43;273.29;31.44;-49.57;0.0;35.958256;-83.92442;829.17;NaN;0.0;33.570072;;1 / 9;130746;2022-09-09 16:19:52:327
6.8333;-2.8711;0.705;6.3688;-5.1146;5.4268;4.1476;-2.631;2.0196;-0.1798;0.1571;-1.0627;39.4;-20.7;28.78;-45.43;273.29;31.44;-49.57;0.0;35.958256;-83.92442;829.17;NaN;0.0;33.570072;;1 / 9;131246;2022-09-09 16:19:52:827
7.573;-2.3396;-0.2815;6.3688;-5.1146;5.4268;4.1476;-2.631;2.0196;-0.1798;0.1571;-1.0627;24.9;-20.7;28.78;-45.43;273.29;31.44;-49.57;0.0;35.958256;-83.92442;829.17;NaN;0.0;33.570072;;1 / 9;131745;2022-09-09 16:19:53:326
7.573;-2.3396;-0.2815;6.3688;-5.1146;5.4268;4.1476;-2.631;2.0196;-0.1798;0.1571;-1.0627;35.3;-20.7;28.78;-45.43;273.29;31.44;-49.57;0.0;35.958256;-83.92442;829.17;NaN;0.0;33.570072;;1 / 9;132246;2022-09-09 16:19:53:827
7.573;-2.3396;-0.2815;6.3688;-5.1146;5.4268;4.1476;-2.631;2.0196;-0.1798;0.1571;-1.0627;26.1;-20.7;28.78;-45.43;273.29;31.44;-49.57;0.0;35.958256;-83.92442;829.17;NaN;0.0;33.570072;;1 / 9;132746;2022-09-09 16:19:54:327
7.3361;-5.519;5.0501;6.3688;-5.1146;5.4268;4.1476;-2.631;2.0196;-0.1798;0.1571;-1.0627;12.3;-20.7;28.78;-45.43;273.29;31.44;-49.57;0.0;35.958256;-83.92442;829.17;NaN;0.0;33.570072;;1 / 9;133246;2022-09-09 16:19:54:827
7.3361;-5.519;5.0501;6.3688;-5.1146;5.4268;4.1476;-2.631;2.0196;-0.1798;0.1571;-1.0627;14.4;-20.7;28.78;-45.43;273.29;31.44;-49.57;0.0;35.958256;-83.92442;829.17;NaN;0.0;33.570072;;1 / 9;133746;2022-09-09 16:19:55:327
4.2045;-3.1534;5.9743;6.3688;-5.1146;5.4268;4.1476;-2.631;2.0196;-0.1798;0.1571;-1.0627;16.0;-20.7;28.78;-45.43;273.29;31.44;-49.57;0.0;35.958256;-83.92442;829.17;NaN;0.0;33.570072;;1 / 9;134246;2022-09-09 16:19:55:827
4.2045;-3.1534;5.9743;6.3688;-5.1146;5.4268;4.1476;-2.631;2.0196;-0.1798;0.1571;-1.0627;23.6;-20.7;28.78;-45.43;273.29;31.44;-49.57;0.0;35.958256;-83.92442;829.17;NaN;0.0;33.570072;;1 / 9;134745;2022-09-09 16:19:56:326
9.7684;-1.4417;7.8009;6.3688;-5.1146;5.4268;4.1476;-2.631;2.0196;-0.1798;0.1571;-1.0627;33.4;-20.7;28.78;-45.43;273.29;31.44;-49.57;0.0;35.958256;-83.92442;829.17;NaN;0.0;33.570072;;1 / 9;135246;2022-09-09 16:19:56:827
9.7684;-1.4417;7.8009;6.3688;-5.1146;5.4268;4.1476;-2.631;2.0196;-0.1798;0.1571;-1.0627;27.2;-20.7;28.78;-45.43;273.29;31.44;-49.57;0.0;35.958256;-83.92442;829.17;NaN;0.0;33.570072;;1 / 9;135746;2022-09-09 16:19:57:327
9.7684;-1.4417;7.8009;6.3688;-5.1146;5.4268;4.1476;-2.631;2.0196;-0.1798;0.1571;-1.0627;27.2;-20.7;28.78;-45.43;273.29;31.44;-49.57;0.0;35.958256;-83.92442;829.17;NaN;0.0;33.570072;;1 / 9;136245;2022-09-09 16:19:57:826
8.4206;-4.6475;2.9626;6.3688;-5.1146;5.4268;4.1476;-2.631;2.0196;-0.1798;0.1571;-1.0627;32.3;-20.7;28.78;-45.43;273.29;31.44;-49.57;0.0;35.958256;-83.92442;829.17;NaN;0.0;33.570072;;1 / 9;136745;2022-09-09 16:19:58:326
5.514;-1.9373;6.1585;6.3688;-5.1146;5.4268;4.1476;-2.631;2.0196;-0.1798;0.1571;-1.0627;32.3;-20.7;28.78;-45.43;273.29;31.44;-49.57;0.0;35.958256;-83.92442;829.17;NaN;0.0;33.570072;;1 / 9;137245;2022-09-09 16:19:58:826
5.514;-1.9373;6.1585;6.3688;-5.1146;5.4268;4.1476;-2.631;2.0196;-0.1798;0.1571;-1.0627;37.5;-20.7;28.78;-45.43;273.29;31.44;-49.57;0.0;35.958256;-83.92442;829.17;NaN;0.0;33.570072;;1 / 9;137748;2022-09-09 16:19:59:329
5.514;-1.9373;6.1585;6.3688;-5.1146;5.4268;4.1476;-2.631;2.0196;-0.1798;0.1571;-1.0627;37.5;-20.7;28.78;-45.43;273.29;31.44;-49.57;0.0;35.958256;-83.92442;829.17;NaN;0.0;33.570072;;1 / 9;138247;2022-09-09 16:19:59:828
7.5299;-2.2271;6.6015;6.3688;-5.1146;5.4268;4.1476;-2.631;2.0196;-0.1798;0.1571;-1.0627;44.4;-20.7;28.78;-45.43;273.29;31.44;-49.57;0.0;35.958256;-83.92442;829.17;NaN;0.0;33.570072;;1 / 9;138745;2022-09-09 16:20:00:326
7.5299;-2.2271;6.6015;6.3688;-5.1146;5.4268;4.1476;-2.631;2.0196;-0.1798;0.1571;-1.0627;44.4;-20.7;28.78;-45.43;273.29;31.44;-49.57;0.0;35.958256;-83.92442;829.17;NaN;0.0;33.570072;;1 / 9;139246;2022-09-09 16:20:00:827
12.2725;-3.9245;4.5712;6.3688;-5.1146;5.4268;4.1476;-2.631;2.0196;-0.1798;0.1571;-1.0627;51.4;-20.7;28.78;-45.43;273.29;31.44;-49.57;0.0;35.958256;-83.92442;829.17;NaN;0.0;33.570072;;1 / 9;139748;2022-09-09 16:20:01:329
12.2725;-3.9245;4.5712;6.3688;-5.1146;5.4268;4.1476;-2.631;2.0196;-0.1798;0.1571;-1.0627;51.4;-20.7;28.78;-45.43;273.29;31.44;-49.57;0.0;35.958256;-83.92442;829.17;NaN;0.0;33.570072;;1 / 9;140245;2022-09-09 16:20:01:826
6.5985;-1.0158;3.6449;6.3688;-5.1146;5.4268;4.1476;-2.631;2.0196;-0.1798;0.1571;-1.0627;51.4;-20.7;28.78;-45.43;273.29;31.44;-49.57;0.0;35.958256;-83.92442;829.17;NaN;0.0;33.570072;;1 / 9;140746;2022-09-09 16:20:02:327
7.8939;1.6418;2.3928;6.3688;-5.1146;5.4268;4.1476;-2.631;2.0196;-0.1798;0.1571;-1.0627;10.9;-20.7;28.78;-45.43;273.29;31.44;-49.57;0.0;35.958256;-83.92442;829.17;NaN;0.0;33.570072;;1 / 9;141245;2022-09-09 16:20:02:826
7.8939;1.6418;2.3928;6.3688;-5.1146;5.4268;4.1476;-2.631;2.0196;-0.1798;0.1571;-1.0627;28.1;-20.7;28.78;-45.43;273.29;31.44;-49.57;0.0;35.958256;-83.92442;829.17;NaN;0.0;33.570072;;1 / 9;141745;2022-09-09 16:20:03:326
-1.7183;5.2307;7.6789;6.3688;-5.1146;5.4268;4.1476;-2.631;2.0196;-0.1798;0.1571;-1.0627;36.5;-20.7;28.78;-45.43;273.29;31.44;-49.57;0.0;35.958256;-83.92442;829.17;NaN;0.0;33.570072;;1 / 9;142245;2022-09-09 16:20:03:826
-2.4727;6.3607;6.8061;0.0677;5.1114;8.3689;0.2329;0.1143;0.0103;0.1917;-0.1264;-0.3326;36.5;-12.02;30.9;-59.98;11.27;-31.41;-0.46;2.0;35.958256;-83.92442;829.17;NaN;0.0;33.570072;;1 / 9;142745;2022-09-09 16:20:04:326
-4.0457;6.8862;5.9145;-3.5524;6.2143;6.7033;-0.5524;0.3013;0.6015;0.0982;0.4337;0.3231;36.5;-8.27;28.76;-59.7;33.24;-39.32;27.92;2.0;35.958256;-83.92442;829.17;NaN;0.0;33.570072;;1 / 9;143245;2022-09-09 16:20:04:826
-3.9126;6.5091;6.259;-3.7573;6.2004;6.6037;-0.2329;0.3117;-0.3911;-0.1444;-0.0796;-0.0011;46.0;-3.15;27.99;-58.18;30.49;-39.22;29.35;2.0;35.958256;-83.92442;829.17;NaN;0.0;33.570072;;0 / 0;143745;2022-09-09 16:20:05:326