time,seconds_elapsed,z,y,x
1667776286533559600,0.0205595703125,0.1752051757365465,0.10761961304582655,0.09592775047998875
1667776286543610600,0.030610595703125,0.284644624620676,0.022864158236980438,0.12286054639536886
1667776286553661700,0.04066162109375,0.4207949702978134,-0.013078019694611429,0.1315842433379963
1667776286563712500,0.05071240234375,0.37753918141722675,-0.013019786701351404,0.14570950706321745
1667776286573763600,0.060763671875,0.38588323139250275,0.013757818652316928,0.13405673439875243
1667776286583815700,0.070815673828125,0.3402858478218317,0.06509732607156038,0.03925301951263099
1667776286593866500,0.080866455078125,0.26197686573863027,0.07456789585873484,-0.03533544421009719
1667776286603917600,0.09091748046875,0.13034662783443926,0.1361391666959971,-0.12581190701425074
1667776286613968600,0.10096875,0.05689736074209213,0.19472996041774748,-0.27738906400185076
1667776286624019700,0.111019775390625,-0.007177344283461571,0.2082264247201383,-0.3295798179555684
1667776286634070500,0.121070556640625,-0.18867957433760166,0.13907083623372019,-0.04863105217814445
1667776286644123400,0.131123291015625,-0.3848053730279207,0.00801620626039803,0.2276684630213305
1667776286654174200,0.14117431640625,-0.3402934466063976,-0.01264401219151914,0.2846113068729639
1667776286664225300,0.151225341796875,-0.19940788910090923,0.053893137424811714,0.10421985107231885
1667776286674276400,0.1612763671875,-0.07569032401740551,0.0844131441771984,-0.01906275666002184
1667776286684327400,0.171327392578125,-0.023523498928546903,0.08937938828244804,-0.06726740011963993
1667776286694378500,0.18137841796875,0.06848024650812148,0.008039660201221705,-0.132924332835339
1667776286704430300,0.191430419921875,0.14217150566279887,-0.05112535321190953,-0.05137450566738844
1667776286714481400,0.2014814453125,0.19296996500790117,-0.09589753800481557,-0.009432721994817256
1667776286724532500,0.211532470703125,0.14953122077584266,-0.14427008537724614,-0.02215991895776242
1667776286734583300,0.221583251953125,0.05338029253184795,-0.13582009080946444,-0.015281411490403116
1667776286744634400,0.23163427734375,-0.04816109657883644,-0.10453998640477656,-0.045045704504661256
1667776286754686500,0.2416865234375,-0.12543898204863071,-0.020289266247674822,-0.12985091673936694
1667776286764737300,0.2517373046875,-0.1781780540674925,0.03400324575826526,-0.11597937204688787
1667776286774788400,0.261788330078125,-0.06834989812672138,-0.008554331725090741,-0.05699873875733465
1667776286784839400,0.27183935546875,0.12290040348172188,-0.049220688634365795,-0.12199669610764831
1667776286794890500,0.281890380859375,0.1495031637251377,0.007071107430011034,-0.10721216475609689
1667776286804941000,0.291941162109375,0.014032032483816147,0.010666355443000793,-0.021632972474209963
1667776286814993400,0.301993408203125,-0.08484744394123554,-0.016905469028279184,0.051542464379128065
1667776286825044500,0.31204443359375,-0.005654664760828018,-0.02833937477767467,0.01380724728461355
1667776286835095300,0.32209521484375,-0.0009071779727935791,0.010223214785382151,-0.07433454376058653
1667776286845146000,0.33214599609375,-0.11216156732439994,0.011733034826442598,-0.06812103954060003
1667776286855197200,0.342197265625,-0.15526128886044024,0.02424151100479066,-0.08013128387322649
1667776286865249300,0.352249267578125,-0.17133096465170383,0.06610686844028532,-0.07420538268927485
1667776286875300400,0.36230029296875,-0.12399345941543578,0.06685556791573763,-0.10460165346413851
1667776286885351200,0.37235107421875,-0.10725625962615012,0.11267886919677257,-0.16705854802951214
1667776286895402200,0.38240234375,-0.13348083420693874,0.13487572263143957,-0.1958277655918151
1667776286905453300,0.392453369140625,-0.07824176206588744,0.11662746069207787,-0.24032127957381308
1667776286915504000,0.402504150390625,0.025375264275074003,0.15538549976199864,-0.26171456154063344
1667776286925556200,0.41255615234375,0.04447919319570064,0.1175214869223535,-0.2015872607002966
1667776286935607300,0.422607177734375,-0.009372223979234694,0.029594708601012824,-0.15573036767691373
1667776286945658000,0.432658203125,-0.02408347089886665,-0.01518916662968695,-0.1840518597380258
1667776286955709200,0.442709228515625,0.006644260320067406,0.02502498953267932,-0.1914922936707735
1667776286965760300,0.45276025390625,0.021974515920877454,0.06283215761855244,-0.14781959455236793
1667776286975812000,0.46281201171875,0.11159399656951427,0.06598908727951347,-0.2138508587394841
1667776286985863200,0.47286328125,0.08539514095187187,0.10627272848151624,-0.17841405478045344
1667776286995914200,0.482914306640625,-0.054390930879116055,0.12338694488964974,-0.2033239300334826
1667776287005965300,0.49296533203125,-0.19146423662006853,0.16289952865391968,-0.24198252731692044
1667776287016016100,0.50301611328125,-0.2172293769955635,0.20123291257098316,-0.37977811945043505
1667776287026067200,0.513067138671875,-0.2230067913532257,0.25516163276582954,-0.5050161355668679
1667776287036119300,0.523119384765625,-0.13528466875851153,0.2553525522280484,-0.5396677256986498
1667776287046170000,0.533170166015625,-0.06607610797584057,0.1957791041444987,-0.5038719705004244
1667776287056221200,0.54322119140625,-0.11512684687077998,0.10502280148565768,-0.37160584584549067
1667776287066272300,0.553272216796875,-0.14829261889159678,0.06159150990769267,-0.20739002869492396
1667776287076323300,0.5633232421875,-0.18671148913502691,0.030286197996512054,-0.093071045874618
1667776287086375200,0.573375244140625,-0.2649029823184013,0.0201082105923444,-0.0063813533338718115
1667776287096426200,0.58342626953125,-0.3761655549764633,0.08514255443029105,-0.009315342692844569
1667776287106477300,0.593477294921875,-0.3972445833623409,0.13822883245162665,-0.07065050321929156
1667776287116528400,0.6035283203125,-0.22902912038266657,0.1545981487765908,-0.0796328510981053
1667776287126579200,0.6135791015625,-0.09120645757913588,0.12350304554998874,0.02343132713306695
1667776287136630300,0.62363037109375,-0.03555237489640713,0.043540158779919146,0.09733469466846435
1667776287146682400,0.633682373046875,-0.05511573802232742,0.01283317808806896,0.11325369167635217
1667776287156733200,0.643733154296875,-0.05669453164637089,-0.00456913454644382,0.12965323874279855
1667776287166784300,0.6537841796875,-0.12415128032565116,-0.012829305630549787,0.13993426639633252
1667776287176835300,0.66383544921875,-0.17704992682039736,-0.022349486713111398,0.1983795689664781
1667776287186886400,0.673886474609375,-0.1625274804711342,-0.011530497991666198,0.18937400460885837
1667776287196938200,0.683938232421875,-0.11512041712999344,0.0319802885632962,0.2175638148480095
1667776287206989300,0.6939892578125,-0.10463701703846454,0.0514187832005322,0.2014086344640702
1667776287217040400,0.704040283203125,-0.09098258569538593,0.04605557566694915,0.16013364413715897
1667776287227091200,0.71409130859375,-0.043272740015387536,0.06697254535891116,0.15150701436083763
1667776287237142300,0.724142333984375,0.04608195221722126,-0.0038609862770885225,0.23640100085753946
1667776287247194400,0.7341943359375,0.10180383943915366,-0.1006929555878043,0.35405729314070195
1667776287257245200,0.7442451171875,0.13866028267145156,-0.11492803636305034,0.3999518330270424
1667776287267296300,0.754296142578125,0.07630231843590736,-0.09164652949683368,0.4463282381461933
1667776287277347300,0.764347412109375,-0.009418985730409621,-0.11719145125038921,0.47634866134598847
1667776287287398400,0.7743984375,-0.03517477375566959,-0.12315189402475953,0.4854068874726072
1667776287297449500,0.784449462890625,-0.053528176569938656,-0.0734787123825401,0.42324660123363134
1667776287307501300,0.794501220703125,0.0015706103175878523,-0.0407031087230891,0.34093159837946296
1667776287317552400,0.804552490234375,0.09890168825685977,-0.034125703094154594,0.30704883719570936
1667776287327603500,0.814603515625,0.20244448031783102,-0.05508373544886708,0.3114826549246907
1667776287337654300,0.824654296875,0.22633739708065986,-0.09937617390081285,0.29739118387121705
1667776287347705300,0.834705322265625,0.23601883313953875,-0.1063899981856346,0.23230138351898638
1667776287357757400,0.84475732421875,0.18347791404128075,-0.05160466116145253,0.1996412229327485
1667776287367808300,0.854808349609375,0.07739303628206252,0.010263035339117049,0.18686569331604985
1667776287377859300,0.864859375,0.013718728750944136,0.02837371543869376,0.1514629560234025
1667776287387910400,0.874910400390625,0.10004384402930735,0.03452639284953475,0.10805972149614244
1667776287397961500,0.88496142578125,0.20936288140416143,0.06389978685006499,0.04845123863182962
1667776287408012300,0.89501220703125,0.20083470703363418,0.055581601968407626,0.02169230144601315
1667776287418064400,0.905064453125,0.22908698804974553,0.011765694987028837,0.05257823716765269
1667776287428115500,0.915115478515625,0.2523380997776985,-0.03049450698494911,0.10736593054570256
1667776287438166300,0.925166259765625,0.17019231601059437,-0.055242433141916986,0.09648523823227732
1667776287448217300,0.93521728515625,0.022342180189490315,-0.037352117794752115,0.08638853590339422
1667776287458268400,0.945268310546875,-0.03684007661938667,-0.006296469795703887,0.04638374817539006
1667776287468320300,0.9553203125,-0.06239069746136665,0.018057634738087653,0.0028845424603670834
1667776287478371300,0.965371337890625,-0.07383271345198154,0.04181669598817825,-0.07562087551038711
1667776287488422400,0.97542236328125,-0.041295886984467504,0.09908113647699356,-0.1533304851946421
1667776287498473500,0.985473388671875,-0.007646130838990211,0.1299525139503181,-0.2100721987172961
1667776287508524300,0.995524169921875,-0.01790215191543102,0.07635287957936525,-0.1737376787335612
1667776287518575000,1.0055751953125,-0.006740121909976005,-0.000950578723102808,-0.07552576283914968
1667776287528627500,1.01562744140625,0.08894961856305598,-0.007006663891673088,-0.04032178125530481
1667776287538678500,1.025678466796875,0.09890870251953601,0.013574059583246707,-0.01641465330403298
1667776287548729000,1.03572900390625,-0.009375146588683127,-0.010764701250940562,0.007189253916963934
1667776287558780200,1.0457802734375,-0.12802432236671446,-0.01571107161194086,0.010906484341807663
1667776287568831200,1.055831298828125,-0.12692717477977275,-0.0033062019385397432,0.03182486053956672
1667776287578883300,1.06588330078125,-0.050665772876143454,0.009632336220145225,-0.019642967700771986
1667776287588934100,1.07593408203125,-0.03431260396838188,0.04319046855941414,-0.09164395394725725
1667776287598985200,1.085985107421875,-0.1241103637933731,0.03793839325010776,-0.060669134365767236
1667776287609036300,1.096036376953125,-0.20090484966039657,0.040136487816274165,0.006097111298702657
1667776287619087000,1.106087158203125,-0.22431612038612364,0.05223302219286561,-0.0833944686539471
1667776287629139200,1.11613916015625,-0.14019114550054074,0.07185498363822698,-0.1685392515739426
1667776287639189800,1.126189697265625,-0.007715688943862915,0.04043561689332127,-0.17056410846505313
1667776287649240800,1.13624072265625,0.05373626636266708,-0.03829407481998205,-0.13968109535286202
1667776287659291600,1.146291748046875,0.08002221574187278,-0.08125818727761507,-0.08382723404802382
1667776287669342700,1.1563427734375,0.10192658903598785,-0.10769055939018726,-0.07900237117484211
1667776287679393800,1.166393798828125,0.10353928492963313,-0.09162409846931695,-0.10438063112460076
1667776287689445600,1.176445556640625,0.37892566733956334,-0.12061930680721998,-0.02648596546333283
1667776287699496700,1.18649658203125,0.4146072215735912,-0.1670662929445505,-0.015331789970770478
1667776287709547800,1.1965478515625,0.4180769435107708,-0.027833617212623354,0.054674679723940786
1667776287719598800,1.206598876953125,0.3294441358119249,-0.046341187675297255,0.04626340973135084
1667776287729649700,1.216649658203125,0.22302315796613692,0.044863808599114416,-0.06503324785940348
1667776287739701800,1.22670166015625,0.1338221949905157,0.024676760616898535,0.044445327458716925
1667776287749752800,1.2367529296875,-0.03298515475690365,-0.05403597996160388,0.14411233753226696
1667776287759803600,1.2468037109375,-0.0727367349088192,0.02407981763705611,0.04191451207315549
1667776287769854700,1.256854736328125,-0.1077928507208824,0.06648176616728306,-0.08018060290766879
1667776287779905800,1.26690576171875,-0.14408815293908117,0.04969897367060184,-0.11331313024600967
1667776287789958000,1.2769580078125,-0.13984686210751532,0.013578151236474514,-0.034808972650580104
1667776287800008700,1.2870087890625,-0.06404138727784156,-0.026871932573616503,0.00042534927260130643
1667776287810059800,1.297059814453125,0.029759178447723387,-0.011803981170803307,-0.01575251786718145
1667776287820110800,1.30711083984375,0.15326982278227805,0.03986629257276654,-0.0879120922088623
1667776287830162000,1.317161865234375,0.24688100341558455,0.05775748470276594,-0.04713080368302762
1667776287840212700,1.327212646484375,0.2108458134382963,0.05639657161310315,0.0369769826057367
1667776287850264800,1.337264892578125,0.13349603177607058,0.015230594618618488,0.02687575023220852
1667776287860316000,1.34731591796875,0.05662321997582912,0.01476736102104187,0.09646039605196564
1667776287870366700,1.35736669921875,-0.0248351660490036,0.00021174305453896522,0.08195149417086504
1667776287880417800,1.367417724609375,-0.032410569739341734,0.01708075252994895,0.03233173234947025
1667776287890468900,1.37746875,-0.08902443736493587,0.059432139916718,0.02528539403453469
1667776287900520700,1.387520751953125,-0.16950959444344044,0.06708133949562907,-0.014221746369637548
1667776287910571800,1.39757177734375,-0.17073767493367195,0.08660422448068857,-0.03320380247626453
1667776287920622800,1.407622802734375,-0.10750234334170818,0.08079466141909361,-0.024529680296406148
1667776287930674000,1.417673828125,-0.05294073207080364,0.07377221543639897,-0.0007635317184031009
1667776287940724700,1.427724853515625,-0.001177227085828781,0.04657938034534454,0.021459442538209257
1667776287950776800,1.43777685546875,0.02745557768046856,0.03190042826011777,0.04339870448261499
1667776287960828000,1.447827880859375,-0.01958849756717682,0.020905425384640693,0.08107567031756042
1667776287970878700,1.457878662109375,-0.08965981265902519,-0.026226620407402514,0.12926858680676667
1667776287980929800,1.4679296875,-0.026817864298820493,-0.09307941184416413,0.1451927166474983
1667776287990980900,1.47798095703125,-0.004835165071487427,-0.09707111182883381,0.13212345564807765
1667776288001032000,1.488031982421875,-0.07658522703051567,-0.0786053346812725,0.09646247841119766
1667776288011083800,1.498083740234375,-0.10851181264519691,-0.07024228774458169,0.07040449256896972
1667776288021134800,1.508134765625,-0.05243219802677631,-0.10510083515793084,0.0422578638844192
1667776288031186000,1.51818603515625,0.019188684594631192,-0.08454787647277116,0.025868966076150534
1667776288041237000,1.528237060546875,0.08860767325758934,-0.04022226640358567,0.010957045485265552
1667776288051287800,1.538287841796875,0.14327566751241683,-0.06749751908108592,0.017220042269630358
1667776288061340000,1.54833984375,0.11160510248541831,-0.06308803207576275,0.010324410137534141
1667776288071391000,1.558390869140625,0.054691959652304646,-0.03473521329462528,-0.004364405754581094
1667776288081441800,1.56844189453125,0.09259060541391372,-0.04357625300660729,0.025700505040911956
1667776288091492900,1.578492919921875,0.12819441823661326,-0.07281272275447845,0.07312255588863044
1667776288101544000,1.5885439453125,0.10790157179236412,-0.07346358787864446,0.10402541534560732
1667776288111595000,1.598594970703125,0.06927110462486744,-0.0791663295648992,0.07298043487104587
1667776288121646800,1.608646728515625,0.050093525946140284,-0.03410363739281892,0.0361901613432914
1667776288131698000,1.618697998046875,-0.009509586623311042,0.016202654521167276,0.02506517541259527
1667776288141749000,1.6287490234375,-0.15682605395913124,0.016757950316369532,0.08548906631302088
1667776288151799800,1.6387998046875,-0.17842764491438864,-0.022297610395401714,0.10106226382423192
1667776288161851000,1.648850830078125,-0.12982640335261822,0.03004983195737004,0.022965609317459165
1667776288171903000,1.658903076171875,-0.07252981415987014,0.09831570506244897,-0.06297996859140693
1667776288181953800,1.668953857421875,0.02763151876926422,0.05591098005324602,-0.0806779031716287
1667776288192004900,1.6790048828125,0.20655600728988646,-0.015790274327993393,-0.016354337951540947
1667776288202056000,1.689055908203125,0.2917787142843008,-0.07438143337592482,0.13791282530501484
1667776288212107000,1.69910693359375,0.2049111626923084,-0.1345835347518325,0.21495065494123844
1667776288222158800,1.709158935546875,0.024424831682443617,-0.10895473410710692,0.15734996823538094
1667776288232210000,1.7192099609375,-0.060928223693370816,-0.04887275197952985,0.11109222105983645
1667776288242261000,1.729260986328125,-0.06468962205350398,0.011787906818836926,0.03759871296696365
1667776288252312000,1.73931201171875,-0.10831249068081378,0.08091463453695177,-0.07596117684803903
1667776288262363000,1.74936279296875,-0.10354337658286095,0.10619608304873109,-0.13034052688721567
1667776288272413700,1.75941357421875,-0.06314531522095203,0.11607362620159983,-0.10422394272554665
1667776288282466000,1.769466064453125,0.018428806138038635,0.09000511896535754,-0.040069523527286946
1667776288292516900,1.779516845703125,0.08344985210299491,0.046502515716850754,0.04335453654732555
1667776288302567700,1.789567626953125,0.1521305896192789,0.013089198675751685,0.13776589111499488
1667776288312618800,1.79961865234375,0.19647066660523413,-0.022771000060811637,0.17435882457289845
1667776288322669800,1.809669921875,0.19652970331609249,-0.04867445292845368,0.14243647674191742
1667776288332722000,1.819721923828125,0.15520868189036846,-0.013926891608908771,0.09118881232459097
1667776288342772700,1.829772705078125,0.10364917504489421,0.03175985074564815,-0.007635755575448274
1667776288352823800,1.83982373046875,0.007608721438050269,0.037898426565900444,0.0008701704306527971
1667776288362874600,1.84987451171875,-0.010223872372508049,-0.01168517709672451,0.01189878331478685
1667776288372925700,1.85992578125,-0.02748246568739414,-0.027291911551356313,0.021400917284004388
1667776288382976800,1.869976806640625,-0.059442369049787516,-0.0076142743960022925,0.04528532194681465
1667776288393028900,1.88002880859375,-0.16114274811446666,0.008604162216186522,0.024490152003616095
1667776288403079700,1.89007958984375,-0.16973054371774196,0.025015856378152963,-0.00035926176644861696
1667776288413130800,1.900130859375,-0.050020460709929465,0.00483545733243227,-0.00961366805229336
1667776288423181800,1.910181884765625,0.013964227944612502,-0.06926803588494658,0.00216576091585448
1667776288433233000,1.92023291015625,0.029555764830112456,-0.12454722084067761,-0.01798457178516546
1667776288443284700,1.93028466796875,-0.039597850894927976,-0.10653211007006466,-0.05546992175485938
1667776288453335800,1.940335693359375,-0.10584697735011576,-0.08903992719501257,-0.0031608797502936793
1667776288463387000,1.950386962890625,-0.1178320141762495,-0.09191146404333413,0.04321432435903698
1667776288473437700,1.960437744140625,-0.015176526343822478,-0.09317088951990007,0.025926870275847613
1667776288483488800,1.97048876953125,0.12253566182255744,-0.057670537071675056,-0.026019042071327565
1667776288493540900,1.980540771484375,0.17661913418769834,-0.0030598259620368477,-0.0419554103391245
1667776288503591700,1.990591796875,0.0894891322672367,0.017200287256389855,-0.018014781977050004
1667776288513642800,2.000642822265625,0.019313187757134437,0.025137729192152618,-0.03641987844593823
1667776288523693800,2.01069384765625,0.044210313126444814,0.06495755227468908,-0.003217245013453066
1667776288533745000,2.020744873046875,0.07671265280246733,0.08766615462377667,0.025652875640057027
1667776288543795700,2.030795654296875,0.11164368093013763,0.1054819434300065,0.13923417356926948
1667776288553847800,2.040847900390625,0.14738251830935478,0.07144231118410825,0.18913718191199003
1667776288563899000,2.05089892578125,0.17126491367816923,0.027552681379392742,0.07638407843522727
1667776288573949700,2.06094970703125,0.17848901971280573,0.047333267452567815,-0.021614194708503783
1667776288584000800,2.071000732421875,0.0408037195533514,0.08990954963639378,-0.10672423510868102
1667776288594051800,2.0810517578125,-0.1467488965809345,0.10595767118297517,-0.11161555081419645
1667776288604103700,2.091103759765625,-0.15674188280701637,0.10561382618136704,-0.1764411472722888
1667776288614154800,2.10115478515625,-0.07245733344554901,0.11806531147547066,-0.15817443636078388
1667776288624205800,2.111205810546875,-0.015158406165242194,0.11854454635977744,-0.035717356199771164
1667776288634257000,2.1212568359375,-0.006270166310667991,0.059155222671478984,0.0694207056960091
1667776288644308000,2.131307861328125,-0.026617957812547683,0.0023793694172054526,0.12857183671426028
1667776288654359000,2.141359130859375,-0.11826631394028662,0.013630831271782516,0.08861158224772661
1667776288664411100,2.1514111328125,-0.20177695631980894,0.03963051105551421,-0.039090924286097284
1667776288674462200,2.161462158203125,-0.24494798952639102,0.0667284344047308,-0.05245188910793513
1667776288684513000,2.171512939453125,-0.20490590199530123,0.04162541119977831,0.033378063064627345
1667776288694564000,2.181564208984375,-0.06815934399068355,-0.04452916981726884,0.08874909102227538
1667776288704615200,2.191615234375,0.047964112702012056,-0.08194390451945364,-0.011261252596229314
1667776288714667000,2.2016669921875,0.16504852338135242,-0.0982989731233567,-0.060184533753176214
1667776288724718000,2.211718017578125,0.2540016490757465,-0.1652165734246373,-0.1866905559448525
1667776288734769200,2.22176904296875,0.3249994313627481,-0.130376000059396,0.059050593253225085
1667776288744820200,2.2318203125,0.4230553164452314,-0.005830825045332312,0.21524616728909313
1667776288754871000,2.24187109375,0.29500352154970166,0.09663505849912762,0.30320169678088277
1667776288764923100,2.251923095703125,-0.051237435284256935,0.1973129626482725,0.4962152452021837
1667776288774974200,2.26197412109375,-0.263700620791316,0.18859934870824216,0.5050063082925975
1667776288785025000,2.27202490234375,0.10317454327046871,-0.08491860948130488,0.4497510156691074
1667776288795076000,2.282076171875,0.6189110660225152,0.06851327199488878,0.2838249422682449
1667776288805127200,2.292127197265625,0.8244587730526923,0.2426443887591362,0.34136575201302766
1667776288815178200,2.30217822265625,0.5314981555074453,-0.012286796251684426,0.5015143745236098
1667776288825230000,2.31222998046875,0.5874018290370703,-0.2794593309372663,0.7105562072798609
1667776288835281200,2.32228125,1.251588791590929,-0.3132124013267457,1.0349641755554824
1667776288845332200,2.332332275390625,1.7815894020169973,-0.13274974345341323,1.3596949460446834
1667776288855383000,2.342383056640625,1.5630027651935814,0.14053849763348697,1.4857865467831493
1667776288865434000,2.35243408203125,0.9746844058334827,0.19049144606515764,1.690259464188665
1667776288875486200,2.362486328125,0.3882821092277765,-0.19348346748799083,1.3315142689600585
1667776288885537000,2.372537109375,0.3540256193608045,-0.34635932251662016,1.370018479399383
1667776288895588000,2.382588134765625,1.1707365547657012,0.024281039297580718,1.6042080512851475
1667776288905639200,2.39263916015625,1.5936059932500124,0.10380699595510959,1.4426125909671186
1667776288915690200,2.402690185546875,1.9908014767736195,0.2380532615765929,1.0154850566469131
1667776288925741300,2.4127412109375,2.771495926901698,0.5008801682733,1.556962169855088
1667776288935793200,2.422793212890625,3.4231875650197265,0.5022976338557898,1.7187582673117516
1667776288945844200,2.43284423828125,3.6613884183734653,0.5930556170150637,1.7414739569887518
1667776288955895300,2.442895263671875,3.949343774977326,0.8572025202691554,1.8059487672477958
1667776288965946000,2.452946044921875,3.6856869933277365,1.0751065816558898,1.6336149091638623
1667776288975997200,2.4629970703125,3.0362808357983826,1.2954947149433196,1.372938750760257
1667776288986049300,2.47304931640625,2.866884638601541,1.4983936610303819,0.9243456729546189
1667776288996100000,2.48310009765625,3.108213268586993,1.7798327676080166,0.16884747727289795
1667776289006151200,2.493151123046875,3.8393788409143683,2.1247100348733365,-0.3769257256940007
1667776289016202200,2.5032021484375,4.574014135178923,2.3057363179787993,-1.3374141406536102
1667776289026253300,2.51325341796875,5.138119844302535,2.8753993689686057,-2.2006483423024417
1667776289036305200,2.52330517578125,5.519931296211481,3.570371053625643,-2.731576004445553
1667776289046356200,2.533356201171875,5.564099523761868,4.050893639655411,-3.0790400733336805
1667776289056407300,2.5434072265625,5.245992774522304,4.351220109793544,-3.379836499071121
1667776289066458000,2.5534580078125,4.563281728762388,4.737623273406922,-3.280189837665856
1667776289076509200,2.56350927734375,3.725411100950837,5.028441910487413,-3.2285078734844923
1667776289086560300,2.573560302734375,3.08871128025949,4.9760237409859895,-3.5792537405222653
1667776289096612000,2.583612060546875,2.8097511310160157,4.879820498032868,-4.101080981364846
1667776289106663200,2.5936630859375,2.5447306597977875,4.863365330055355,-4.652939203333855
1667776289116714200,2.60371435546875,2.4944927569448945,4.879309918162226,-5.304515106117725
1667776289126765300,2.613765380859375,2.8367414292722937,5.22470156469047,-5.720896351626515
1667776289136816400,2.62381640625,2.9415280839145184,5.5248827811390155,-5.304258501008152
1667776289146868200,2.6338681640625,2.9251503650873896,5.837685578751564,-3.8562697699606416
1667776289156919300,2.643919189453125,2.612977682071924,6.312562267848849,-2.0382289983808994
1667776289166970400,2.653970458984375,1.7323142067164181,6.695172176659107,-0.11885960365831852
1667776289177021200,2.664021240234375,0.20505057116299866,6.154291275778412,0.9447416875123977
1667776289187072300,2.674072265625,-1.4421765376374125,5.05561984027028,1.1149778426647186
1667776289197123300,2.684123291015625,-1.6226184449836611,4.205947715505958,0.5475631551235914
1667776289207175200,2.694175048828125,-1.8334207115411758,3.7458351725593206,0.023977087914943695
1667776289217226200,2.704226318359375,-1.2643389675706624,4.337734020754695,0.230068984824419
1667776289227277300,2.71427734375,-0.1501835472047329,5.536563282060623,1.6614976262152195
1667776289237328100,2.724328125,1.079299868627265,6.268738323691487,3.003413169941306
1667776289247379000,2.73437890625,0.6183260326761753,6.152291041871905,3.934465354797244
1667776289257431300,2.744431396484375,-1.220405717819929,5.304218168997764,5.018985515356063
1667776289267482400,2.754482421875,-2.6160990289628505,4.407732270610333,6.913174876114725
1667776289277533000,2.764532958984375,-3.092045393118262,3.7318665607005355,9.06070303812623
1667776289287584000,2.774583984375,-2.846122421079874,2.834538366270065,10.40427336332202
1667776289297635000,2.784635009765625,-2.177250515580177,1.9274895728141068,11.281373008716105
1667776289307687200,2.794687255859375,-1.800208177769184,1.6176462095290423,12.355937007927894
1667776289317738000,2.804738037109375,-1.6527929262340069,1.47079969779253,13.163369827377796
1667776289327789000,2.8147890625,-2.7212977715373037,1.0307534990578888,13.811034109675884
1667776289337840000,2.824840087890625,-0.35533553291559217,-0.5290437480926513,16.306313633084297
1667776289347891200,2.83489111328125,1.7347709522187709,-2.563508425503969,18.542016337633132
1667776289357943000,2.844943115234375,3.790872291898727,-4.571566157504916,19.134173252242803
1667776289367994000,2.854994140625,12.03945230693221,-6.222129132729768,20.15299139883518
1667776289378045200,2.865045166015625,17.08136627793312,-7.629367335715889,18.932191713261602
1667776289388096000,2.875095947265625,10.88156354330182,-7.546255921787023,15.113379275035857
1667776289398147000,2.88514697265625,5.846702413421869,-5.524274878373742,12.406797426593302
1667776289408198100,2.8951982421875,3.0209219386249777,-3.9325504610866306,8.531310330465436
1667776289418250000,2.90525,2.0658160934865473,-2.8520705158293245,4.702549329677224
1667776289428301000,2.915301025390625,2.096630918467045,-1.4806553213745355,1.0790279928833246
1667776289438352100,2.92535205078125,0.7660404863536358,-0.663306088066101,-1.1678057620108127
1667776289448403200,2.9354033203125,-0.467222922941111,-0.9503431607812642,-3.6222669528186318
1667776289458454000,2.9454541015625,-1.2960937037497757,-0.9190449361979961,-3.861026609098911
1667776289468506000,2.955506103515625,-1.2713947313010692,-1.4100982685923575,-3.981887031185627
1667776289478557200,2.96555712890625,0.4339771079540252,-2.419093524828553,-4.362367526751757
1667776289488608000,2.97560791015625,1.1787293070852756,-3.26353651676774,-3.92376801969409
1667776289498659000,2.9856591796875,0.38486207165122027,-3.6597234077706933,-2.9788001222103833
1667776289508710100,2.995710205078125,-0.3287515504378825,-2.9951614744246005,-3.4345518395990133
1667776289518762000,3.005761962890625,-1.3878840986967087,-0.9645356445237994,-4.7611219301551575
1667776289528813000,3.01581298828125,-3.067839757144451,1.6137740442708133,-5.783247301599383
1667776289538864000,3.025864013671875,-3.5635517289996144,3.207780435015261,-6.754012488162517
1667776289548915200,3.035915283203125,-2.8800796357393263,4.089427952972054,-6.938124023932218
1667776289558966300,3.04596630859375,-1.7004839210830627,3.7437721025496717,-5.349465423956513
1667776289569017000,3.05601708984375,-0.6957258640252053,2.643983061188459,-2.852313676935434
1667776289579069200,3.066069091796875,0.18669862965345382,1.6414806741029022,-1.3740215775609015
1667776289589120300,3.076120361328125,0.7945473266527057,1.5997843896239996,0.23060849852859971
1667776289599171000,3.086171142578125,0.5158639485239982,1.6784575288444756,0.04536942003369331
1667776289609222100,3.09622216796875,0.6311527079582214,2.310904368266463,1.1519593735814093
1667776289619273200,3.106273193359375,1.1522549955271184,1.8278461262792347,2.1057196493297816
1667776289629325000,3.116324951171875,1.3649112193882464,2.4188497792005537,1.930751204958558
1667776289639376100,3.126376220703125,1.3607377330958843,3.1071739886671303,2.2606249643594025
1667776289649427000,3.136427001953125,0.9356582173466682,4.907380997392535,2.6140099477291106
1667776289659478000,3.14647802734375,0.5970424946941435,5.306280946746468,3.147054163634777
1667776289669529000,3.156529052734375,-0.32432197049260136,5.024839502081274,3.837967805072665
1667776289679580000,3.166579833984375,-0.42896658631563184,3.3788433963805433,3.7424341319441794
1667776289689632000,3.176632080078125,0.04077624702453613,2.6140882736623285,2.054981395739317
1667776289699683800,3.186683837890625,-0.010443068081140518,1.5366349827498196,2.047618173494935
1667776289709735000,3.19673486328125,0.09256035640612244,-0.38698213254511354,1.13506143027246
1667776289719786000,3.206785888671875,0.1478526200391352,-1.173458088684082,0.5503396340996026
1667776289729837800,3.216837890625,0.6511727288104593,-0.8736649947702884,0.19927111097872255
1667776289739889000,3.226888916015625,-0.1699602608203888,-0.0579226121366024,0.036569442984461784
1667776289749940000,3.23693994140625,-0.9771266844190657,-0.6532628329575061,-0.2817909887552261
1667776289759991000,3.246990966796875,-0.53231005641222,-1.6185861207276582,-1.712049417322874
1667776289770041900,3.257041748046875,-0.07543386503830551,-1.9542711967557667,-2.9158991371393204
1667776289780094000,3.267093994140625,-0.5139001011051237,-2.6948154228031633,-2.6127935576766728
1667776289790145000,3.27714501953125,-0.6848448429182171,-3.635282501736283,-3.111134124469757
1667776289800195800,3.28719580078125,-1.289388653153181,-3.594659399446845,-1.6027175204664468
1667776289810247000,3.297246826171875,-0.29941446985974907,-2.8321932644486427,-0.793396110790968
1667776289820298000,3.307298095703125,1.2112881992541253,-2.7321640334665775,-1.1851339134305714
1667776289830349800,3.317349853515625,1.457623405355215,-3.816775379440188,-2.1551275310993194
1667776289840401000,3.32740087890625,2.366027851203829,-4.6281239110291,-2.374347205129266
1667776289850452000,3.337451904296875,3.453625373381376,-3.7680607406318187,0.40880642634034153
1667776289860503000,3.3475029296875,1.3484661344133317,-2.2017133411854504,4.3083249709188935
1667776289870553900,3.357553955078125,0.31469854823127386,-1.2444219687014817,5.648398101648688
1667776289880605000,3.36760498046875,0.6294669468283652,-2.522728086826205,3.9390801551163195
1667776289890657000,3.377656982421875,-0.26242811663746834,-2.7724644796729088,5.528497464504838
1667776289900707800,3.387707763671875,-1.7702489467047153,-0.05306698879897594,8.012034527671336
1667776289910759000,3.397759033203125,-2.828348571719229,3.3490316109627485,5.990948387271166
1667776289920810000,3.40781005859375,-2.5655121665418146,5.408522008559108,4.319072574904561
1667776289930861000,3.417861083984375,-1.5598409401617943,5.093637143975496,4.011623413279652
1667776289940913000,3.427912841796875,-0.7113960191048682,2.6410002459853885,4.9851937203913925
1667776289950964000,3.4379638671875,-2.779928824204206,2.0447201139658686,3.2973353259950873
1667776289961015000,3.44801513671875,-3.038253597176075,1.9598072035729883,0.5385936667263508
1667776289971066000,3.458066162109375,0.3114354547820985,-1.12381522911489,1.0075129087239503
1667776289981117000,3.468116943359375,-1.7046085997976361,-3.3260055401623245,-0.7685995231866836
1667776289991169000,3.4781689453125,-2.353113278442621,-3.18712723082602,-5.187060108560323
1667776290001220000,3.48822021484375,-2.426816520296037,-1.4955957008749245,-7.86135355233848
1667776290011271000,3.49827099609375,-1.1855825339809059,0.22623861288130281,-8.272772791525721
1667776290021322000,3.508322021484375,1.628539943987131,2.54565829603672,-8.582136846861243
1667776290031373000,3.518373046875,2.1471334636054933,3.8357203184068203,-8.582275963070988
1667776290041425000,3.5284248046875,1.9212226213738322,4.009703258872032,-6.643363663488626
1667776290051476000,3.53847607421875,1.644079896815866,3.822525321269035,-3.8040567676424977
1667776290061527000,3.548527099609375,0.6739874949477612,2.89460091304481,-1.2068886491209267
1667776290071578000,3.558578125,-0.5234722315706313,2.102024301943183,0.6312105756253004
1667776290081629000,3.56862890625,-0.6524480094432831,1.6532774948805569,1.9233640173166988
1667776290091679700,3.5786796875,-0.30946240114346146,1.6097212617486714,2.550516257461905
1667776290101732000,3.588732177734375,0.28178762775436045,1.5329916578114031,3.0421085190385577
1667776290111783000,3.598782958984375,0.8537013802804052,0.46583939616084097,3.226245773771405
1667776290121834000,3.608833984375,0.8925416908062994,-0.21541794365942477,2.5433500190943477
1667776290131884800,3.618884765625,0.44053515129536386,-0.7225602410674095,1.2157973472416401
1667776290141935900,3.628935791015625,-0.18608838880062104,-0.8263917869418859,-0.06484042870104313
1667776290151988000,3.638988037109375,-0.9408253908514976,0.22203999214768408,-1.2515239096611737
1667776290162038800,3.649038818359375,-1.0365548788130283,0.07782792056798934,-0.8448883976191282
1667776290172089900,3.65908984375,-0.9991280883468687,-1.0556003555446862,-0.17701953168213366
1667776290182141000,3.669140869140625,-0.764928433458507,-1.9279858318984506,0.18671324270069597
1667776290192191700,3.679191650390625,-0.9721908354520797,-2.3194079927176237,0.12112871763408184
1667776290202243800,3.689243896484375,-1.7805469072267412,-3.0502760434031484,0.7303285369813441
1667776290212295000,3.699294921875,-3.8811344543650743,-3.53403688070178,1.1217965827688574
1667776290222345700,3.709345703125,-4.717850651444494,-2.649944015419483,0.15697423025816679
1667776290232396800,3.719396728515625,-3.1544217697933314,-1.7207880195736884,-1.0394792418271304
1667776290242448000,3.72944775390625,-1.6554947325386107,-2.289989006009698,-1.0389245305538177
1667776290252499700,3.739499755859375,-0.633824995907396,-2.121464915472269,-1.3242059917733073
1667776290262550800,3.74955078125,2.3082161520957944,-2.063951468658447,-1.4163026761904358
1667776290272601900,3.759601806640625,5.669876358485221,-2.8157553398668766,0.48200960971713064
1667776290282653000,3.76965283203125,4.041721029901504,-3.7036698092639444,1.587285850317776
1667776290292703700,3.779703857421875,2.0070213746905328,-4.911809919750691,1.2005457098349928
1667776290302755800,3.789755859375,-0.02740355523228645,-5.157720616829395,0.618741846935451
1667776290312807000,3.799806884765625,-0.6432453698772936,-4.756858427491784,0.07879444577889516
1667776290322858000,3.80985791015625,0.07812120442613958,-4.012102721229195,-0.5890939468424767
1667776290332908800,3.81990869140625,0.11988543957471846,-2.547161686336994,-1.5411974683597682
1667776290342959900,3.8299599609375,-1.2619628860890864,-1.9809727411985396,-1.8636890085548161
1667776290353011000,3.840010986328125,-1.9729567541338502,-2.0594149942725894,-1.644475618135184
1667776290363062800,3.850062744140625,-1.6497943289399146,-2.125889161655307,-1.4202372391603886
1667776290373113900,3.86011376953125,-0.21420396475978196,-1.8716297384262084,-1.6793644145563245
1667776290383165000,3.8701650390625,1.3686182572126389,-0.775144999307394,-3.026365298722684
1667776290393216000,3.880216064453125,1.6687562190413474,1.7922376372814177,-4.186506809715927
1667776290403266800,3.890266845703125,1.5526538051366805,5.138953372517228,-4.344186850155889
1667776290413319000,3.90031884765625,0.8023416337907314,7.742022239515185,-4.284086893980205
1667776290423370000,3.910369873046875,-0.11890698646400123,8.770046021348238,-4.719403433844447
1667776290433420800,3.9204208984375,-0.8334897093135863,9.895335999190808,-4.3890302004888655
1667776290443472000,3.930471923828125,-1.3171113573372364,10.180220277786255,-2.738431277167797
1667776290453523000,3.94052294921875,-0.9079249917685985,8.648029999485612,-0.03871113118827343
1667776290463574800,3.95057470703125,-0.28413842866420747,5.524831927734613,2.5828181061297655
1667776290473625900,3.9606259765625,0.14533548611905425,2.3955109891891477,3.4568028343737125
1667776290483677000,3.970677001953125,0.2971545255711302,0.3282692468136549,2.7470301786869764
1667776290493728000,3.98072802734375,0.18711016959641127,-0.7982154937714337,1.639563734565675
1667776290503778800,3.99077880859375,0.07388119223620743,-1.1016297007918356,0.894178059836477
1667776290513831000,4.000830810546875,0.016243826781772077,-0.6907657573997974,0.5926143029883504
1667776290523882000,4.010882080078125,-0.04225508740544319,0.06639934858083725,0.5159145096674561
1667776290533932800,4.020932861328125,-0.03231942085716873,0.5574672940224409,0.4015051634162664
1667776290543983900,4.03098388671875,-0.06615384938716888,0.26811785271167754,0.22752894495278594
1667776290554035000,4.041034912109375,-0.3309749986410141,-5.213322677063942,1.2362737335592509
1667776290564086000,4.0510859375,-0.1646960932144895,-11.051799698454142,2.1811866859853266
1667776290574137900,4.061137939453125,0.031959282307885584,1.9527204601824282,-0.06525397793799638
1667776290584189000,4.07118896484375,-0.5850854053208604,5.000277892276644,-1.2583315438494085
1667776290594240000,4.081239990234375,-0.6949743150055409,2.0271371110022067,-1.3251651921942829
1667776290604291000,4.091291015625,-0.3795592890679836,0.7291039636224508,-0.7381856802225113
1667776290614342000,4.101341796875,-0.25345687467455863,1.5458277585089206,-0.3167895291611552
1667776290624394000,4.11139404296875,-0.27132808346245435,0.8528174370527267,-0.08598346223384142
1667776290634445000,4.121445068359375,-0.3100432332387194,0.6844166806340217,-0.1529144334733486
1667776290644496600,4.13149658203125,-0.4726701189637184,0.9112491677552461,-0.42335517617464064
1667776290654547700,4.141547607421875,-0.6343886211395263,0.6198766961842775,-0.6286316650480032
1667776290664598800,4.151598876953125,-0.82795070682168,0.6565367400616408,-0.6906169965788722
1667776290674651000,4.16165087890625,-0.9517571192324161,0.7524269715428352,-0.426726406173408
1667776290684701700,4.17170166015625,-1.1226187128067016,0.7097539509862661,-0.18511223724484444
1667776290694752800,4.181752685546875,-1.26121002189517,0.7485971841216087,-0.09617577042430639
1667776290704803600,4.191803466796875,-1.2035153732955455,0.853285054564476,-0.16932897717952727
1667776290714854700,4.201854736328125,-1.003979473900795,1.1617471926242113,-0.4065814437672496
1667776290724906800,4.21190673828125,-0.719983668577671,1.6397516583532095,-0.6122679747462272
1667776290734957600,4.22195751953125,-0.598830985546112,1.4745599271088838,-0.4876674893483519
1667776290745008600,4.232008544921875,-0.6887900734126567,0.40200492963194845,-0.10110971969515084
1667776290755059700,4.242059814453125,-0.7418611538648605,-1.0161515577316285,0.6349275503218174
1667776290765110800,4.25211083984375,-1.9291572137653827,-2.502086280813813,2.23101732321158
1667776290775162600,4.26216259765625,-2.20010999764204,-2.1108499979555604,1.831780543118715
1667776290785213700,4.272213623046875,-1.4707576122164725,-1.111577094310522,0.0863350521504879
1667776290795264800,4.2822646484375,-1.0539268693745136,-0.9305524186402558,-1.5263380451411008
1667776290805315800,4.29231591796875,-0.529982490247488,-0.9386685050785541,-2.829441919913888
1667776290815366700,4.30236669921875,0.3387864030443132,-0.3683919983655214,-3.325355259560048
1667776290825417700,4.312417724609375,1.1353483574550598,0.23753508292138575,-2.6385984455406666
1667776290835469800,4.3224697265625,1.276982760566473,0.7353916655898094,-2.158925169816613
1667776290845520600,4.332520751953125,1.139000523287058,0.9902648368030786,-1.8818422126218675
1667776290855571700,4.34257177734375,1.0428583628714083,0.7092974393904209,-1.3626876981198788
1667776290865622800,4.352622802734375,0.9013049891069531,0.4633247829914093,-0.9565092821955681
1667776290875673900,4.362673828125,0.7429799287617206,0.48247839627265926,-0.7612702032119035
1667776290885725700,4.3727255859375,0.7969135443273931,0.5210130018502473,-0.7206016543455421
1667776290895776800,4.38277685546875,1.1213853716194628,0.4572364029884338,-0.633436142720282
1667776290905827800,4.392827880859375,1.4403018298067152,0.6867851633310318,-0.7798679361760615
1667776290915878700,4.402878662109375,1.7673839126624167,0.43551907669901846,-0.06888707374334335
1667776290925929700,4.4129296875,2.3617468128837644,0.6497703146666288,0.8126271732226014
1667776290935981800,4.42298193359375,2.89109436622858,1.1188462085306643,1.7064885683253406
1667776290946032600,4.43303271484375,3.2941689709186552,1.3360107035964726,2.470640172192454
1667776290956083700,4.443083740234375,3.4413039442077276,1.1072188991010188,2.8107214373528957
1667776290966134800,4.453134765625,3.341204278337955,0.393607688164711,2.731911227749288
1667776290976185900,4.463185791015625,2.9081787720203396,-0.5192179351270199,2.493507253038883
1667776290986237000,4.47323681640625,2.2375103384926915,-1.1448761373221874,2.4736101279139517
1667776290996288800,4.483288818359375,1.4235479711435735,-1.2534937484294175,2.744544791612029
1667776291006339800,4.49333984375,0.6429109502911567,-1.1535662242561577,2.8722245383247733
1667776291016391000,4.503390869140625,-0.03833776783123612,-1.0304682523757218,2.8488158979475497
1667776291026441700,4.513441650390625,-0.6129802146688104,-0.8609989899426698,2.83378316398859
1667776291036492800,4.523492919921875,-0.9341092343389987,-0.6967454163312912,2.601263863402605
1667776291046545000,4.533544921875,-0.8038932471469045,-0.7964543293178081,2.106001827272028
1667776291056595700,4.543595703125,-0.4280407036423683,-1.005226843613386,1.7747434816449879
1667776291066646800,4.553646728515625,-0.12851882788538932,-1.1582172649323939,1.679460276146233
1667776291076697900,4.56369775390625,0.15119272424727678,-1.3897253426492213,1.6257095428667963
1667776291086749000,4.5737490234375,0.3859954595953226,-1.7625620454639195,1.5984432041481136
1667776291096800800,4.58380078125,0.6336614759087562,-2.1577625557780267,1.6190820875510572
1667776291106851800,4.593851806640625,0.8199509402394294,-2.4733587835013866,1.6031582499712704
1667776291116903000,4.60390283203125,0.8909444847427308,-2.692585471794009,1.5905727630339561
1667776291126953700,4.61395361328125,0.9935314373835921,-2.8470576561033725,1.4928070930697024
1667776291137004800,4.6240048828125,1.103190081976354,-2.895491139882803,1.1570547970242797
1667776291147055900,4.634055908203125,1.1470809538900852,-2.8037515983402725,0.6144497026994824
1667776291157107700,4.644107666015625,1.1059551627755164,-2.533394442269206,-0.06880319485217333
1667776291167158800,4.65415869140625,1.021578112825006,-2.11226863258183,-0.8586268539838492
1667776291177209900,4.6642099609375,0.948772404333204,-1.6344085437595843,-1.5331095851026475
1667776291187261000,4.674260986328125,0.6413574372388422,-1.10421387206614,-2.230096701235324
1667776291197312000,4.68431201171875,0.18911168214455246,-0.6678712040245532,-2.9671465092957017
1667776291207363800,4.69436376953125,0.02004690885916352,-0.2513186936020851,-3.4980753404825924
1667776291217415000,4.704414794921875,0.17312617750540374,0.17698855202198027,-4.011569637265802
1667776291227466000,4.714466064453125,0.3728663673005998,0.5491588998824357,-4.3067981997430325
1667776291237516800,4.724516845703125,0.2675822845302522,0.6479395921081305,-4.0631308976769445
1667776291247568000,4.73456787109375,0.10079495465755461,0.6421545789659023,-3.305904124636948
1667776291257620000,4.744619873046875,0.017977701369673013,0.7132388704925775,-2.375979920897633
1667776291267670800,4.7546708984375,0.16366371795944867,1.023975967746973,-1.6760587971396743
1667776291277721900,4.764721923828125,0.6059644176226109,1.4872908138662575,-1.1442011606700717
1667776291287773000,4.77477294921875,0.5897907700002193,1.5793255389630794,-0.7078451947554946
1667776291297824000,4.784823974609375,0.05418181817308068,1.0079372716158628,-0.662364423301816
1667776291307875800,4.794875732421875,-0.7193173136234283,0.31553426840305326,-1.0837868778482078
1667776291317927000,4.804927001953125,-1.671888087326288,-0.1895715547412634,-1.0748786181189118
1667776291327978000,4.81497802734375,-2.450645431911945,-0.6892541837930679,-0.528363656874001
1667776291338028800,4.82502880859375,-3.2054093219697473,-1.069092289802432,0.42641485600620505
1667776291348079600,4.83507958984375,-3.985640830761194,-0.8660241246283054,1.5349235026568173
1667776291358130700,4.845130615234375,-4.493002323877811,-0.4117576773613691,2.088402019304037
1667776291368182800,4.855182861328125,-4.16683443325758,-0.056066755136847495,2.225024366407096
1667776291378233900,4.86523388671875,-2.3353309535145756,0.5185924967050553,2.268486491514742
1667776291388284700,4.87528466796875,0.14853870260715485,1.4825257914215326,1.8153572315841913
1667776291398335700,4.885335693359375,1.2569231383562087,2.4852146409898994,0.8464290511898696
1667776291408386800,4.89538671875,0.6920669031262398,3.166170367515087,0.2278762970857322
1667776291418439000,4.90543896484375,-0.5266156441628933,3.0619805097222326,0.3772024968087673
1667776291428489700,4.91548974609375,-1.0215151305913925,2.0168261448681353,0.6114223177023231
1667776291438540800,4.925540771484375,-0.8206611343353987,0.8256360001385211,0.20128551954105495
1667776291448591600,4.935591552734375,-0.5315443327367305,0.2364876196950674,-0.4144336185723543
1667776291458642700,4.945642578125,-0.3585240632912144,0.1714765106022358,-0.6762137926951051
1667776291468694800,4.95569482421875,-0.3230103033721447,0.24792554403245448,-0.6114975748956203
1667776291478745600,4.96574560546875,-0.4387145848046988,0.37750644819140433,-0.17173603832125664
1667776291488796700,4.975796630859375,-0.665344973482564,0.5631447551369667,0.591680529269576
1667776291498847700,4.98584765625,-0.7173023936044425,0.6327671574175358,1.136747191402316
1667776291508898800,4.99589892578125,-0.47649157694801686,0.472004933053255,1.4665335647806523
1667776291518949600,5.00594970703125,-0.16942125857286155,0.22752163842916487,1.677747480878979
1667776291529001700,5.016001708984375,0.30407077123299237,-0.11934183421730994,1.5835577697053551
1667776291539052800,5.026052734375,0.725828595213592,-0.5420131197810173,1.4518302089065311
1667776291549103600,5.036103515625,1.1059544321231543,-0.8069809840291738,1.3369286952242254
1667776291559154700,5.04615478515625,1.3471477452911436,-0.7679992192059755,1.2177544726587832
1667776291569205800,5.056205810546875,1.4076356778711079,-0.7597761652618646,1.1330199875727296
1667776291579257600,5.066257568359375,1.4756724183954297,-0.9738514621406793,1.1716432943470776
1667776291589308700,5.07630859375,1.7000224410511553,-1.3866121790647505,1.1947706335648893
1667776291599359700,5.08635986328125,2.268284100810438,-1.651831972247362,1.0805652854532002
1667776291609410800,5.096410888671875,3.0874411141932008,-1.7269699230790136,0.9372487014085054
1667776291619462000,5.1064619140625,3.824077226886153,-1.5653700788468121,0.7227217152394354
1667776291629513700,5.116513671875,3.9513632981061932,-1.3335475283533333,0.3374102923855185
1667776291639564000,5.12656396484375,3.290640796792507,-1.000185926836729,0.04097074668332934
1667776291649614800,5.13661474609375,2.2275720050632954,-0.5230687653362751,0.025520810225605962
1667776291659666000,5.146666015625,1.1666380334056914,0.020436638829112053,0.20636326119676232
1667776291669716700,5.156716796875,0.2934032467462122,0.626209406337142,0.3096476945824921
1667776291679767800,5.166767822265625,-0.43519525157213207,1.081425701674819,0.28940701671689745
1667776291689820000,5.17681982421875,-0.9754135968908667,1.091463111564517,0.21060162941887975
1667776291699870700,5.18687060546875,-0.9980053679272531,0.9610895957231521,-0.08297814293801783
1667776291709921800,5.196921875,-0.541278668026626,1.0720382801264523,-0.3997134576939046
1667776291719972900,5.206972900390625,0.22977350900918245,1.5028162997782228,-0.8169140567615628
1667776291730024000,5.21702392578125,0.8515025550618768,1.6486036578506231,-1.051932480686903
1667776291740075800,5.22707568359375,1.1775921197488903,1.520789178842306,-0.9806376151494681
1667776291750126800,5.237126953125,1.2230328514531255,1.5667022042334078,-0.8403140754409134
1667776291760178000,5.247177978515625,1.2578197949349879,1.9169746085405348,-0.5697954451978207
1667776291770228700,5.257228759765625,1.2751777569711207,2.2834581429362295,-0.1958653941884637
1667776291780279800,5.26727978515625,1.2107377257645129,2.4563988808721304,0.15047551588863134
1667776291790332000,5.277331787109375,1.2125143800482152,2.2896645963609217,0.3349731283664703
1667776291800383000,5.287383056640625,1.3700468287110328,1.9614684147834778,0.3637479719519615
1667776291810433800,5.297433837890625,1.6226216598540544,1.7429308777987955,0.40500498823076486
1667776291820484900,5.30748486328125,1.8700453918442128,1.689926432842016,0.5451645695492625
1667776291830536000,5.317535888671875,2.0253931899443267,1.5328741689115761,0.8040531138837337
1667776291840587000,5.3275869140625,2.0279636249542237,1.2312819166213274,1.1581830704018472
1667776291850638800,5.337638916015625,1.9239730891257523,0.9404805229365825,1.5164023420602082
1667776291860690000,5.34768994140625,1.7010574831873178,0.7093716736704111,1.8313401058748364
1667776291870741000,5.357740966796875,1.4835741314306854,0.4868891984522342,2.0937194149345157
1667776291880791800,5.367791748046875,1.3520815484315156,0.29947511400580407,2.26581493421793
1667776291890843000,5.3778427734375,1.3437380829781294,0.16101707590818404,2.3108660820826885
1667776291900895000,5.38789501953125,1.378900727904588,-0.031219314128160473,1.990522659832239
1667776291910945800,5.39794580078125,1.2834898043729364,-0.2398503741264343,1.380927119165659
1667776291920996900,5.407996826171875,0.996621804614365,-0.32278526244461536,0.5468713734671473
1667776291931048000,5.4180478515625,0.7974421713113784,-0.3453033837229013,-0.4256088003203273
1667776291941099000,5.42809912109375,0.8694831790409981,-0.2324526650905609,-1.4060031082332134
1667776291951150800,5.43815087890625,0.7123241668004542,-0.23832652556002137,-2.167027958381921
1667776291961202000,5.448201904296875,0.2938420765548944,-0.12235095290541648,-2.584113114376366
1667776291971253000,5.4582529296875,-0.4445645529419183,0.38516485399007794,-2.86610430187881
1667776291981303800,5.4683037109375,-1.576084949606657,1.2316881593346596,-3.072453680680692
1667776291991355000,5.47835498046875,-2.780097166508436,2.0616730023324488,-3.1106977788791057
1667776292001406000,5.488406005859375,-3.9377790093898772,2.7533529519677162,-3.0755595377415417
1667776292011458000,5.4984580078125,-5.093993702328205,3.0838200010865924,-2.7677123167097566
1667776292021508900,5.5085087890625,-6.125320617359876,3.2017081293642518,-2.001848355966806
1667776292031560000,5.518559814453125,-6.974533892440795,3.2828350914776325,-1.2120622523665427
1667776292041611000,5.528611083984375,-7.406577401983737,3.2956758683502674,-0.5716381504550576
1667776292051662000,5.538662109375,-6.863728415900469,3.0408313387095927,-0.19739304214715955
1667776292061714000,5.5487138671875,-5.807166521847248,2.685548412764072,0.29020693492293353
1667776292071765000,5.558764892578125,-4.817954408967495,2.526240478861332,0.7803373072534799
1667776292081816000,5.568816162109375,-3.655008654208481,2.5218612408638,1.043497975949198
1667776292091867000,5.578866943359375,-2.7156886994838714,2.4589912354528902,1.1135498556882142
1667776292101918000,5.58891796875,-2.2588966792620715,2.065024066326022,0.9419671082325279
1667776292111970000,5.598969970703125,-2.2653753737568856,1.506221724307537,0.5246238858237863
1667776292122020900,5.609020751953125,-2.3591161721192297,0.82871526145339,-0.30855288508310913
1667776292132072000,5.619072021484375,-1.842627808086574,0.32261458205282684,-1.134728398925811
1667776292142123000,5.629123046875,-1.5784370656907558,-0.4304980336666107,-1.0667957032978534
1667776292152174000,5.639174072265625,-1.459610341388732,-1.1439596069991589,-0.895693286705017
1667776292162226000,5.649225830078125,-1.6458967369794844,-1.631397086983919,-0.5905532788053155
1667776292172277000,5.659277099609375,-2.01727476541847,-1.8411849158018827,-0.189905170609802
1667776292182328000,5.669328125,-2.2249909025289116,-1.8457979625552892,0.15573453239537774
1667776292192379000,5.67937890625,-2.296156296467781,-1.6854513332545755,0.3353971989974379
1667776292202430000,5.689429931640625,-2.2619959604516624,-1.532089156013727,0.1595141239993274
1667776292212481000,5.69948095703125,-2.300028169465065,-1.4563555773764847,-0.4557523019105196
1667776292222532900,5.709532958984375,-2.2362556622564793,-1.5466986961245537,-1.2405024571701884
1667776292232584000,5.719583984375,-1.731316720111668,-1.7902502628564834,-2.0651351254850625
1667776292242635000,5.729635009765625,-0.8320055351704359,-2.266577735283971,-2.6379028644919393
1667776292252686000,5.73968603515625,-0.026151217083632945,-2.7382290325939653,-2.7711732708185908
1667776292262737200,5.749737060546875,0.560288781183958,-2.8712779051244257,-3.0693957544147965
1667776292272789000,5.7597890625,0.9134571991935372,-2.8518951592624187,-3.333815337130427
1667776292282840000,5.769840087890625,0.9774442259356378,-2.8620442128330468,-3.3633167414247986
1667776292292891100,5.77989111328125,0.8619540987104177,-2.886498270609975,-3.0219603417620062
1667776292302942000,5.78994189453125,0.6624997401192784,-2.650645441687107,-2.277512240143865
1667776292312992800,5.79999267578125,0.3819274795040488,-2.247133030101657,-1.335601538273692
1667776292323045000,5.810045166015625,0.06814297737777232,-1.8011685472339392,-0.39061004071868954
1667776292333096000,5.820095947265625,-0.139289812746644,-1.377915077868104,0.5670893280442804
1667776292343147000,5.83014697265625,-0.1285498075455427,-0.9825088158488273,1.4843288953207432
1667776292353197800,5.84019775390625,0.08142273018956184,-0.693826898536086,2.277347551101446
1667776292363249000,5.850248779296875,0.38765053332597016,-0.5750801076024771,2.994720160397887
1667776292373299700,5.8602998046875,0.7051394429281354,-0.6302531287699937,3.4789188045918937
1667776292383351800,5.870351806640625,0.9315402606338262,-0.8718553149998187,3.480914362323284
1667776292393403000,5.88040283203125,0.8702703838959336,-1.0967787536293268,3.1787253131836652
1667776292403454000,5.890453857421875,0.5989107727840542,-1.2824907103329897,2.7285592869728803
1667776292413504800,5.9005048828125,0.2990340922400355,-1.4240467144459485,2.2424542246356607
1667776292423555800,5.910555908203125,0.2104185279369354,-1.5876824484199286,1.7389324558123944
1667776292433608000,5.92060791015625,0.2593547005414963,-1.7990180912017821,1.1285460570290684
1667776292443658800,5.93065869140625,0.4330371967554092,-1.7959376608431339,0.1316498193874955
1667776292453709800,5.940709716796875,0.7951859168171882,-1.4000158505171536,-1.0846797350347042
1667776292463761000,5.950760986328125,1.0693293134286999,-0.6486497862040996,-1.7262888089470565
1667776292473812000,5.96081201171875,1.5513962062910198,-0.33224107305407524,-1.6221650021277367
1667776292483862800,5.97086279296875,0.218713916464895,-1.7351152356117963,-1.074030549922213
1667776292493915000,5.980914794921875,-2.669629543620348,-3.4894162332087753,-0.8894627948176115
1667776292503966000,5.990966064453125,-4.837660103173554,-4.8197746101319785,-1.2647719521604477
1667776292514016800,6.001016845703125,-5.686175166857242,-6.133961019933223,-1.9093942364141343
1667776292524067800,6.01106787109375,-6.136016198897361,-7.229651978325843,-2.0122119290709493
1667776292534119000,6.021118896484375,-6.075055241978168,-7.396078804323077,-1.9398637550882993
1667776292544170800,6.031170654296875,-5.554722039085626,-5.96781359539926,-2.4968767294719814
1667776292554221800,6.041221923828125,-4.453115719169378,-2.925705660882592,-3.51993821272254
1667776292564273000,6.05127294921875,-1.0623439845860003,1.603373354026675,-4.33558911768049
1667776292574324000,6.061323974609375,2.5091426290661096,7.1668778345048425,-3.7127602936923503
1667776292584374800,6.071374755859375,-1.3493722894728184,9.9215716796875,-4.25829457333684
1667776292594427000,6.081427001953125,-4.295765933597088,8.917757625481485,-4.456876825268567
1667776292604478000,6.09147802734375,-3.320786928731203,5.651343507450819,-2.4695479930415747
1667776292614528800,6.10152880859375,-2.397566168153286,1.950413936805725,-1.7454279553115366
1667776292624579800,6.111579833984375,-2.5625626690864562,-0.5504115302920342,-1.9367123053200541
1667776292634631000,6.121630859375,-3.0641373954951763,-1.6838427290141582,-1.7620092338867483
1667776292644681700,6.131681640625,-3.6338404862344262,-1.8423188882678747,-1.240472500423342
1667776292654733600,6.141733642578125,-4.251384355556965,-1.4393150107264518,-0.3421647934362292
1667776292664784600,6.15178466796875,-4.782847439751029,-0.5073813668608665,0.9743431911803782
1667776292674835700,6.161835693359375,-4.83336825119853,0.929392142689228,2.0962183921433986
1667776292684886800,6.17188671875,-4.764616786533594,2.817062330812216,2.7074206373542546
1667776292694937600,6.1819375,-4.587706560444832,5.0089405066818,2.619220375853777
1667776292704989700,6.19198974609375,-3.9535245677933095,7.16091512670815,2.199226931197196
1667776292715040800,6.202040771484375,-2.435808951177448,8.766547657838464,2.217821741551906
1667776292725091600,6.212091552734375,-0.34554829839468,9.338124725756048,2.299997774326801
1667776292735142700,6.222142578125,1.7535400962270795,8.089229411032795,2.2824277769751844
1667776292745193700,6.23219384765625,2.9186981202080844,5.774946506243944,2.2986348154105243
1667776292755245600,6.24224560546875,2.9417046095252037,4.056418248295784,1.6801812838971615
1667776292765296600,6.252296630859375,2.7975331622168422,2.6129303357988594,0.5948826863117516
1667776292775347700,6.26234765625,2.885932453420758,1.4763935722768307,0.05554536161124706
1667776292785398800,6.272398681640625,2.8847239544138312,0.8862596879273652,0.5549656864650547
1667776292795449900,6.282449951171875,2.914142941121757,0.7864654347449541,1.475993028651923
1667776292805501700,6.292501708984375,3.4471041549190877,1.0921779818356037,2.20343431975916
1667776292815552800,6.302552734375,4.704385605193674,1.6635878764927385,2.889459458503127
1667776292825603800,6.312603759765625,6.120746149051189,2.236425758126378,3.8174925877988337
1667776292835654700,6.322654541015625,7.309050509211421,2.684233823034167,4.498855726081133
1667776292845705700,6.332705810546875,7.998050425982475,2.72585528871119,4.672732283562421
1667776292855756800,6.3427568359375,8.37471457813084,1.9044588258385657,4.041966236834228
1667776292865808600,6.35280859375,8.135125485289096,0.17247428946793078,2.6077994026511906
1667776292875859700,6.362859619140625,7.438491128116846,-1.7739181367367505,1.3685771945498884
1667776292885910800,6.372910888671875,7.022173595494031,-3.0993910797059536,0.9302237712077795
1667776292895961900,6.3829619140625,7.283534375160932,-3.928835824477672,0.9944055898696184
1667776292906012700,6.3930126953125,7.733109449741244,-4.546187970620394,1.099156296415627
1667776292916064800,6.403064697265625,7.8393468877136705,-5.099191270971298,0.8794346642129123
1667776292926115800,6.41311572265625,7.97398332169652,-5.476177494680881,0.6794491213545203
1667776292936166700,6.423166748046875,8.08418557164669,-5.5833992675155395,0.7132051143534481
1667776292946217700,6.4332177734375,7.567268314677476,-5.661173412069678,1.1300384875439107
1667776292956268800,6.443268798828125,6.096751525479554,-5.565992205640673,1.7788750284917652
1667776292966320600,6.453320556640625,4.481723681755364,-5.411942046135664,2.250804704351723
1667776292976371700,6.463371826171875,3.5552617472991344,-5.172945658490061,2.4961656585931777
1667776292986422800,6.4734228515625,2.7845050460785625,-4.138407964718342,2.468245386010408
1667776292996473900,6.483473876953125,1.2331268138356506,-1.681204197204113,2.5112092062070963
1667776293006524700,6.493524658203125,-0.35385084731578825,1.9408751240879296,3.0237030937761067
1667776293016575500,6.503575439453125,0.06648468877673148,6.273647138521075,3.3265845090940593
1667776293026627800,6.5136279296875,0.651077305611968,12.618712330567837,2.2759761166177688
1667776293036678700,6.5236787109375,-4.274867522475123,19.437489844107628,3.9807349385410546
1667776293046729500,6.5337294921875,-4.354167853683233,21.879213133895394,2.5915759976029396
1667776293056780500,6.543780517578125,-4.2162943374753,21.086472856664656,-4.439583452901244
1667776293066831600,6.55383154296875,-4.193399784100055,15.141096134001016,-7.462696179568767
1667776293076883500,6.563883544921875,-3.58381359578371,9.81399744015336,-5.73507977527976
1667776293086934500,6.5739345703125,-0.8878069904346019,7.9900617653161286,-3.7194530693292616
1667776293096985600,6.583985595703125,1.3203696284808217,8.038076731422542,-3.802372175556421
1667776293107036700,6.59403662109375,0.42975452182292934,8.39411310608387,-5.216302569657564
1667776293117087500,6.60408740234375,-0.9501075984597206,7.9613868749737735,-6.287423734939098
1667776293127139600,6.6141396484375,-2.20388688583225,6.8916346599578855,-5.709018282306194
1667776293137190700,6.624190673828125,-2.8805530984699725,5.375817424309253,-4.354855251425504
1667776293147241500,6.634241455078125,-3.4512186045005917,4.047333609086275,-2.8189237407699226
1667776293157292500,6.64429248046875,-4.098436019814014,2.9379671765625477,-2.0742557127907872
1667776293167343600,6.654343505859375,-5.228971497094631,1.6959166131675243,-2.132314226266742
1667776293177395500,6.6643955078125,-6.679240448033809,0.30638416274189945,-2.006556095266342
1667776293187446500,6.674446533203125,-7.209275545251369,-1.215806699591875,-1.670180114364624
1667776293197497600,6.68449755859375,-6.935922714495659,-2.8371096780627965,-1.3703753300130366
1667776293207548700,6.694548583984375,-6.100631581783294,-4.660299502968788,-1.0859317809224127
1667776293217599700,6.704599853515625,-5.38078352228403,-6.53380555666089,-0.7844505877912044
1667776293227650600,6.714650634765625,-5.279043980252743,-7.918682290235162,-0.6139341543927789
1667776293237702700,6.72470263671875,-5.115353301221132,-9.051502663582562,-0.9165675132337957
1667776293247753700,6.734753662109375,-4.862560443413257,-10.24804118360281,-1.2109414316430687
1667776293257804500,6.744804443359375,-4.6785529525399205,-11.719965501511096,-0.7444082079991697
1667776293267855600,6.754855712890625,-4.7176694496586915,-13.476583543878792,-0.065612892644573
1667776293277906700,6.76490673828125,-4.710348605251312,-15.177999338984488,0.006918693347275256
1667776293287958500,6.77495849609375,-4.302905868479609,-16.467839243036508,-0.3107008568972349
1667776293298009600,6.785009521484375,-3.8723713021948933,-17.17927720158696,-0.6420911583408713
1667776293308060700,6.795060791015625,-3.6100314483627676,-16.85659423047304,-0.6400295496359467
1667776293318111700,6.80511181640625,-3.422319550013542,-14.727625222980976,-0.18502863234831018
1667776293328162600,6.81516259765625,-2.326802633013576,-11.260223837703466,0.18326072762664405
1667776293338214700,6.825214599609375,-0.11743263959512114,-8.122760509234666,0.5000510970380156
1667776293348265700,6.835265625,4.01192561109662,-4.7736868126958605,1.9324197226926683
1667776293358316500,6.845316650390625,13.997225374329089,0.4707996489167213,4.850533613272011
1667776293368367600,6.85536767578125,22.74420966904163,8.926677429518103,6.891369287019968
1667776293378418700,6.865418701171875,16.83134288483858,17.288689177942274,3.5545527222469446
1667776293388470500,6.875470458984375,2.053698808582872,18.00047317345142,0.19208123600725083
1667776293398521600,6.885521484375,-5.371649783235788,9.437290617907047,-0.0716515882869251
1667776293408572700,6.89557275390625,-5.871634610104561,3.6045039171129463,-0.5451396908363327
1667776293418623700,6.905623779296875,-6.512747571063041,1.5225649563431738,-1.4063137816175817
1667776293428674800,6.9156748046875,-7.594169181084633,1.916221159824729,-3.4802237497106194
1667776293438725600,6.9257255859375,-6.287621303337812,5.131553909915685,-4.596193233761191
1667776293448777700,6.93577783203125,-0.9626572834312915,8.223535590147971,-4.029937653127313
1667776293458828800,6.945828857421875,-0.02836808941550553,5.331206129166484,-2.961148145663738
1667776293468879600,6.955879638671875,-0.9407365435242653,1.27640992911458,-2.541278765778243
1667776293478930700,6.9659306640625,-3.4015573324918744,-1.8278478798449038,-1.1036401638314128
1667776293488981800,6.975981689453125,-5.274677601736784,-2.990521539664268,1.1503083915039896
1667776293499033600,6.98603369140625,-6.407720677924156,-2.9862767417013645,3.1424612828865643
1667776293509084700,6.996084716796875,-7.919752549815177,-2.716075652974844,4.603869759738445
1667776293519135700,7.0061357421875,-9.347683412218093,-1.430246738129854,4.675884902374446
1667776293529186800,7.016186767578125,-9.625120881938933,1.2481623242735862,2.9947938101559877
1667776293539237600,7.026237548828125,-8.622843535780905,5.042179343938828,0.9164286892849951
1667776293549288700,7.036288818359375,-7.74096834654808,8.656169466799497,0.029815292549133298
1667776293559340800,7.0463408203125,-4.606542193818092,11.207347987562418,-0.717939595529437
1667776293569391600,7.0563916015625,1.9820757340043782,10.19207204362154,-3.045401715365052
1667776293579442700,7.066442626953125,8.713294791078567,6.016622342231869,-6.476252946880459
1667776293589493800,7.07649365234375,8.704590675619244,2.750419236603379,-6.836878987419605
1667776293599544800,7.086544921875,4.987643451631069,0.8712918358981608,-3.7324493290245533
1667776293609596700,7.0965966796875,2.9065555547326802,0.004728782087564468,-2.049713830599934
1667776293619647700,7.106647705078125,1.2479573032207787,-0.15545418108403683,-1.7032509015783666
1667776293629698800,7.11669873046875,-0.10632087847217916,-0.21060440589785576,-0.7879736473508179
1667776293639750000,7.12675,-0.7267787355452775,-0.07638882767558097,1.2983838605135678
1667776293649801500,7.136801513671875,0.04429842980131506,0.2859820107042789,3.628132045459747
1667776293659853600,7.146853515625,2.0884698238432406,0.6540080983668566,4.913459440523385
1667776293669904400,7.156904296875,4.448296920710802,0.3028174101710319,5.255629202395677
1667776293679955500,7.16695556640625,6.44570174127221,-0.9826409177958965,5.140146381694078
1667776293690006500,7.177006591796875,7.3823197435617445,-2.3787375490427016,4.979978616091609
1667776293700057600,7.1870576171875,7.101944466823339,-3.2131594977051017,4.942102182161808
1667776293710109400,7.197109375,6.877084156557917,-3.352562707698345,4.801480536289513
1667776293720160500,7.207160400390625,6.684121790334582,-2.9339988574534654,4.174470042702556
1667776293730211600,7.217211669921875,6.995118415307998,-2.6857944964796303,3.0327210974901915
1667776293740262400,7.227262451171875,7.368810273647308,-2.702978855514526,1.5543842821910976
1667776293750313500,7.2373134765625,7.939598237013817,-2.8812656306535005,0.4131245818004012
1667776293760365600,7.247365478515625,8.35742734324336,-2.8042309062898156,0.22551570543423294
1667776293770416400,7.25741650390625,8.316168281137942,-2.541818571743369,0.6204990658663213
1667776293780467500,7.267467529296875,7.9300377969861024,-2.255703874570131,1.097427280665934
1667776293790518500,7.2775185546875,7.269190207988023,-2.0968436844348908,1.6202588762454688
1667776293800569600,7.287569580078125,5.9983180392563336,-2.0481471658051014,2.170832319100946
1667776293810620700,7.29762060546875,4.8343838579818605,-1.8080191437810658,2.7981775976002217
1667776293820672500,7.307672607421875,4.149192393583059,-1.1683102044016123,3.3756837633058425
1667776293830723600,7.3177236328125,3.446439845791459,-0.07332710201740264,3.747477971330285
1667776293840774700,7.327774658203125,2.7283798387527463,2.2353847246408463,3.903157193341851
1667776293850825500,7.337825439453125,2.476658994090557,5.807089949479699,3.9267385599374767
1667776293860876500,7.34787646484375,1.588899422994256,10.058805728948116,3.3913162167236206
1667776293870928600,7.3579287109375,-1.36662036139369,13.254174133896827,1.8731987413085995
1667776293880979500,7.3679794921875,-2.650498142170906,13.1973808180511,-1.2975471174284816
1667776293891030500,7.378030517578125,-2.7994904337644577,10.08528223246336,-4.271417674282193
1667776293901081600,7.38808154296875,-3.1043630228996273,7.046866722723841,-5.740713397252559
1667776293911132700,7.398132568359375,-3.2336335459351537,6.745415340209007,-7.27814742142558
1667776293921184500,7.4081845703125,-2.5508722312927246,7.916908266299963,-9.509089195182918
1667776293931235600,7.418235595703125,-1.6712414599858223,8.964218932405114,-10.7031943505764
1667776293941286700,7.42828662109375,-0.9610990942038595,8.809064611050486,-9.376340766903757
1667776293951337500,7.43833740234375,0.05382029138430953,7.6902721785336725,-5.956565640676021
1667776293961388300,7.44838818359375,1.0929155023299157,6.583873948165774,-1.9100676056310533
1667776293971440600,7.458440673828125,1.0192471856594085,6.236712369355559,1.547333779157698
1667776293981491500,7.468491455078125,-0.5560822694048285,6.045958326831459,3.1858094262257217
1667776293991542500,7.47854248046875,-3.241397165673971,5.5845846779078245,3.274005011551082
1667776294001593300,7.48859326171875,-4.844914312085509,4.391264535412192,2.1152049782946705
1667776294011644400,7.49864453125,-5.298242017197609,2.329696162497997,0.13524609031379223
1667776294021695500,7.508695556640625,-5.752668038940429,0.4967337161183357,-0.9630644029274582
1667776294031747600,7.51874755859375,-6.134696348470449,-0.29226386745274063,-1.402159876808524
1667776294041798400,7.52879833984375,-6.044744274866581,-0.4834077860772609,-1.8843606251835823
1667776294051849500,7.538849365234375,-5.340456188070774,-0.808698309341073,-2.0343688158214093
1667776294061900300,7.548900390625,-4.559037223060429,-1.2889882556587458,-1.593000428572297
1667776294071951400,7.558951416015625,-4.645167400288582,-2.205008291077614,-1.2513336477860808
1667776294082003500,7.56900341796875,-5.389951163601875,-3.6860417981147764,-1.0177399959668516
1667776294092054300,7.57905419921875,-6.155027188837528,-5.327638792073726,-0.8198395888194441
1667776294102105300,7.589105224609375,-6.561942102342844,-6.8558806250095365,-0.6829705734789371
1667776294112156400,7.599156494140625,-6.534743714293837,-8.4196836006701,-0.8219719246730208
1667776294122207500,7.60920751953125,-6.458190635967254,-10.1214617993474,-1.0358756643772125
1667776294132259300,7.61925927734375,-6.38426965970993,-12.037172671562432,-0.6377484529614448
1667776294142310400,7.629310302734375,-6.1748962569117545,-13.907072225195169,0.46205549370795485
1667776294152361500,7.639361572265625,-6.014291853457689,-15.370463692557811,1.3302195529744028
1667776294162412300,7.649412353515625,-5.841171667301654,-16.287445266485214,0.9191934047579765
1667776294172463400,7.65946337890625,-5.7510278705179685,-15.889243236267566,0.7014183765783906
1667776294182514400,7.669514404296875,-5.078216287481784,-14.47140122168064,1.6418395705431699
1667776294192566300,7.679566162109375,-1.305315705603361,-12.066694534122943,2.398236907021701
1667776294202617300,7.689617431640625,5.026013806557655,-8.743736691093444,3.6978459254160523
1667776294212668400,7.69966845703125,20.774569638240337,-3.12660817245543,7.113419800561666
1667776294222719500,7.709719482421875,36.15563655787706,5.338175968179106,8.171548213279246
1667776294232770600,7.7197705078125,18.336952030205726,10.213252778816223,0.2215659266288392
1667776294242822400,7.729822509765625,-3.522821074682474,8.560942083141207,-6.553768732759356
1667776294252873500,7.73987353515625,-8.258013029289245,8.159966496556997,-9.897263752382994
1667776294262924500,7.749924560546875,-13.406872294270991,7.086323119321465,-7.751070053845644
1667776294272975400,7.759975341796875,-13.030606201529501,6.96633772650361,-5.367919949057698
1667776294283026400,7.7700263671875,-10.048340449035168,11.028312439882754,-5.619218184393644
1667776294293078500,7.78007861328125,-7.652476408624649,11.926277178651095,-3.1651135519385334
1667776294303129300,7.79012939453125,-5.508561176413298,7.011244205200672,-0.9522455603364854
1667776294313180400,7.800180419921875,-4.489966317182779,2.276269692736864,-1.069710933157429
1667776294323231500,7.8102314453125,-4.247926324057579,-0.7633253821760415,-1.0177688567351548
1667776294333282600,7.820282470703125,-4.801140052288771,-2.1924621132373807,-0.49581258268542583
1667776294343334400,7.83033447265625,-5.886207909858227,-2.482736852699518,-0.00024579145461320876
1667776294353385500,7.840385498046875,-7.35556500762701,-2.19772281024456,0.5129486455991864
1667776294363436500,7.8504365234375,-8.293602229064703,-1.223154724267125,0.780928916471079
1667776294373487400,7.8604873046875,-7.449128257465362,0.7497989611268043,0.5858014811683446
1667776294383538400,7.870538330078125,-5.673078369396925,3.0867712521076203,0.7011710507538169
1667776294393590500,7.880590576171875,-4.357293876749277,4.62771474570632,1.6085598167538642
1667776294403641300,7.890641357421875,-3.2957600395023823,5.070135856878757,2.3353929128348825
1667776294413692400,7.9006923828125,-2.0930933919906614,4.355805099496245,1.6068448295295237
1667776294423743500,7.910743408203125,0.19528247973397372,4.089596879798174,-0.9041350979663431
1667776294433794600,7.920794677734375,4.168573970401287,4.360042883196473,-4.508496245607733
1667776294443845600,7.930845703125,6.91046327906847,4.578036814823746,-6.766632315760851
1667776294453897500,7.9408974609375,6.900823928585648,4.478524885714054,-6.182988962474465
1667776294463948500,7.950948486328125,5.765280852276087,3.8210622629791495,-3.9513498541027303
1667776294473999600,7.96099951171875,4.121017269456386,3.1037270630836487,-1.1885798891659825
1667776294484050400,7.971050537109375,3.2953152183443306,2.4181740718960762,1.051160327270627
1667776294494101500,7.9811015625,3.0814754837870595,1.8127701377004384,2.920532057636976
1667776294504153600,7.991153564453125,2.578048115248978,1.0754571486592293,4.600711003446579
1667776294514204400,8.001204345703124,1.7435567546121775,0.11287409950792789,6.057535367378592
1667776294524255500,8.01125537109375,0.6238987913072109,-1.039530095231533,6.811541132545471
1667776294534306600,8.021306640625,-0.05766366893947124,-2.377506545943022,6.669302406865358
1667776294544357600,8.031357666015625,0.4011696478515863,-3.7107992227524518,6.011582009977102
1667776294554409500,8.041409423828124,2.807880368708074,-4.765470773014426,5.725812180718779
1667776294564460500,8.05146044921875,6.491167022895812,-4.449219880774617,5.588123957949876
1667776294574511600,8.06151171875,9.821143804776668,-2.652103823801875,3.297310191553831
1667776294584562400,8.0715625,11.572567785632609,-1.7504922529637812,-0.1715583436667919
1667776294594613500,8.081613525390624,10.271714320135116,-1.8847054930984972,-1.8083361007757484
1667776294604664600,8.09166455078125,8.097107012540102,-2.6800363713443276,-1.1767873792372643
1667776294614716400,8.10171630859375,6.827718360364437,-3.1124341011524197,0.1987549781501293
1667776294624767500,8.111767578125,6.659530369913577,-2.886965303599834,0.9773321438632905
1667776294634818600,8.121818603515624,6.975628117418289,-2.404847557333112,1.156213377764076
1667776294644868900,8.131868896484375,6.666549893286824,-1.8139666540086268,1.3273510118007659
1667776294654920000,8.141919921875,5.69033813175559,-0.6592477525860071,1.9920858174957334
1667776294664971800,8.1519716796875,4.898256318433583,0.9461755197077989,3.265500510317087
1667776294675022800,8.16202294921875,4.893692079257965,2.4986498766243455,4.392998227337002
1667776294685074000,8.172073974609376,5.127922859936953,4.679247364544868,4.603202235740423
1667776294695125000,8.182125,4.702714749372006,7.829417614373564,4.120229333949089
1667776294705175800,8.19217578125,2.0082291430450976,10.496409210705757,3.365069138050079
1667776294715228000,8.202227783203124,-0.8914787377499044,10.980732358062266,1.9197497723422943
1667776294725279000,8.212279052734376,-2.4769749281719324,10.663616373425722,0.23316870440542697
1667776294735329800,8.222329833984375,-3.5967326985895633,10.445011031901835,-2.2061562920689584
1667776294745380900,8.232380859375,-3.6846003671348093,10.706099424368142,-4.504143895617127
1667776294755432000,8.242431884765624,-2.8451182124733925,11.613477303647993,-5.2932174670338625
1667776294765483800,8.25248388671875,-2.078293297743797,11.925188798892497,-4.840303018897772
1667776294775534800,8.262534912109375,-1.5264882672667504,10.799183366256951,-4.515724443295598
1667776294785586000,8.2725859375,-1.1610359025496988,8.867397557553648,-4.708189089129865
1667776294795637000,8.282636962890624,-1.0792647973138838,7.199753099146485,-4.46817212626487
1667776294805687800,8.292687744140625,-1.0039854652501643,6.308348449546099,-3.7626986290767785
1667776294815740000,8.302739990234375,-1.3657939935721457,5.799233975282311,-3.473812713624537
1667776294825791000,8.312791015625,-2.301273054959625,5.229688120931387,-3.956803735594451
1667776294835841800,8.322841796875,-3.397565047985315,4.268521368318796,-4.708668104818463
1667776294845892900,8.332892822265626,-4.563565806400776,2.922533460587263,-4.949107092487812
1667776294855944000,8.34294384765625,-5.558564685988426,1.684452969866991,-4.605460828322172
1667776294865995000,8.3529951171875,-6.316771409976482,0.6053244392186403,-3.7451495283827185
1667776294876046800,8.363046875,-6.779381322696804,-0.342573666498065,-2.4510024286560714
1667776294886098000,8.373097900390626,-7.059054588645696,-1.119291029688716,-1.1950181785851717
1667776294896149000,8.38314892578125,-7.207112814259529,-1.873963734331727,-0.1605745563050732
1667776294906199800,8.39319970703125,-7.568459570288658,-3.1489865930020806,0.410982016813755
1667776294916251000,8.4032509765625,-8.039350404620171,-4.734849424779415,0.8328352639928459
1667776294926303000,8.413302978515626,-8.528570091846586,-5.715913887038827,1.1769933501381427
1667776294936354000,8.42335400390625,-9.08925459434986,-6.958806161954999,0.9113964672714471
1667776294946404900,8.43340478515625,-8.46292769911289,-8.88651083882451,1.2137734401986002
1667776294956456000,8.4434560546875,-6.6717854558527465,-10.878347503864765,2.435550446371734
1667776294966506800,8.4535068359375,-5.355319410681724,-12.365630718946456,4.450760388214886
1667776294976558800,8.463558837890625,-5.0250557751804585,-13.595166668683289,4.930315298256278
1667776294986610000,8.47360986328125,-5.328119269067049,-14.724005863440036,3.6508126638233658
1667776294996661000,8.483660888671874,-5.144219330221414,-15.696742642337083,2.9805022499531506
1667776295006711800,8.4937119140625,-3.7996465499848124,-15.944080741870403,3.8616304202109575
1667776295016762600,8.5037626953125,-0.43723435618430373,-14.891239914166926,5.44917433694303
1667776295026813700,8.513813720703125,3.847328046353161,-13.37235393859744,6.749426913937926
1667776295036866000,8.523865966796874,9.54047626709342,-11.557661308401823,6.742788498836755
1667776295046916600,8.53391650390625,18.38979748520851,-7.316783149290084,3.2122295233786105
1667776295056967700,8.5439677734375,20.2441931802392,-2.6806694085508584,-3.984592490752041
1667776295067018800,8.554018798828125,8.764173914444447,-1.2020733577936886,-7.634286671939492
1667776295077069800,8.56406982421875,-2.3346017624571918,-1.0461848769456148,-9.914359848612547
1667776295087121700,8.57412158203125,-11.35827738469839,4.5158167977541686,-14.651494753980636
1667776295097172700,8.5841728515625,-20.891544158804415,10.07560138092637,-14.375917232912778
1667776295107223800,8.594223876953125,-17.45516802638769,13.169360007703304,-11.263388439214228
1667776295117275000,8.60427490234375,-11.102159766381979,20.50094325124025,-9.736294607269764
1667776295127325700,8.61432568359375,-8.000987063956261,20.567871007609366,-2.6039132088676094
1667776295137377800,8.624377685546875,-8.93970116174221,12.686257342052459,2.9701465678945183
1667776295147428900,8.634428955078125,-11.489826374059914,5.149675257539749,1.931301240056753
1667776295157479700,8.644479736328124,-12.019172904491423,1.2868050664007662,0.61905135127604
1667776295167530800,8.65453076171875,-11.433654989504813,-0.36021745973825453,1.039910326720774
1667776295177581800,8.664581787109375,-10.437755946207046,-0.43538405214250087,1.3411343302205203
1667776295187633700,8.674633544921875,-8.188722635442018,0.9090998807668685,1.238235389021039
1667776295197684700,8.684684814453124,-4.623707263630628,3.2897686901330947,0.32636458223611114
1667776295207735800,8.69473583984375,-0.671228697758913,6.818860515648126,-0.5011399151880294
1667776295217787000,8.704786865234375,5.294188942414522,10.36730702997446,-0.7923832804866134
1667776295227837700,8.714837646484375,9.588099603533744,10.314417151308058,0.33504034838378427
1667776295237889800,8.724889892578124,6.189683491677045,5.958931200763582,2.0550340027093887
1667776295247940900,8.73494091796875,3.2356665130674838,2.812402522307634,1.5072899380609392
1667776295257991700,8.74499169921875,2.339401563954353,1.300591599690914,-0.14189531906992195
1667776295268042800,8.755042724609375,2.613907071876526,0.632969986513257,-1.2693038965016603
1667776295278093800,8.76509375,3.4295249513477084,0.39983576889932154,-1.8715186792671679
1667776295288145700,8.775145751953126,4.800159224557876,0.20283377189636229,-1.5089609400130808
1667776295298196700,8.78519677734375,6.183621999680995,-0.33805180515944955,-0.513226804953441
1667776295308247800,8.795247802734375,3.8511440975099798,-0.8985328940451145,1.0703618713468313
1667776295318299000,8.805298828125,1.1515993080973626,-1.7295260373026131,2.5121397650554775
1667776295328350000,8.815349853515626,0.3459722228951752,-2.937099161556363,2.869735059596598
1667776295338400800,8.82540087890625,1.0380115073621272,-4.2099020060896875,2.762899947991967
1667776295348452900,8.835452880859375,3.755452895732224,-4.793868599981069,2.3881452827267347
1667776295358504000,8.84550390625,6.3540048698276275,-4.205691694918275,1.2068728670299051
1667776295368554800,8.8555546875,8.560895905911922,-3.8825855299562213,-0.7770811550017446
1667776295378605800,8.865605712890625,9.009133594408631,-4.3650306084811685,-2.2934099203690885
1667776295388657000,8.875656982421875,7.521693142938614,-4.647322532495856,-3.0195643865361808
1667776295398708700,8.885708740234374,6.868571764278411,-4.413459416085481,-2.410569149850309
1667776295408759800,8.895759765625,7.94658502716124,-3.4180069475114343,-0.5307774400174617
1667776295418811000,8.905810791015625,10.105823500710725,-1.6500076794296503,1.0801945524446666
1667776295428862000,8.915862060546875,11.224226641649008,-0.02091127060353756,1.5779555657841264
1667776295438912800,8.925912841796874,9.778701670366525,0.5803922425359487,2.3822956799156962
1667776295448964900,8.93596484375,6.638423284476995,0.4910194301247596,3.7824756349533795
1667776295459016000,8.946015869140625,2.957399022263288,0.7519260362833737,5.28352492505908
1667776295469066800,8.956066650390625,-0.28938860427737234,1.7730933763504027,6.532054329079389
1667776295479117800,8.966117919921874,-2.0302619650244713,3.8261686462074516,7.491549349087476
1667776295489169000,8.9761689453125,-1.505205971393734,7.4465195362716905,8.886131484118103
1667776295499220700,8.986220703125,-2.1220313171833753,12.634845134723186,9.183734959033131
1667776295509271800,8.996271728515625,-3.085028792354464,15.25921865555644,7.062440139430761
1667776295519323000,9.006322998046874,-2.9578800837785004,13.56249072600603,1.5579906361199916
1667776295529374000,9.0163740234375,-3.004048545235395,11.159712960684299,-4.023692913518846
1667776295539425000,9.026425048828125,-1.422893452757597,10.841113459491728,-9.661076576939225
1667776295549476900,9.036476806640625,-0.6463818412721156,10.118360326200722,-12.554113309407233
1667776295559528000,9.04652783203125,-0.8724550344586371,7.589148722574114,-10.49243212376833
1667776295569579000,9.0565791015625,-0.7710173249181359,5.492883130288123,-7.289121235382557
1667776295579629800,9.0666298828125,-0.5610661952972412,4.526956615927815,-5.582126763361692
1667776295589681000,9.076680908203125,-0.31428456060290333,4.065857107770443,-4.481713452622294
1667776295599732000,9.08673193359375,-0.2273557803429663,3.743312668344378,-3.571176817050576
1667776295609783800,9.09678369140625,-1.5198270558118818,3.4865573366463183,-2.6936744360744953
1667776295619835000,9.1068349609375,-3.5857998011648653,3.04661810541749,-2.1061454735264182
1667776295629886000,9.116885986328125,-5.220051693058013,2.477755557155609,-1.841866760586202
1667776295639937000,9.12693701171875,-6.093239717966318,1.7395383127510546,-1.957301358231902
1667776295649988000,9.136988037109376,-6.546317832231521,0.8564110776305198,-1.9804455024540424
1667776295660040200,9.147040283203125,-6.791863787651062,0.28653379936814305,-1.7056532865449785
1667776295670091300,9.15709130859375,-7.118873389792442,-0.1443313140451908,-1.4615052152246235
1667776295680142000,9.16714208984375,-7.174801028719544,-0.5662386294990778,-1.4200865786433219
1667776295690193200,9.177193115234376,-6.225138835939765,-1.5187755009323358,-1.468279823926091
1667776295700244200,9.187244140625,-5.534892718499899,-2.9786861404418943,-0.9987520215760916
1667776295710296000,9.197296142578125,-6.279524506121874,-4.860419924253225,-0.27426229201713576
1667776295720347100,9.20734716796875,-6.922410321971774,-6.71090750592947,0.11113664472345262
1667776295730398200,9.217398193359376,-6.9732052741855375,-7.757102319747209,-0.030204839855991303
1667776295740449300,9.22744921875,-6.825667857575416,-8.24675747578144,-0.369157429780066
1667776295750500000,9.2375,-6.560874765372276,-8.728608095544576,-0.1295084234446287
1667776295760552200,9.24755224609375,-6.338648895263671,-9.362188322910665,0.17092121480703354
1667776295770603300,9.257603271484374,-6.082929920876026,-9.776695006719232,0.193238845077157
1667776295780654000,9.267654052734375,-5.550986944210529,-9.775231948429346,0.06498685143440962
1667776295790705200,9.277705078125,-4.6204491386175155,-9.673942488253116,0.41048283511996264
1667776295800756200,9.287756103515624,-3.654091247102618,-9.646574588856101,0.6956473919615149
1667776295810807300,9.297807373046876,-2.8513357718139885,-9.212758224421739,0.8394163959488272
1667776295820859100,9.307859130859375,-1.6612293306678532,-8.007446030837297,1.2402775623731315
1667776295830910200,9.31791015625,0.29061843833327294,-5.802682069909572,1.642620784048736
1667776295840961300,9.327961181640624,3.367542542426288,-2.18287770781219,2.124082989016175
1667776295851012400,9.338012451171876,9.409469714045525,3.353105144011974,3.540108894091844
1667776295861063200,9.348063232421875,18.12966420150995,10.882485918843745,4.618533952645957
1667776295871115300,9.358115234375,14.437937343496083,17.4625750877738,1.121903842535615
1667776295881166300,9.368166259765625,5.7133905060410495,16.6764293865025,-0.6795344615504145
1667776295891217200,9.378217041015626,5.904276065990328,9.176597362238168,-1.739778258986771
1667776295901268200,9.388268310546875,4.420439776492119,2.138978944852948,-1.9606965536281464
1667776295911319300,9.3983193359375,-0.806363144391775,-3.135758862638473,-1.9297657010525464
1667776295921371100,9.40837109375,-5.6342088327765465,-7.399218271392583,-1.9294722710639238
1667776295931422200,9.418422119140626,-9.251197552931309,-11.04126310687065,-1.411729669186473
1667776295941473300,9.428473388671875,-10.337496413600444,-13.215408642172813,-1.7366387919172643
1667776295951524400,9.4385244140625,-8.7493784963727,-13.153304360437392,-3.2566163621157407
1667776295961575200,9.4485751953125,-6.484622715818881,-9.726154321527481,-5.3520192000925535
1667776295971627300,9.458627197265624,-5.2242181650876995,-3.783088213893771,-5.38328410692811
1667776295981678300,9.46867822265625,2.37070636440888,4.823156653785706,-4.450461113007367
1667776295991729200,9.478729248046875,17.768967433822155,21.074576667165754,-2.282058505271375
1667776296001780200,9.4887802734375,-2.054194629275799,24.866040495216843,1.5627219024255872
1667776296011831300,9.498831298828126,-5.430442163944244,15.900307066595554,4.181967412720621
1667776296021883100,9.508883056640625,-3.940629138123989,5.128352483525872,3.835315829259157
1667776296031934200,9.518934326171875,-4.2413644813239575,-1.707034219509363,2.289923539558053
1667776296041985300,9.5289853515625,-4.167208527266979,-5.217493825268745,1.0762751139786093
1667776296052036400,9.539036376953124,-4.0238545338213445,-7.065193237531185,0.6074865856885909
1667776296062087200,9.549087158203125,-3.7571512240827083,-7.936267631286382,0.460376746840775
1667776296072139300,9.55913916015625,-3.8759646505117415,-7.7076786558866495,0.6402586822167039
1667776296082190300,9.5691904296875,-4.91236989172101,-5.680499459308385,0.8708653541143984
1667776296092241400,9.579241455078124,-6.198835935425758,-2.2530232571840285,1.0482319456685334
1667776296102292000,9.5892919921875,-6.943158510968089,1.5847838043689726,1.3067124206587672
1667776296112343000,9.599343017578125,-6.52936786647439,5.141340559914708,1.1226936046738176
1667776296122394000,9.60939404296875,-5.203588634034991,8.327429679864645,0.15051628629043698
1667776296132446200,9.6194462890625,-1.7252397382855413,10.201818361610174,-2.070943811763823
1667776296142497000,9.6294970703125,3.236507055544853,7.4619865699946875,-4.30503908111602
1667776296152548000,9.639548095703125,7.1491212285399435,3.0966555172622203,-4.694702415569126
1667776296162599200,9.64959912109375,6.438394048607349,0.487059294322133,-4.263147274065018
1667776296172650000,9.65964990234375,3.5670413246810435,-0.4741384379506111,-3.6495094722703096
1667776296182702000,9.6697021484375,1.4043266994535921,-0.44161856261789795,-2.83407162554115
1667776296192753200,9.679753173828125,0.21211364141702652,-0.08838555493950843,-2.330720829370618
1667776296202804000,9.689803955078125,0.17429755937233565,0.2964098812162876,-1.7758368298396467
1667776296212855000,9.69985498046875,1.009673009367287,0.6760071642071008,-0.5070202784635126
1667776296222906000,9.709906005859375,1.6881263976827263,1.2737328188598156,1.411511788652092
1667776296232958000,9.7199580078125,2.287257827480137,1.7321283287554978,3.031858343181014
1667776296243009000,9.730009033203125,3.2656247212186456,1.771274344229698,4.3410418301284315
1667776296253060000,9.74006005859375,4.067060346080362,1.6628776823967695,5.474539664345979
1667776296263111200,9.750111083984375,4.497318725772201,1.8634955318093298,6.095225338825583
1667776296273162200,9.760162353515625,4.952437113693356,2.083353503742814,5.9143152294456955
1667776296283214000,9.770214111328125,5.813554177057743,2.0730296781271695,4.968054954063892
1667776296293265200,9.78026513671875,6.76577482214868,2.063615953093767,3.7214565181061623
1667776296303316200,9.790316162109375,7.323985628014802,1.864332567155361,2.745016793037951
1667776296313367000,9.800366943359375,7.3377353364259,1.1218845533132553,1.809777385625243
1667776296323418000,9.810418212890625,6.260392520150542,0.03925941272079944,1.0710443006530403
1667776296333469200,9.82046923828125,4.145766510787606,-0.9401075979709624,0.6654319941788911
1667776296343521000,9.83052099609375,2.569631876820326,-1.7963082477211951,0.6286769654944538
1667776296353572000,9.840572021484375,2.956774460624158,-2.285745961612463,1.178929067441076
1667776296363623200,9.850623046875,4.9064311493217945,-2.0543770001053807,1.9687961273230612
1667776296373674200,9.86067431640625,6.9736635393470525,-1.3259107498645781,2.599074828925729
1667776296383725000,9.87072509765625,8.407270693820715,-0.6046078153818846,3.099407446318865
1667776296393777200,9.880777099609375,8.827647146445512,-0.18545009089708328,3.600640227422118
1667776296403828200,9.890828125,7.37904525193572,-0.003807575589418411,3.8902991730734704
1667776296413879000,9.900879150390624,5.279727870863676,-0.06447802512943744,4.2603462451696394
1667776296423930000,9.91093017578125,3.9214369463980194,-0.07100070489645004,5.12955016887784
1667776296433981200,9.920981201171875,2.7137173994109034,0.44946635350883,6.56810354758203
1667776296444033000,9.931032958984375,2.5140625498116016,2.341535068851709,7.390151752361655
1667776296454084000,9.941083984375,3.02781871240139,4.948628953582048,7.293036947521567
1667776296464135200,9.95113525390625,2.5814544165611264,6.575937894469499,7.061421902298927
1667776296474186200,9.961186279296875,1.4067723390400408,6.4875616918802255,5.6116018641710275
1667776296484237300,9.9712373046875,1.0669482635110616,5.963900805869698,4.135234887640178
1667776296494289200,9.9812890625,1.632490873569995,5.775591233888268,2.899355414095521
1667776296504340200,9.99134033203125,2.0768939523398875,6.572048485815524,1.0736574057608843
1667776296514391300,10.001391357421875,1.3990497819639742,8.780124932292104,-1.4015548966526985
1667776296524442000,10.011442138671875,-0.11460647625848651,11.784534127533435,-4.009398722967505
1667776296534493200,10.0214931640625,-1.313016196978092,14.023505478489398,-6.2980976891666645
1667776296544545300,10.031545166015626,-1.8571926322728394,14.23312905665636,-8.072989639371633
1667776296554596000,10.04159619140625,-1.5120716193795203,12.400538366198539,-9.159367995017766
1667776296564647200,10.051647216796875,-0.37897359813451764,8.689075126579404,-9.6160830044806
1667776296574698200,10.0616982421875,0.10973455937318503,5.103144977033138,-9.812257903009652
1667776296584749300,10.071749267578125,0.2368353371541947,3.2827059121400115,-9.136238463842869
1667776296594801200,10.08180126953125,0.589401478421688,3.017268092292547,-7.942098821657895
1667776296604852200,10.091852294921875,0.19275179221257566,3.6444349454849956,-6.666570936074852
1667776296614903300,10.1019033203125,-1.2989635600976646,4.3272991359800095,-4.941474405652285
1667776296624954000,10.1119541015625,-2.526525725543499,4.925789345264435,-2.8710657236784694
1667776296635005200,10.122005126953125,-3.217584912931919,5.282075895294547,-0.4058694961056113
1667776296645057300,10.132057373046875,-3.6298245285913344,5.147706003293394,1.7046940861240027
1667776296655108000,10.142108154296874,-4.762185759994387,4.1241164045155045,1.8020711951620876
1667776296665159200,10.1521591796875,-6.560477290487289,2.0448861181825397,1.686075310371816
1667776296675210200,10.162210205078125,-7.546011591637134,-0.1265022273659706,1.9528095997706054
1667776296685261300,10.17226123046875,-8.122503319603204,-1.9470564430713653,2.0392393444672225
1667776296695312400,10.1823125,-8.097689780864119,-3.365931307837367,2.516082949723303
1667776296705364200,10.1923642578125,-7.86592392899394,-4.870702833336591,2.5330890295818445
1667776296715415300,10.202415283203125,-7.927031600907444,-6.320344007766247,2.1379183298841116
1667776296725466400,10.21246630859375,-8.0796169485569,-8.095477365511655,1.8894173240512608
1667776296735517200,10.22251708984375,-8.291810084950923,-10.184867226809263,1.4732459219008682
1667776296745568300,10.232568359375,-8.298556636601687,-12.387546782678365,0.6775783590465784
1667776296755620400,10.242620361328125,-8.38650204655826,-14.248954402297734,0.3814668762549758
1667776296765671200,10.252671142578125,-8.46899445180595,-15.279149682950973,1.1448737992346285
1667776296775722200,10.26272216796875,-8.923898027932644,-16.0565030059576,1.4400892099693416
1667776296785773300,10.272773193359376,-9.682089554351567,-16.2630414775908,0.11270714544318616
1667776296795824400,10.282824462890625,-9.232240339004992,-14.999976183217763,-0.2292675687810406
1667776296805876200,10.292876220703125,-7.8422274115860455,-13.701457298147677,0.9128813720669597
1667776296815927300,10.30292724609375,-5.4883139226764435,-12.896086671924591,0.9945673563025891
1667776296825978400,10.312978271484376,-1.4447469726473092,-11.899479188096523,0.522730473292619
1667776296836029000,10.32302880859375,6.6753358418107025,-9.290673823273181,0.7077822855871171
1667776296846080000,10.333080078125,30.340894632339477,-1.0064040706992148,5.177411990249157
1667776296856132400,10.34313232421875,35.635222690963744,11.34063417598009,4.18299383315891
1667776296866183200,10.35318310546875,17.021377965438365,19.81730749185085,-4.545799848085641
1667776296876234000,10.36323388671875,1.7427680884525178,22.215020959520338,-0.3495028447067365
1667776296886285000,10.37328515625,1.8940072821900247,15.299322702407837,4.277532942292094
1667776296896336100,10.383336181640624,3.5320457068845625,4.942808869126439,2.6054665757894515
1667776296906388200,10.39338818359375,-2.8782608958795666,-2.101628580623865,-1.263974225911498
1667776296916439000,10.40343896484375,-10.928160459303855,-3.8037475555628535,-4.453406811070442
1667776296926490000,10.413489990234375,-16.809499301820992,-1.2509130842864513,-8.486853349101542
1667776296936541200,10.423541259765624,-17.370992198097706,1.8074737848579883,-11.193517030608653
1667776296946592000,10.433592041015626,-8.130023778235913,3.5690853977292774,-13.565713779705762
1667776296956644000,10.44364404296875,11.583194393587112,4.128758677363395,-14.273611873692273
1667776296966695200,10.453695068359375,5.860647936666012,3.4376807852745053,-5.625206611153483
1667776296976746000,10.46374609375,-11.675651728010177,2.2192630264014004,1.0194675504118202
1667776296986797000,10.473797119140626,-13.348084589737653,0.501888030141592,4.000891591385007
1667776296996848000,10.48384814453125,-13.868359340441225,-1.0120505521535872,4.479207022759318
1667776297006899200,10.493899169921875,-15.292977132773398,-1.7404408145487307,5.192331911483406
1667776297016951000,10.503950927734374,-15.713166538393496,-0.8879466181010007,4.748190260128677
1667776297027002000,10.514002197265626,-13.846783468449114,2.02666423279345,3.8534520821914073
1667776297037053200,10.52405322265625,-9.362726667571067,5.853327969041467,2.409607903602719
1667776297047104000,10.53410400390625,-4.126065200495719,9.312757060265541,0.4547981064582243
1667776297057155000,10.544155029296874,3.883822962796688,11.733161667692661,-0.14986147564351557
1667776297067207200,10.554207275390626,6.515576657009125,10.277697486197948,-1.120920968978107
1667776297077258000,10.564258056640625,4.1160581857442855,5.514118810540437,-1.3830097706586122
1667776297087309000,10.57430908203125,1.0120925646644086,2.006757755318284,-0.13372191295381636
1667776297097360100,10.584360107421874,-1.8652467593908308,-0.10068448002040385,-0.35218141626622523
1667776297107411200,10.5944111328125,-2.9701193876266476,-1.5983108099400996,-1.7120134692266582
1667776297117463000,10.604463134765625,-2.5902070473372936,-2.6890415155768395,-2.568195414276421
1667776297127514000,10.61451416015625,-1.7751707671463488,-2.9026410116374493,-2.6582518250375986
1667776297137565200,10.624565185546874,-1.1123626917302607,-2.4067536832153795,-2.620818166439235
1667776297147616300,10.6346162109375,-0.4266829323578626,-1.064496778705716,-2.744093832974136
1667776297157667000,10.6446669921875,1.1052058787781744,0.3390735494226217,-2.7507819324359297
1667776297167719200,10.65471923828125,2.8738895489275453,1.3426865280985831,-2.003558667016029
1667776297177770200,10.664770263671874,3.1534763056367634,1.8987918861180544,-0.4467406914046034
1667776297187821000,10.674821044921876,2.5832068131864068,2.062737416693568,1.2640364774927497
1667776297197872000,10.6848720703125,2.4014761812038716,1.637842609861493,2.8631451598122712
1667776297207923200,10.694923095703125,2.366600098133832,0.9435346498101949,3.828890764647722
1667776297217975000,10.70497509765625,2.5410394040644166,0.08203297104239464,4.124762008942663
1667776297228026000,10.715026123046876,2.511952425789833,-1.0441022254526615,4.170501139071583
1667776297238077200,10.7250771484375,2.437373424015194,-2.1072475895494223,3.9431946046978235
1667776297248128300,10.735128173828125,3.1819770084559917,-2.9137936892926692,3.242899971452355
1667776297258179000,10.745178955078124,4.813329671776295,-3.041253948035836,2.2276330876007675
1667776297268231200,10.755231201171876,6.362409710079431,-2.6318191606640813,1.6060422809749841
1667776297278282200,10.7652822265625,6.2975219351053235,-2.1698890469014644,1.356290106037259
1667776297288333000,10.7753330078125,4.391846426953375,-1.9293986213058232,1.1356762011699377
1667776297298384100,10.785384033203124,1.8513989974327385,-2.2659031970232726,1.0876059246797114
1667776297308435200,10.795435302734376,-0.6356944430410861,-2.9419968704700468,1.2211512754902243
1667776297318486300,10.805486328125,-2.4799890152961015,-3.387333576828241,1.4928902413085101
1667776297328538000,10.8155380859375,-2.94560863122642,-2.9252088172763586,1.676019488042593
1667776297338589200,10.825589111328124,-1.6188319121822714,-2.213972518777847,1.667569785735756
1667776297348640300,10.83564013671875,1.3784104601696132,-1.0796838264435529,1.5041418492935597
1667776297358691300,10.84569140625,4.563415876536071,0.9057920713931321,1.7126761709190903
1667776297368742100,10.8557421875,6.171649822336435,3.8013060076296328,0.6216746855169535
1667776297378794200,10.865794189453124,5.919004264044761,5.362607814124226,-0.34352073808982964
1667776297388845300,10.87584521484375,5.332143117755651,4.717671495485305,0.3648733227200806
1667776297398896000,10.885896240234375,4.669818441942334,3.569002395620942,2.0534712834373114
1667776297408947200,10.895947265625,4.229088644857704,2.945262009745836,3.828626560753584
1667776297418998300,10.905998291015624,4.1607121509850025,3.222546334731579,4.9556630900025365
1667776297429050000,10.916050048828126,4.442473913645744,4.2088884451329704,5.572611916041374
1667776297439101200,10.92610107421875,4.468504134698212,5.227670935890078,5.984874620315432
1667776297449152300,10.93615234375,3.9851328812390565,5.656509511911869,6.195588916328549
1667776297459203300,10.946203369140624,3.65252063678503,5.118489261159301,5.420111324065924
1667776297469254100,10.956254150390626,4.647204459074139,4.003050815245509,3.6504870851308104
1667776297479306200,10.96630615234375,7.164374911773204,3.2102503322601317,1.74573409865126
1667776297489357300,10.976357421875,9.388348600083589,3.077323624804616,0.9490246255286038
1667776297499408100,10.986408203125,10.174107347863911,2.848579751104116,0.9896453897304832
1667776297509459200,10.996459228515626,9.000552813068031,2.705519772168994,1.5168715670071542
1667776297519510300,11.00651025390625,6.1980865783631796,2.6901509381234643,2.1568137306205926
1667776297529562000,11.01656201171875,3.812098035278916,2.7451906883001325,1.8285063437536357
1667776297539613200,11.02661328125,1.962273301425576,3.587925122755766,0.9450485615044831
1667776297549664300,11.036664306640626,-0.2640484113156795,4.815721535348892,-0.42313598046600814
1667776297559715300,11.04671533203125,-2.6417817517518998,5.92381838632822,-2.2110174683645365
1667776297569766400,11.056766357421875,-4.407837484550476,6.950553297394514,-3.5811271331787107
1667776297579818200,11.066818359375,-5.464720865643024,8.073844210374356,-4.569387936682999
1667776297589869300,11.076869384765626,-5.842004026472568,8.83500043181777,-5.744407575595378
1667776297599920400,11.08692041015625,-5.6456187000632285,8.362624911886453,-6.567718347656727
1667776297609971200,11.09697119140625,-5.167256506937742,7.036174648317695,-6.77079177352786
1667776297620022000,11.10702197265625,-4.3759260965049265,6.1352469680905335,-6.208023450487851
1667776297630074400,11.117074462890624,-3.4936078396797177,5.741307271492481,-4.561120751336217
1667776297640125200,11.127125244140625,-2.9373873308479785,5.974263794451952,-2.0605472131729123
1667776297650176300,11.13717626953125,-1.3473695713482796,7.244537412768602,1.2629922291368245
1667776297660227000,11.14722705078125,2.3142215299904345,9.566657002532482,4.702977784222364
1667776297670278100,11.157278076171876,3.4688472001716493,11.592379570561647,6.5165855417907235
1667776297680330200,11.167330322265625,-0.54673576438874,11.916501634567975,5.092172332119941
1667776297690381300,11.17738134765625,-4.409811999493837,10.140325489771365,2.835566248013079
1667776297700432100,11.18743212890625,-6.277589738667011,7.337690328240394,0.5906118040595203
1667776297710483200,11.197483154296876,-7.259319971358775,4.372407859250903,-1.144535653321445
1667776297720534000,11.207533935546875,-7.881414928114414,1.7666051833748817,-1.6655816806584596
1667776297730585000,11.217585205078125,-8.416351241376995,-0.7178168459326029,-2.6320044541031122
1667776297740637200,11.22763720703125,-8.82559839722216,-3.166019560867548,-3.406562593433261
1667776297750688000,11.23768798828125,-9.144475546312332,-5.386497808277607,-3.208763308572769
1667776297760739000,11.247739013671875,-9.516721882018446,-7.029160970163345,-2.13691894358322
1667776297770790100,11.2577900390625,-9.398276704379915,-8.469501232284307,-1.4811452968485652
1667776297780841200,11.26784130859375,-8.838554324907063,-10.12190837407112,-1.504353007826209
1667776297790893000,11.27789306640625,-8.142347837758063,-11.848055290329455,-1.0848077453285454
1667776297800944000,11.287944091796875,-7.906327251052856,-13.368784847939013,-1.3036848895311355
1667776297810995200,11.2979951171875,-7.476154211556911,-14.732425316739082,-2.098226955486834
1667776297821046000,11.3080458984375,-6.896023250305652,-15.834094765019415,-2.1554696225352585
1667776297831097000,11.31809716796875,-6.318125162672996,-16.75273053589463,-2.151571299922466
1667776297841149200,11.328149169921875,-6.172333712947368,-17.794575337809324,-3.033435967761278
1667776297851200000,11.338199951171875,-6.472589163675904,-18.285571387058496,-4.634589892172813
1667776297861251000,11.3482509765625,-5.528074855178594,-17.39002539986968,-4.677158867833018
1667776297871302100,11.35830224609375,-3.6046900873348116,-15.560550211083887,-3.890446764850616
1667776297881353200,11.368353271484375,-1.5883794907733797,-13.001136945939063,-2.8834900287047027
1667776297891405000,11.378405029296875,1.4549755211949347,-10.014461560308932,-1.733750376999378
1667776297901456100,11.3884560546875,7.2579556972682475,-6.140485453265905,0.6982894309028983
1667776297911507200,11.398507080078126,25.83684016857147,0.7309598206222057,5.350175618052482
1667776297921558000,11.40855810546875,33.609061731517315,9.791590378034114,2.08016230648607
1667776297931609000,11.418609130859375,20.320686052811144,13.523584949028491,-3.013372253897786
1667776297941661200,11.4286611328125,4.311326198561489,14.493659815239905,-3.3205914061591026
1667776297951712300,11.438712158203124,-11.33481467604637,13.506865284895897,-4.622228130988776
1667776297961763000,11.44876318359375,-16.295759505844114,14.62017373304367,-5.4625218942940235
1667776297971814100,11.458814208984375,-15.817468624389171,16.174520313572884,-4.210542642080783
1667776297981865200,11.468865234375,-15.240903246665,17.4962517319262,-4.73847696762681
1667776297991917000,11.4789169921875,-10.033668949604033,10.551658219718933,-3.8859295796871183
1667776298001968000,11.488968017578125,-8.121288098594546,0.20306231995522975,-1.600062183652073
1667776298012019200,11.499019287109375,-11.041534325027465,-3.761463242062926,-0.7057844628334045
1667776298022070300,11.5090703125,-13.471854761791228,-5.313907788363099,0.4012748617917299
1667776298032121000,11.51912109375,-13.91613348352909,-5.854799795159697,0.37179325817637143
1667776298042172200,11.529172119140625,-13.65782975334525,-6.062918229460716,-0.7879132954657078
1667776298052224300,11.539224365234375,-13.16528238300085,-3.9178760390460488,-3.0391704197600484
1667776298062275000,11.549275146484375,-9.529661443090438,1.3474439517587422,-5.208631304377317
1667776298072326100,11.559326171875,-1.1548306912340223,8.364932019785046,-7.206891280463338
1667776298082377200,11.569377197265625,6.845407161790132,14.817096819591521,-5.698285291367769
1667776298092428300,11.57942822265625,1.8555097937524319,12.768476191055774,2.349930264492333
1667776298102480100,11.589480224609375,-1.6180664807677267,8.391085867217182,3.923478096836805
1667776298112531200,11.59953125,-2.3166928885400293,5.1910301812350745,2.5232456809595227
1667776298122582300,11.609582275390625,-3.3793338102459907,2.557895261797309,0.7139943650349975
1667776298132633000,11.619633056640625,-3.9363714806795116,1.2680249626070261,-1.3622966529756784
1667776298142684200,11.62968408203125,-3.321991043823957,0.991062124660611,-2.8202684333771466
1667776298152736300,11.639736328125,-1.966829649555683,1.545560632005334,-3.0472935204610225
1667776298162787000,11.649787109375,-0.29175825601816174,2.317835044312477,-2.2105437133729455
1667776298172838100,11.659838134765625,2.4208482595413923,3.24292861302495,-1.6068120963037014
1667776298182889200,11.66988916015625,5.418254882544279,4.501781842660904,-1.3182055823147296
1667776298192940300,11.679940185546876,6.04707651720643,4.904411626192927,-0.38181115964800116
1667776298202992000,11.6899921875,4.881276249799132,3.8312054713308807,1.8478823676139116
1667776298213043200,11.700043212890625,3.573579202017188,2.045869868522882,3.7738083443731067
1667776298223094300,11.71009423828125,2.1171914759367705,0.13938742790222167,4.9103532912015915
1667776298233145300,11.720145263671874,1.124868099168688,-1.673986520910263,5.889918454813957
1667776298243196200,11.730196044921875,1.0609576447941362,-3.6674814745515585,5.506029612109065
1667776298253248300,11.740248291015625,1.8308640127956866,-5.55833204627633,3.703258305853605
1667776298263299300,11.75029931640625,3.062100921231508,-7.145887068924307,1.72076639226377
1667776298273350100,11.76035009765625,4.0686218963086604,-7.689675381684303,0.4001274453222751
1667776298283401200,11.770401123046875,4.378807497160136,-7.003426809448003,-0.521867499787733
1667776298293452300,11.780452392578125,4.516072233819961,-5.869222872787714,-1.6933929399088024
1667776298303504100,11.790504150390625,4.421230634608865,-5.0040685167312615,-2.066706612585485
1667776298313555200,11.80055517578125,4.458939895278215,-4.187051876378059,-0.7822127457365393
1667776298323606300,11.810606201171876,4.4836508504256605,-2.9071289707064625,0.7000649892080575
1667776298333657300,11.8206572265625,5.027639946454763,-1.3775900836974382,1.3392220668584107
1667776298343708200,11.830708251953125,5.949354394122958,0.5804711529910564,1.0412503431528806
1667776298353760300,11.84076025390625,6.199015968167782,2.836629785591364,0.1979286103285849
1667776298363811300,11.850811279296876,6.4452048976659775,4.622847431930899,0.009436229126155375
1667776298373862100,11.860862060546875,6.803208188486098,5.797397992026806,1.0196662878543137
1667776298383913200,11.870913330078125,6.278876855868101,6.463701508343219,2.68360400069803
1667776298393964000,11.880964111328124,5.855712818351388,6.0548962510466575,4.771695054356753
1667776298404015000,11.89101513671875,6.153557700806855,5.633968009757996,7.263223408538103
1667776298414067200,11.901067138671875,6.2670361959487195,5.832275828662515,9.481061370572448
1667776298424118300,11.9111181640625,6.444767675292492,5.923591591835022,10.687485909312963
1667776298434169000,11.921169189453124,6.57914458155632,5.7094046512752765,10.165880786788463
1667776298444220200,11.93122021484375,5.946089839369058,5.2423517876714465,8.550508367410302
1667776298454271000,11.94127099609375,4.4634372066974635,5.223556486308574,6.685238811665773
1667776298464323300,11.9513232421875,2.7224399273097513,5.407538842740655,5.450457947012782
1667776298474374100,11.9613740234375,0.745182553372532,5.332237225779891,3.9101147573947905
1667776298484425000,11.971425048828126,-1.7716747417241334,5.746390858367085,1.8625054978586733
1667776298494476000,11.98147607421875,-4.725937804049253,6.976591994014382,-0.4196555910043418
1667776298504527000,11.991527099609375,-5.909995612680912,8.195476201355456,-3.4238644413679835
1667776298514579000,12.001578857421874,-5.610033007419109,9.196856306412815,-6.8164160451054565
1667776298524630000,12.011630126953126,-4.644400507569313,9.448160386967658,-9.361288159200548
1667776298534681000,12.02168115234375,-2.8812241295993326,8.958105417960882,-9.525007479804753
1667776298544732200,12.031732177734375,-1.527859555619955,7.305296709635853,-7.38864894658327
1667776298554783200,12.041783203125,-0.28424598069190976,5.3606198551774025,-5.436553924822807
1667776298564835000,12.0518349609375,1.0214193420667201,3.977561569201946,-3.8446938984572885
1667776298574886100,12.06188623046875,1.6574387062132359,3.2885710047811267,-2.509177408118546
1667776298584937200,12.071937255859375,0.7925367174826562,3.3908132356375456,-2.004502669867873
1667776298594988000,12.081988037109374,-1.1431821928858756,3.8589574016094206,-1.7147078228771686
1667776298605039000,12.0920390625,-3.146775931215286,4.229893239238858,-1.1259589631453155
1667776298615091200,12.10209130859375,-5.069176071935892,4.544687502929568,-0.26468961356235665
1667776298625142000,12.11214208984375,-5.998751754498481,4.250820876455307,0.17902679811762645
1667776298635193000,12.122193115234374,-6.370424674230813,3.4450141969025134,0.3769879772752523
1667776298645244200,12.132244140625,-6.819084387531876,2.627648012459278,0.7972413880422711
1667776298655295500,12.14229541015625,-7.178178980720043,1.6713310379654167,0.7586930462002753
1667776298665347600,12.15234765625,-7.784139964276552,0.2719055545568466,0.12369126159846781
1667776298675398400,12.1623984375,-8.179425230264663,-1.7243348984003066,-0.34935324363559483
1667776298685449500,12.172449462890626,-7.565711148363351,-4.237658612543345,-0.7618310519650578
1667776298695500300,12.182500244140625,-6.455777729606628,-6.387762762522697,-0.5353957474678754
1667776298705551400,12.19255126953125,-6.006677871322632,-7.602149073922634,0.14507365684509277
1667776298715603500,12.202603515625,-6.404342141401767,-8.606108674079179,-0.1544333136036992
1667776298725654300,12.212654296875,-6.825290256434679,-9.68404594911635,-0.7576061277464031
1667776298735705300,12.222705322265625,-6.725948423194885,-10.937309395921229,-1.29823071577847
1667776298745756400,12.23275634765625,-6.6916241287887095,-12.521812629783152,-1.628870198854804
1667776298755807500,12.242807373046874,-6.337690279364585,-14.2937416385293,-1.4993053690478204
1667776298765859300,12.252859375,-5.642913532757759,-16.054073732984065,-1.4843480384126304
1667776298775910400,12.262910400390625,-4.806055296859145,-17.520115422594547,-1.6042399077281355
1667776298785961500,12.27296142578125,-3.74998615475893,-18.10361673706174,-0.6461299123376607
1667776298796012300,12.28301220703125,-2.662598037548363,-16.918782683360575,0.6271756940860301
1667776298806063400,12.2930634765625,-0.34071780949831004,-13.55290222892761,1.482780350704491
1667776298816114400,12.303114501953125,5.112663331484795,-8.752965122687817,4.401165167179704
1667776298826166300,12.313166259765625,18.919874668002127,-2.180848247811198,7.904237000775336
1667776298836217300,12.32321728515625,32.25068663589954,6.556582036614418,8.777043917411564
1667776298846268400,12.333268310546876,19.958013601136205,12.573402531766892,4.143554679957032
1667776298856319500,12.343319580078125,7.17335433704257,14.987419483983516,1.2325588046893476
1667776298866370600,12.35337060546875,-6.104047527706623,10.8117003180027,0.799813284356892
1667776298876422400,12.36342236328125,-13.352726862585543,5.298021652445197,-3.2493434485033155
1667776298886473500,12.373473388671876,-15.475266129291057,7.738447888159752,-8.090902897202968
1667776298896524500,12.383524658203125,-18.891925169324875,12.62927931728959,-9.813169757157564
1667776298906575400,12.393575439453125,-10.85901502688527,12.713105601489543,-11.714874315851926
1667776298916626400,12.40362646484375,0.9347887410357594,4.509241511017084,-11.017575941812991
1667776298926678500,12.413678466796876,-4.023059584051371,-3.5289468640863895,-5.562139621865749
1667776298936729300,12.423729248046875,-11.18841298546791,-4.839814358597994,-0.6908829540386796
1667776298946780400,12.433780517578125,-14.213241283881663,-5.032292740696668,2.125880686087906
1667776298956831500,12.44383154296875,-15.258560483908653,-4.357258805435896,2.567292327956855
1667776298966882600,12.453882568359376,-16.60403518142104,-3.7940053292274474,1.2066525022774934
1667776298976934400,12.463934326171875,-16.528815397524834,-1.7951088088035583,-1.022642088794708
1667776298986985500,12.4739853515625,-13.03115331401825,3.52206411883533,-3.376260978671908
1667776298997036500,12.48403662109375,-7.549758376950025,10.345496180182694,-5.150422276514768
1667776299007087400,12.49408740234375,-0.965399860137701,15.882806481218337,-4.754368364241719
1667776299017138400,12.504138427734375,7.199864742827415,18.453379438281058,-0.3354068436086178
1667776299027190500,12.5141904296875,2.5756419308900833,12.959668624997137,3.3339830949127673
1667776299037241300,12.524241455078124,0.5077075300753117,7.280001524859666,3.102382954998314
1667776299047292400,12.53429248046875,-0.894559314239025,3.8320273091077803,2.2823522275209425
1667776299057343500,12.544343505859375,-0.310752879345417,1.8354384811043738,0.8925418369367718
1667776299067394600,12.55439453125,1.4480378308862447,0.7306792501151561,-0.23667642026543617
1667776299077446400,12.5644462890625,2.9304163227915763,0.4759095392763614,-0.3120268448039889
1667776299087497500,12.57449755859375,4.0217420717120165,0.6209188987135886,0.37832273301035163
1667776299097548500,12.584548583984375,5.135967050182819,0.8472656481444835,0.2720657866198569
1667776299107599600,12.594599609375,6.204561911857128,1.0717056871712207,-0.489306780987978
1667776299117650400,12.604650390625,6.541455779153108,1.0281786801338195,-0.9600979543372988
1667776299127701500,12.614701416015626,6.280964768058062,0.5367220276355743,-0.8923319935783743
1667776299137753600,12.624753662109375,5.435562575697898,-0.18353052101135253,0.39719343769699333
1667776299147804400,12.634804443359375,4.342896225823462,-0.7821616000711917,2.4653882430136203
1667776299157855500,12.64485546875,3.4497897407412528,-1.6453075389146803,4.196517331598699
1667776299167906600,12.654906494140626,3.063546443864703,-2.851701682516932,4.784804419037699
1667776299177958400,12.66495849609375,3.0662428433418274,-4.283361210054159,4.117923979616165
1667776299188009500,12.675009521484375,3.8848324321001764,-5.775599417194724,2.538940093697607
