time,seconds_elapsed,z,y,x
1667776286533559600,0.0205595703125,-9.732558927872777,-1.1619662422023713,0.3122835595114156
1667776286543610600,0.030610595703125,-9.73051836195588,-1.1750736341219394,0.32650114116258916
1667776286553661700,0.04066162109375,-9.729002112174033,-1.184471796260029,0.337529680981487
1667776286563712500,0.05071240234375,-9.72824281823933,-1.1891686488393693,0.3428572326797992
1667776286573763600,0.060763671875,-9.728357384529708,-1.1887122833739965,0.3411922951422632
1667776286583815700,0.070815673828125,-9.729147658124566,-1.183788051779568,0.33573885204195975
1667776286593866500,0.080866455078125,-9.730296243637799,-1.175900732595846,0.33012152361683544
1667776286603917600,0.09091748046875,-9.731394560268521,-1.1675911694120615,0.3272241582075134
1667776286613968600,0.10096875,-9.732165544641017,-1.1606406926870345,0.3290140372989699
1667776286624019700,0.111019775390625,-9.732435009232162,-1.1566294842842966,0.33511640929467973
1667776286634070500,0.121070556640625,-9.73199369520545,-1.1575042943574487,0.3447638700187206
1667776286644123400,0.131123291015625,-9.730696056610345,-1.1650140854656696,0.35591819164175537
1667776286654174200,0.14117431640625,-9.728820910388231,-1.1775734881136566,0.36571371906697747
1667776286664225300,0.151225341796875,-9.726801971781253,-1.191887040952593,0.3729744307849556
1667776286674276400,0.1612763671875,-9.724824534228443,-1.2062461864989251,0.37834264328721906
1667776286684327400,0.171327392578125,-9.723121821963787,-1.2191432966686784,0.38075814346373077
1667776286694378500,0.18137841796875,-9.72190075573623,-1.2290823607504366,0.379976016642712
1667776286704430300,0.191430419921875,-9.721222125822305,-1.2353091263107954,0.3771355690523982
1667776286714481400,0.2014814453125,-9.720994746807216,-1.2375231490984557,0.3757455759987235
1667776286724532500,0.211532470703125,-9.72110054526925,-1.2367355058521032,0.3756039025057107
1667776286734583300,0.221583251953125,-9.721465871450304,-1.233812750273198,0.3757583624150604
1667776286744634400,0.23163427734375,-9.72212638118565,-1.2293294673793018,0.37335060715358703
1667776286754686500,0.2416865234375,-9.722959324878454,-1.224545886364579,0.3673257573734969
1667776286764737300,0.2517373046875,-9.723791099527478,-1.2206293705079705,0.3582426160013303
1667776286774788400,0.261788330078125,-9.72468307993114,-1.2169776430673898,0.3462481902923435
1667776286784839400,0.27183935546875,-9.72589362476468,-1.2105782243538648,0.3344820569138974
1667776286794890500,0.281890380859375,-9.727357267576455,-1.201628171309456,0.3240370526039973
1667776286804941000,0.291941162109375,-9.72880395925343,-1.192653714476153,0.3135759008768946
1667776286814993400,0.301993408203125,-9.73003262426555,-1.1852829665124416,0.3032482941352762
1667776286825044500,0.31204443359375,-9.73111457428336,-1.1786374640833586,0.2942965605904348
1667776286835095300,0.32209521484375,-9.732120536455511,-1.1718597866419702,0.2880170419295318
1667776286845146000,0.33214599609375,-9.73294471231997,-1.1661871478330343,0.28315029440969225
1667776286855197200,0.342197265625,-9.73353917108178,-1.1626844004090875,0.27705433388845996
1667776286865249300,0.352249267578125,-9.734229491433501,-1.1595088391128927,0.2658911165729165
1667776286875300400,0.36230029296875,-9.735328977108,-1.153823121626675,0.24989978498117996
1667776286885351200,0.37235107421875,-9.736803141313791,-1.145327972742915,0.2308041672311723
1667776286895402200,0.38240234375,-9.73841116103232,-1.1355023789729923,0.2106418883640319
1667776286905453300,0.392453369140625,-9.739930333423613,-1.1256338228441773,0.1925869022407569
1667776286915504000,0.402504150390625,-9.741195238792896,-1.1168071039184928,0.17956349881021305
1667776286925556200,0.41255615234375,-9.74204279553294,-1.1102173502646386,0.1743531985497102
1667776286935607300,0.422607177734375,-9.74236077544093,-1.1069854556713252,0.1771285450145602
1667776286945658000,0.432658203125,-9.742313429167867,-1.1060453252770006,0.1853985981718637
1667776286955709200,0.442709228515625,-9.742066760930419,-1.1066055895082652,0.19478432095348833
1667776286965760300,0.45276025390625,-9.741834705740214,-1.1073027049269526,0.2022876823209226
1667776286975812000,0.46281201171875,-9.74182067721486,-1.1064192731559277,0.2077157169853337
1667776286985863200,0.47286328125,-9.742108261984587,-1.1034577199365943,0.20998758917376398
1667776286995914200,0.482914306640625,-9.742682262480258,-1.0988744837995619,0.20736412706868723
1667776287005965300,0.49296533203125,-9.74327555219829,-1.0945432496622205,0.2023285440542735
1667776287016016100,0.50301611328125,-9.743696407958865,-1.091726146414876,0.19722026112983002
1667776287026067200,0.513067138671875,-9.743905082273482,-1.090588374556601,0.19317140586413442
1667776287036119300,0.523119384765625,-9.743938984543085,-1.090479872680828,0.1920595356320962
1667776287046170000,0.533170166015625,-9.743865334784983,-1.090611901562661,0.19501990154134108
1667776287056221200,0.54322119140625,-9.743746676841377,-1.0908351889245211,0.19967223912551998
1667776287066272300,0.553272216796875,-9.74365023072958,-1.0906493109636008,0.20529508397597818
1667776287076323300,0.5633232421875,-9.74353917157054,-1.0904686936996877,0.21143440871490166
1667776287086375200,0.573375244140625,-9.743308285424114,-1.0912141052395106,0.21811856265394017
1667776287096426200,0.58342626953125,-9.742778124070167,-1.0948971046011895,0.22329709780300036
1667776287106477300,0.593477294921875,-9.741900172191858,-1.102044638268277,0.22642324873320757
1667776287116528400,0.6035283203125,-9.740875505319238,-1.110632726132497,0.22852224857276304
1667776287126579200,0.6135791015625,-9.739984109437465,-1.1182938353449106,0.22915696627972645
1667776287136630300,0.62363037109375,-9.739374453106523,-1.1239236579254268,0.22752852482767774
1667776287146682400,0.633682373046875,-9.738964118739961,-1.1277828906368463,0.22597473778072744
1667776287156733200,0.643733154296875,-9.738583010467886,-1.1310306403864174,0.22618496473161503
1667776287166784300,0.6537841796875,-9.738013686147331,-1.1354895925566553,0.22832387645645066
1667776287176835300,0.66383544921875,-9.737189510282873,-1.1418309974726288,0.2318284870439209
1667776287186886400,0.673886474609375,-9.736149061319232,-1.1496572341188789,0.23679387263264506
1667776287196938200,0.683938232421875,-9.734923903438448,-1.1586017342053354,0.24346966060213743
1667776287206989300,0.6939892578125,-9.733586517354846,-1.1684634222019463,0.24974874087162313
1667776287217040400,0.704040283203125,-9.732277188321948,-1.1783633233170956,0.2542129172062501
1667776287227091200,0.71409130859375,-9.731055537572502,-1.1879078351233154,0.2565546945594251
1667776287237142300,0.724142333984375,-9.730029117134213,-1.1962325958762317,0.2568045594009571
1667776287247194400,0.7341943359375,-9.729337627738714,-1.2022017334137112,0.2551174100316129
1667776287257245200,0.7442451171875,-9.729083945238589,-1.204875555732846,0.25216888069063426
1667776287267296300,0.754296142578125,-9.729124861770869,-1.2054122198928148,0.24799024329911917
1667776287277347300,0.764347412109375,-9.729145904558896,-1.2060539518624545,0.24400674488721413
1667776287287398400,0.7743984375,-9.728978146776557,-1.2081738666258752,0.2401858166258782
1667776287297449500,0.784449462890625,-9.72858125641346,-1.2120579415176063,0.23665524961324408
1667776287307501300,0.794501220703125,-9.728014854702353,-1.2170010239429772,0.23457460741428657
1667776287317552400,0.804552490234375,-9.727333302178979,-1.2226805308841169,0.23329251344818622
1667776287327603500,0.814603515625,-9.726727737501262,-1.2277592954531311,0.23185148432701824
1667776287337654300,0.824654296875,-9.7263799469769,-1.2309021235235034,0.22978207590812816
1667776287347705300,0.834705322265625,-9.726185301187634,-1.232716917860508,0.22828314258726312
1667776287357757400,0.84475732421875,-9.725867905801534,-1.235129093568772,0.22877125489776953
1667776287367808300,0.854808349609375,-9.72527753869295,-1.2395359502255916,0.2300246890249662
1667776287377859300,0.864859375,-9.724451024740933,-1.2461245348356664,0.22936472727889193
1667776287387910400,0.874910400390625,-9.723687054631114,-1.252426849850267,0.22742780439956112
1667776287397961500,0.88496142578125,-9.7231720908463,-1.2568107640229165,0.22523595691109075
1667776287408012300,0.89501220703125,-9.72287398468256,-1.259416124215722,0.22356374938255175
1667776287418064400,0.905064453125,-9.722844174066186,-1.2598928018167614,0.22215640333527698
1667776287428115500,0.915115478515625,-9.723201316940784,-1.2575859861791132,0.2195921971367672
1667776287438166300,0.925166259765625,-9.72380512805283,-1.253488049340993,0.21625740842455995
1667776287448217300,0.93521728515625,-9.724395495161414,-1.2495312745392322,0.21258734160969034
1667776287458268400,0.945268310546875,-9.724769004648923,-1.247217883030325,0.2090476597088389
1667776287468320300,0.9553203125,-9.724806414049864,-1.2473305496245621,0.20660808453699572
1667776287478371300,0.965371337890625,-9.724587218341231,-1.2493921583294867,0.20445885234754532
1667776287488422400,0.97542236328125,-9.724203187459707,-1.2526372777305543,0.20286055030543357
1667776287498473500,0.985473388671875,-9.723736154469847,-1.2564243950538336,0.20184211224419996
1667776287508524300,0.995524169921875,-9.7232059931159,-1.2605848757341502,0.20142065369542686
1667776287518575000,1.0055751953125,-9.722696290028095,-1.2646841277465224,0.20032350610848515
1667776287528627500,1.01562744140625,-9.722468911013006,-1.2665591278381645,0.19953619165569542
1667776287538678500,1.025678466796875,-9.722402275517583,-1.2670882662788032,0.19942138790329916
1667776287548729000,1.03572900390625,-9.722306413927674,-1.2678886228762567,0.19901136406399308
1667776287558780200,1.0457802734375,-9.722020582723617,-1.2704241327032446,0.19679050967674702
1667776287568831200,1.055831298828125,-9.721620769751071,-1.274000237624347,0.19337973311888054
1667776287578883300,1.06588330078125,-9.721268303051591,-1.2773621152728796,0.18888307928675785
1667776287588934100,1.07593408203125,-9.72101111342013,-1.2799451175034045,0.18456886934945357
1667776287598985200,1.085985107421875,-9.720697225165367,-1.2829232565313577,0.18037921737357973
1667776287609036300,1.096036376953125,-9.720367554819584,-1.2861688143238426,0.17496437098430467
1667776287619087000,1.106087158203125,-9.72000047507286,-1.2897360052861273,0.16898714147191493
1667776287629139200,1.11613916015625,-9.719580203834175,-1.2934963807329534,0.1643493804023601
1667776287639189800,1.126189697265625,-9.719177468252182,-1.2967929380603134,0.1621844209208153
1667776287649240800,1.13624072265625,-9.71882850868404,-1.29946595666185,0.16167780483923852
1667776287659291600,1.146291748046875,-9.718629186719655,-1.3010939962550998,0.1605913247767836
1667776287669342700,1.1563427734375,-9.718536832261085,-1.3020453056305645,0.1584599570375867
1667776287679393800,1.166393798828125,-9.718353876909614,-1.30359706511721,0.15690344831058756
1667776287689445600,1.176445556640625,-9.717658880382775,-1.3081203877605496,0.16220727207344024
1667776287699496700,1.18649658203125,-9.71682885929942,-1.3132985210508108,0.16990743465460836
1667776287709547800,1.1965478515625,-9.716108728331326,-1.317707715795189,0.17681471155872566
1667776287719598800,1.206598876953125,-9.715612469246983,-1.3207479602739214,0.18133534905463455
1667776287729649700,1.216649658203125,-9.715733465278149,-1.3199258302360772,0.180852734903153
1667776287739701800,1.22670166015625,-9.716464702162146,-1.3151514554411172,0.17627013808693737
1667776287749752800,1.2367529296875,-9.717550743833185,-1.3082647646673022,0.16743311696294694
1667776287759803600,1.2468037109375,-9.718649644985794,-1.3012366195961833,0.15815094588734208
1667776287769854700,1.256854736328125,-9.719356916472314,-1.296502722942084,0.153503047016263
1667776287779905800,1.26690576171875,-9.71942355196774,-1.2960304292552172,0.15326635218355802
1667776287789958000,1.2769580078125,-9.719026661604643,-1.2985162547215818,0.15736213359721005
1667776287800008700,1.2870087890625,-9.718367320913076,-1.3028078144356607,0.16252996468916533
1667776287810059800,1.297059814453125,-9.717895611748098,-1.30605424901098,0.1646419518744573
1667776287820110800,1.30711083984375,-9.717806179898977,-1.3066982460029422,0.16482582054138184
1667776287830162000,1.317161865234375,-9.71819313338995,-1.3040892325483262,0.1626510703181848
1667776287840212700,1.327212646484375,-9.718968209415674,-1.2988374494999646,0.15830010856706647
1667776287850264800,1.337264892578125,-9.719878894519805,-1.2925370341815055,0.15388645684327928
1667776287860316000,1.34731591796875,-9.720668583592772,-1.2868367767132818,0.15178840685179457
1667776287870366700,1.35736669921875,-9.7212110199064,-1.2826060072757304,0.1528298695955891
1667776287880417800,1.367417724609375,-9.72156699373722,-1.2795732154510915,0.1556131162391044
1667776287890468900,1.37746875,-9.721815415540338,-1.2773325969174503,0.15846960164876653
1667776287900520700,1.387520751953125,-9.721984926888346,-1.2760035402707754,0.15877167160157113
1667776287910571800,1.39757177734375,-9.722103584831952,-1.2753253487482665,0.1569541007855907
1667776287920622800,1.407622802734375,-9.722191847637296,-1.275052377025783,0.1536669140747748
1667776287930674000,1.417673828125,-9.722285371139645,-1.2747636232122779,0.15010186027064917
1667776287940724700,1.427724853515625,-9.7224239028275,-1.273907006382942,0.14837923772912473
1667776287950776800,1.43777685546875,-9.722625562879443,-1.2723961634285748,0.14813745572934858
1667776287960828000,1.447827880859375,-9.722866970419883,-1.2705290543824435,0.14831873971354215
1667776287970878700,1.457878662109375,-9.723125329095124,-1.2685875649258493,0.14800990209323353
1667776287980929800,1.4679296875,-9.723418759083748,-1.2663782183133065,0.14764804651089944
1667776287990980900,1.47798095703125,-9.723703421244025,-1.2641820234432817,0.1476988816489931
1667776288001032000,1.488031982421875,-9.723779409089683,-1.263643971043825,0.147297168980306
1667776288011083800,1.498083740234375,-9.723576579993964,-1.2652733258113265,0.14671969788591377
1667776288021134800,1.508134765625,-9.72324281799495,-1.2679738169416785,0.1455373105677776
1667776288031186000,1.51818603515625,-9.722888013207912,-1.2708695383831858,0.14396974159064702
1667776288041237000,1.528237060546875,-9.72257587851882,-1.2734462570033966,0.1422718150989618
1667776288051287800,1.538287841796875,-9.722475925275683,-1.2744523653060198,0.14004905188241973
1667776288061340000,1.54833984375,-9.722529116767644,-1.2743728703290222,0.13706863869898953
1667776288071391000,1.558390869140625,-9.722627900967002,-1.2739951230578124,0.13350163953294977
1667776288081441800,1.56844189453125,-9.722817286059259,-1.2729353848718106,0.12977295613233
1667776288091492900,1.578492919921875,-9.723107208916545,-1.2710825966119765,0.12619473231937736
1667776288101544000,1.5885439453125,-9.723463767269253,-1.2686359341122209,0.1232741230317857
1667776288111595000,1.598594970703125,-9.723888714683055,-1.265626669293642,0.1206505787283182
1667776288121646800,1.608646728515625,-9.724463884222507,-1.2614587359592317,0.11793660706188529
1667776288131698000,1.618697998046875,-9.725015088364481,-1.2574465777084232,0.11529491518037394
1667776288141749000,1.6287490234375,-9.725390935939549,-1.2548594838246703,0.11173331370865926
1667776288151799800,1.6387998046875,-9.725636435133218,-1.25351259926036,0.10528800089363939
1667776288161851000,1.648850830078125,-9.725755093076824,-1.2531876050896942,0.09794157452043145
1667776288171903000,1.658903076171875,-9.725740480029582,-1.253817281295359,0.0911118472313974
1667776288181953800,1.668953857421875,-9.725644618439674,-1.2549569528497755,0.08546631562509574
1667776288192004900,1.6790048828125,-9.725752170467375,-1.2543337063848972,0.08234455774221569
1667776288202056000,1.689055908203125,-9.726279993733764,-1.2503602727092802,0.08040848424625582
1667776288212107000,1.69910693359375,-9.727249715548753,-1.2429802454605698,0.07744122280534356
1667776288222158800,1.709158935546875,-9.728423435503244,-1.2340427596367896,0.07279266178056132
1667776288232210000,1.7192099609375,-9.729560915100574,-1.225441081638634,0.06577939005158841
1667776288242261000,1.729260986328125,-9.730587920060753,-1.2177172824535518,0.0566730139343068
1667776288252312000,1.73931201171875,-9.731407419750093,-1.2115764416109769,0.0466322019445477
1667776288262363000,1.74936279296875,-9.731836458817124,-1.2084265992779284,0.03801416190005839
1667776288272413700,1.75941357421875,-9.731832951685785,-1.2085777712516486,0.03389426895845681
1667776288282466000,1.769466064453125,-9.731555303788184,-1.210790771126002,0.034682546959049064
1667776288292516900,1.779516845703125,-9.731184132388234,-1.2136758250430226,0.03774903555731289
1667776288302567700,1.789567626953125,-9.731032156696916,-1.2148288675356655,0.03985394911442417
1667776288312618800,1.79961865234375,-9.73122855605185,-1.2132355339296161,0.04037110942290164
1667776288322669800,1.809669921875,-9.731737090095876,-1.209179244276136,0.03952285856311209
1667776288332722000,1.819721923828125,-9.732464235326647,-1.2033750149767846,0.037649141679680906
1667776288342772700,1.829772705078125,-9.73327788979709,-1.196838160553947,0.03561795094590634
1667776288352823800,1.83982373046875,-9.734052965822816,-1.190556888327375,0.03429464818658307
1667776288362874600,1.84987451171875,-9.734775434878468,-1.1846674649626017,0.03314216281636618
1667776288372925700,1.85992578125,-9.735473354014754,-1.1789368123561144,0.03246859951991355
1667776288382976800,1.869976806640625,-9.73613444827199,-1.1734753320798277,0.03207730549725238
1667776288393028900,1.88002880859375,-9.73663655257523,-1.1693429815154521,0.030576497596420813
1667776288403079700,1.89007958984375,-9.73702701319754,-1.1661522226501255,0.027892576291668227
1667776288413130800,1.900130859375,-9.73747592600882,-1.1624318869527428,0.02652269901083782
1667776288423181800,1.910181884765625,-9.738013686147331,-1.157909879483655,0.026714298893068915
1667776288433233000,1.92023291015625,-9.738491825053096,-1.1538066819485275,0.029805901382991575
1667776288443284700,1.93028466796875,-9.738770641994476,-1.151321587134525,0.03452064809533767
1667776288453335800,1.940335693359375,-9.738810389482975,-1.1508571844931692,0.03847539077021647
1667776288463387000,1.950386962890625,-9.738647307875752,-1.152175500550121,0.040283458538912235
1667776288473437700,1.960437744140625,-9.73850176192522,-1.1534599874027072,0.03871658368152566
1667776288483488800,1.97048876953125,-9.738547354632615,-1.1531968794871121,0.034847662976442366
1667776288493540900,1.980540771484375,-9.738761289644241,-1.1515439246483146,0.029385851623304187
1667776288503591700,1.990591796875,-9.739019648319482,-1.1495080349065363,0.022653563676623162
1667776288513642800,2.000642822265625,-9.73917337757647,-1.1483175830129533,0.01591954043058213
1667776288523693800,2.01069384765625,-9.73923066072166,-1.1478848906841128,0.011447273262689123
1667776288533745000,2.020744873046875,-9.739112002778052,-1.1488960404880344,0.010858688260882626
1667776288543795700,2.030795654296875,-9.738878194022178,-1.150850170230493,0.013396151441294931
1667776288553847800,2.040847900390625,-9.738704006499052,-1.1522747231408954,0.017213098788901697
1667776288563899000,2.05089892578125,-9.738793438348173,-1.151480650153756,0.01938398340444546
1667776288573949700,2.06094970703125,-9.73928443673551,-1.1473192196253685,0.01966890585962683
1667776288584000800,2.071000732421875,-9.740013920053839,-1.1411137160487472,0.019335874512977896
1667776288594051800,2.0810517578125,-9.74055518732369,-1.1365117752112448,0.017493509465747046
1667776288604103700,2.091103759765625,-9.74073755815327,-1.1349708293795584,0.015879981313395547
1667776288614154800,2.10115478515625,-9.740626498994231,-1.13590021918416,0.017515105951268924
1667776288624205800,2.111205810546875,-9.740315533348918,-1.1384744535863398,0.02269888010609429
1667776288634257000,2.1212568359375,-9.739926241770386,-1.1416335752043871,0.029938651784032117
1667776288644308000,2.131307861328125,-9.739629889172315,-1.1439646485004573,0.036628089252964124
1667776288654359000,2.141359130859375,-9.739410108941794,-1.1456392306491732,0.04232131647549104
1667776288664411100,2.1514111328125,-9.7390979742527,-1.1481458797078579,0.045974267758778296
1667776288674462200,2.161462158203125,-9.738573658117652,-1.1524988872855901,0.048112430564942764
1667776288684513000,2.171512939453125,-9.737764679822325,-1.1592686736814677,0.049221885077608746
1667776288694564000,2.181564208984375,-9.736695004764199,-1.1681338979866356,0.05116205935995094
1667776288704615200,2.191615234375,-9.735502580109237,-1.1778550815340132,0.05510507049784064
1667776288714667000,2.2016669921875,-9.734223061692713,-1.1879857957303523,0.06302765735776629
1667776288724718000,2.211718017578125,-9.7327956592381,-1.1987301117803901,0.07820330235217697
1667776288734769200,2.22176904296875,-9.731069566097855,-1.2105265672318637,0.1062989497681614
1667776288744820200,2.2318203125,-9.728867672139407,-1.2241902047947049,0.14448263214938342
1667776288754871000,2.24187109375,-9.726063136112689,-1.2407641768462956,0.18596362990979104
1667776288764923100,2.251923095703125,-9.722641929492355,-1.2616853843219578,0.22084815201461314
1667776288774974200,2.26197412109375,-9.719222476437688,-1.2845451586447656,0.23884220173088833
1667776288785025000,2.27202490234375,-9.71709130962789,-1.3007256013341246,0.23798344774339347
1667776288795076000,2.282076171875,-9.717176649823784,-1.303023503012955,0.22135155322579667
1667776288805127200,2.292127197265625,-9.71921721574068,-1.2922025415301321,0.1934390620906837
1667776288815178200,2.30217822265625,-9.72193991870284,-1.276092825989425,0.1607816049181856
1667776288825230000,2.31222998046875,-9.72442355221212,-1.2592641485244036,0.1422285239465069
1667776288835281200,2.32228125,-9.726014620795846,-1.243766719663143,0.16752353519275784
1667776288845332200,2.332332275390625,-9.725400872811674,-1.233441578873247,0.2560918080217205
1667776288855383000,2.342383056640625,-9.720047821345926,-1.2342397435136139,0.4095233424380421
1667776288865434000,2.35243408203125,-9.707684598857163,-1.2517213319294154,0.6036850379811599
1667776288875486200,2.362486328125,-9.68855845810473,-1.2898740985825656,0.7990259333714842
1667776288885537000,2.372537109375,-9.66522551331222,-1.341552847893536,0.9767480603650212
1667776288895588000,2.382588134765625,-9.641721303606033,-1.3912205496430397,1.1278753912258892
1667776288905639200,2.39263916015625,-9.623010173395276,-1.429147398585826,1.235152328313887
1667776288915690200,2.402690185546875,-9.61378934058547,-1.4537090083904562,1.2775614372372626
1667776288925741300,2.4127412109375,-9.612927170798182,-1.4666411168083548,1.2692432523556052
1667776288935793200,2.422793212890625,-9.616089434221387,-1.4692558293513953,1.2419715068094432
1667776288945844200,2.43284423828125,-9.619508887276053,-1.4666399477645753,1.2183578453794122
1667776288955895300,2.442895263671875,-9.618065118208527,-1.4662275675714016,1.2301982130378484
1667776288965946000,2.452946044921875,-9.606398061290383,-1.480923763052374,1.3016763261877
1667776288975997200,2.4629970703125,-9.579035422590374,-1.526984087959677,1.442492763979733
1667776288986049300,2.47304931640625,-9.531294012728333,-1.613913891132921,1.6492713279791176
1667776288996100000,2.48310009765625,-9.458982809755206,-1.7394307607233523,1.9163525311194358
1667776289006151200,2.493151123046875,-9.360407869234681,-1.8935199370644986,2.22884070982486
1667776289016202200,2.5032021484375,-9.23582404271066,-2.0631739084146914,2.571625096464157
1667776289026253300,2.51325341796875,-9.084811643466352,-2.2370453513294457,2.9380624536305664
1667776289036305200,2.52330517578125,-8.907876282936334,-2.402748831488192,3.3236920025229453
1667776289046356200,2.533356201171875,-8.706189927509426,-2.5482325304389,3.7254742293149232
1667776289056407300,2.5434072265625,-8.478763566148281,-2.6663006914585825,4.143886103868485
1667776289066458000,2.5534580078125,-8.222370053499937,-2.7552242987975477,4.579492858850956
1667776289076509200,2.56350927734375,-7.931573920512199,-2.813805082581937,5.034184838053584
1667776289086560300,2.573560302734375,-7.59624481831491,-2.838001658466458,5.514816145154834
1667776289096612000,2.583612060546875,-7.19996878772378,-2.826493299241364,6.028413317790627
1667776289106663200,2.5936630859375,-6.733685739448666,-2.771880250044167,6.568450169062614
1667776289116714200,2.60371435546875,-6.215680687242746,-2.6601845466658474,7.103458378517628
1667776289126765300,2.613765380859375,-5.674319309368729,-2.4758590758845207,7.605432333377003
1667776289136816400,2.62381640625,-5.136112596133351,-2.2102603663869202,8.056393309357762
1667776289146868200,2.6338681640625,-4.632964336797595,-1.8676504595316945,8.439071022707223
1667776289156919300,2.643919189453125,-4.192253244413435,-1.4634062265403567,8.743789298063517
1667776289166970400,2.653970458984375,-3.8119776237696406,-1.0237575757559387,8.977256108632684
1667776289177021200,2.664021240234375,-3.4656536648273466,-0.5729583296755328,9.155945619353652
1667776289187072300,2.674072265625,-3.1130913960173725,-0.12266645772852934,9.29860110914111
1667776289197123300,2.684123291015625,-2.733631183409691,0.334057036434859,9.412015891397
1667776289207175200,2.694175048828125,-2.334734595056623,0.8086849384028464,9.490281034338473
1667776289217226200,2.704226318359375,-1.9304238727003336,1.3024065401583909,9.526153142708539
1667776289227277300,2.71427734375,-1.5546376724302768,1.818723785407841,9.510296817407012
1667776289237328100,2.724328125,-1.2241489229362457,2.3695412661522623,9.437007124790549
1667776289247379000,2.73437890625,-0.9270281169716268,2.9533064922526475,9.305319603741168
1667776289257431300,2.744431396484375,-0.6511118654686957,3.549240002791583,9.118625650262832
1667776289267482400,2.754482421875,-0.39909810227453707,4.122060056507587,8.889304268935323
1667776289277533000,2.764532958984375,-0.18142688152929767,4.644547222563624,8.635140707296133
1667776289287584000,2.774583984375,-0.003426221863814862,5.107177593550086,8.371803659120202
1667776289297635000,2.784635009765625,0.1361930888403207,5.51264113920331,8.109415289971231
1667776289307687200,2.794687255859375,0.23918842135267332,5.869171434861421,7.852769848388433
1667776289317738000,2.804738037109375,0.2976747317866422,6.182865043833852,7.606180521395802
1667776289327789000,2.8147890625,0.2976181427611969,6.451275742012262,7.379894562241435
1667776289337840000,2.824840087890625,0.24131215377468615,6.6568532596588135,7.197115736380219
1667776289347891200,2.83489111328125,0.14138536938694304,6.78942399328351,7.074893962812423
1667776289357943000,2.844943115234375,0.01441240782024106,6.84875062699914,7.0188879979521035
1667776289367994000,2.854994140625,-0.142514830074599,6.833847656899691,7.031970182365178
1667776289378045200,2.865045166015625,-0.3038479953277856,6.761469233909249,7.096520688208937
1667776289388096000,2.875095947265625,-0.45780770007036625,6.643342036178708,7.199083237060904
1667776289398147000,2.88514697265625,-0.6035507806096225,6.473874527311325,7.341325469872355
1667776289408198100,2.8951982421875,-0.7182985650349408,6.263903743141889,7.511186361971497
1667776289418250000,2.90525,-0.7718997337758541,6.033963937655091,7.691932805222272
1667776289428301000,2.915301025390625,-0.7409142284035682,5.8045829350948335,7.86944918051064
1667776289438352100,2.92535205078125,-0.6288227306406945,5.5899739697307345,8.03287916277945
1667776289448403200,2.9354033203125,-0.45589134505502876,5.407597294929623,8.168256185996531
1667776289458454000,2.9454541015625,-0.231257372625079,5.263323264029622,8.271294535666703
1667776289468506000,2.955506103515625,0.02192080840568524,5.152235463416576,8.344122455990314
1667776289478557200,2.96555712890625,0.2672243014054373,5.061992297911644,8.39495072595179
1667776289488608000,2.97560791015625,0.48628834648225455,4.977335992628336,8.435640463736652
1667776289498659000,2.9856591796875,0.6877405643597245,4.890043493622541,8.472595106646418
1667776289508710100,2.995710205078125,0.8732822790630161,4.804429156962037,8.504422323539853
1667776289518762000,3.005761962890625,1.0275571872346103,4.735701949955523,8.525704181021451
1667776289528813000,3.01581298828125,1.1346713349763304,4.708564352183044,8.527151457220315
1667776289538864000,3.025864013671875,1.1846134697530417,4.735582999750972,8.505372171610594
1667776289548915200,3.035915283203125,1.184684927554056,4.807574761511385,8.464875910571218
1667776289558966300,3.04596630859375,1.1544563780289143,4.9006429213091725,8.41554109403789
1667776289569017000,3.05601708984375,1.1178533981010317,4.995316470476984,8.364664893281459
1667776289579069200,3.066069091796875,1.0900097709510475,5.082934548175334,8.315411325290798
1667776289589120300,3.076120361328125,1.0823564797189087,5.1566515262931585,8.270901152434945
1667776289599171000,3.086171142578125,1.0728387828543782,5.229712670850754,8.226148402994871
1667776289609222100,3.09622216796875,1.0479305515691637,5.2993654682695865,8.184679497531056
1667776289619273200,3.106273193359375,1.0269177933525293,5.3568531961202615,8.149841992905735
1667776289629325000,3.116324951171875,1.027793845534697,5.403904285630583,8.118610988339782
1667776289639376100,3.126376220703125,1.057406601249054,5.442371086668968,8.089060484206676
1667776289649427000,3.136427001953125,1.0872920364249496,5.475373777082562,8.062782718133926
1667776289659478000,3.14647802734375,1.0848840985003858,5.512518389606475,8.037759336036443
1667776289669529000,3.156529052734375,1.0533559376187622,5.572345374059677,8.000611216381191
1667776289679580000,3.166579833984375,1.0141986700981855,5.655976427948475,7.946806560957431
1667776289689632000,3.176632080078125,0.9837926451142877,5.7641211608469485,7.872575788098573
1667776289699683800,3.186683837890625,0.9785987297330051,5.887784365394711,7.7811781918615095
1667776289709735000,3.19673486328125,1.019846247531101,6.034305882960558,7.662732429701089
1667776289719786000,3.206785888671875,1.0923445705741643,6.217143745532631,7.50495302053988
1667776289729837800,3.216837890625,1.167672491019964,6.436443499061465,7.306102765321731
1667776289739889000,3.226888916015625,1.225203619620949,6.668911946243047,7.084833757546543
1667776289749940000,3.23693994140625,1.266376318617165,6.885967720237374,6.866593157681822
1667776289759991000,3.246990966796875,1.2878298794038594,7.06973438809216,6.673134532374143
1667776289770041900,3.257041748046875,1.2913893254511057,7.2096928938806055,6.520968286919594
1667776289780094000,3.267093994140625,1.2959054877012968,7.294974053063989,6.424511653727293
1667776289790145000,3.27714501953125,1.3148185702249406,7.329684131917357,6.381014457306265
1667776289800195800,3.28719580078125,1.3739343376688657,7.334252755007148,6.36328824647963
1667776289810247000,3.297246826171875,1.4665871946640312,7.332842888209223,6.344202437737584
1667776289820298000,3.307298095703125,1.5406969714917242,7.343096571198106,6.314710385793447
1667776289830349800,3.317349853515625,1.5843595876075327,7.380694772708416,6.25983663983345
1667776289840401000,3.32740087890625,1.619568994285166,7.451935716101527,6.165715756112337
1667776289850452000,3.337451904296875,1.6755029168225823,7.53384009232819,6.050150517824292
1667776289860503000,3.3475029296875,1.7322729979231952,7.591958519297838,5.960854277780652
1667776289870553900,3.357553955078125,1.759578207347542,7.616141943439841,5.921881280785799
1667776289880605000,3.36760498046875,1.7517171185836196,7.6238745835185044,5.9142567772567265
1667776289890657000,3.377656982421875,1.7300737343132495,7.6193766875773665,5.92641074090898
1667776289900707800,3.387707763671875,1.6943826815985141,7.593008320611715,5.970402442848682
1667776289910759000,3.397759033203125,1.6438165697045624,7.553563029929995,6.034227557027339
1667776289920810000,3.40781005859375,1.5925689052872358,7.5086448607951395,6.103636024296283
1667776289930861000,3.417861083984375,1.5453262387275695,7.452729496827721,6.183785665810108
1667776289940913000,3.427912841796875,1.5140527101941406,7.370054720750451,6.289700447699428
1667776289950964000,3.4379638671875,1.4050586669899523,7.264982819426059,6.435543335351348
1667776289961015000,3.44801513671875,1.3367252816066144,7.157462940427661,6.569193680906295
1667776289971066000,3.458066162109375,1.404758807260543,7.046770276612043,6.673833620554208
1667776289981117000,3.468116943359375,1.5685877257190644,6.946187503400445,6.7424313559621565
1667776289991169000,3.4781689453125,1.7770082117065786,6.886767346182465,6.751670893472433
1667776290001220000,3.48822021484375,1.9752106705404817,6.885841463509202,6.697323217213153
1667776290011271000,3.49827099609375,2.0868498214259743,6.940803472274541,6.6061085763275615
1667776290021322000,3.508322021484375,2.046559312091768,7.042071889662743,6.510853135618567
1667776290031373000,3.518373046875,1.8790150263719259,7.175811082544922,6.414625050485133
1667776290041425000,3.5284248046875,1.6657399399600923,7.329234050062299,6.299046368193626
1667776290051476000,3.53847607421875,1.5001048488624393,7.492471140107512,6.146782507583499
1667776290061527000,3.548527099609375,1.4257273610092698,7.647966237723827,5.970450958165526
1667776290071578000,3.558578125,1.4215963986843823,7.77884536499977,5.799913774240016
1667776290081629000,3.56862890625,1.4461254213936625,7.8781889518052335,5.658025177171826
1667776290091679700,3.5786796875,1.475437878987193,7.951073570752143,5.547421360683441
1667776290101732000,3.588732177734375,1.5047357235334813,8.001618932119012,5.4662862152636045
1667776290111783000,3.598782958984375,1.5372089832454918,8.029238175928592,5.416523528707027
1667776290121834000,3.608833984375,1.5746825354628264,8.03862267486751,5.391783055204153
1667776290131884800,3.618884765625,1.6156347235761581,8.039838480398059,5.3778328557848925
1667776290141935900,3.628935791015625,1.6561282081365585,8.045658564853667,5.356774285665154
1667776290151988000,3.638988037109375,1.694100795917213,8.064291953653097,5.3167286910027265
1667776290162038800,3.649038818359375,1.7331177781842648,8.093283654859661,5.259796258947253
1667776290172089900,3.65908984375,1.7847258003465831,8.136001683601737,5.175962375962734
1667776290182141000,3.669140869140625,1.8566852672725915,8.2037881026268,5.041924492394924
1667776290192191700,3.679191650390625,1.9449843129724262,8.304612867900728,4.839507776866853
1667776290202243800,3.689243896484375,2.0323880172677335,8.439475511854887,4.562353508001566
1667776290212295000,3.699294921875,2.0826396563850342,8.611239607226848,4.2047026838809245
1667776290222345700,3.709345703125,2.0544506498634814,8.818902698975801,3.7651764173671602
1667776290232396800,3.719396728515625,1.9333786308526992,9.045696607652307,3.256958307421207
1667776290242448000,3.72944775390625,1.7282174389220772,9.264895823416113,2.7102263424247504
1667776290252499700,3.739499755859375,1.460124282260239,9.45595323280096,2.1502057106576857
1667776290262550800,3.74955078125,1.1904602960851043,9.598204233440756,1.6210069181337952
1667776290272601900,3.759601806640625,0.9994725909356027,9.686665191704034,1.1575696877438575
1667776290282653000,3.76965283203125,0.9147251002375036,9.734813428801298,0.753046199419722
1667776290292703700,3.779703857421875,0.9158505971360951,9.755728791058063,0.39668592656627294
1667776290302755800,3.789755859375,0.9660806820087134,9.758628604152799,0.0791678548017051
1667776290312807000,3.799806884765625,1.0390371971480548,9.749217217206954,-0.20867994064129888
1667776290322858000,3.80985791015625,1.1108984643965958,9.731549458569289,-0.48290977342724795
1667776290332908800,3.81990869140625,1.1397639088749885,9.710313778316975,-0.762323584722355
1667776290342959900,3.8299599609375,1.0898799340263008,9.688058107367157,-1.0602298419762402
1667776290353011000,3.840010986328125,0.9549718434952199,9.661901921847463,-1.3805980333417653
1667776290363062800,3.850062744140625,0.7563077584989368,9.625276364761591,-1.7182620082274078
1667776290373113900,3.86011376953125,0.5384689443681389,9.57108183323741,-2.0675608913272616
1667776290383165000,3.8701650390625,0.35445915193986144,9.497669975546001,-2.416403116700798
1667776290393216000,3.880216064453125,0.248699962471053,9.422650682657956,-2.7059505648016926
1667776290403266800,3.890266845703125,0.24584077364765106,9.378587669047713,-2.8551775419339536
1667776290413319000,3.90031884765625,0.32068887468725443,9.37711818101704,-2.8525796343952416
1667776290423370000,3.910369873046875,0.4115983586138114,9.396855731666088,-2.7748963829949496
1667776290433420800,3.9204208984375,0.4647826536495238,9.41898631493151,-2.6901749035209415
1667776290443472000,3.930471923828125,0.4706118347270414,9.438766535678505,-2.6188942126393315
1667776290453523000,3.94052294921875,0.44793866901751606,9.458868827986716,-2.5494211557015776
1667776290463574800,3.95057470703125,0.41432380152232945,9.48277168162167,-2.464903382106125
1667776290473625900,3.9606259765625,0.38138865991961207,9.509955456623434,-2.363400425309688
1667776290483677000,3.970677001953125,0.35406817986089734,9.536439558923243,-2.258612893884629
1667776290493728000,3.98072802734375,0.3330303968008607,9.558151624515652,-2.1682341193012893
1667776290503778800,3.99077880859375,0.31891693311128766,9.572613865110277,-2.1056438076145945
1667776290513831000,4.000830810546875,0.3126594070864841,9.579687164497376,-2.074175925552845
1667776290523882000,4.010882080078125,0.3135482091523707,9.581035656496882,-2.0678060982599855
1667776290533932800,4.020932861328125,0.32096988358572126,9.578833178016543,-2.0768474828496575
1667776290543983900,4.03098388671875,0.33026403736006466,9.575642273020744,-2.0900681989505885
1667776290554035000,4.041034912109375,0.32439024995584037,9.558349777436256,-2.168665788716823
1667776290564086000,4.0510859375,0.31897242615818977,9.509633969584106,-2.37391962736696
1667776290574137900,4.061137939453125,0.33959026677310467,9.465525947788358,-2.5414330795571205
1667776290584189000,4.07118896484375,0.36885928708370774,9.439451010811329,-2.632694774454832
1667776290594240000,4.081239990234375,0.38178273727111517,9.416399221047758,-2.712206994847953
1667776290604291000,4.091291015625,0.3783622978357598,9.392233917084337,-2.7952067650958896
1667776290614342000,4.101341796875,0.36508638094887136,9.377418625268339,-2.8462501391127706
1667776290624394000,4.11139404296875,0.3483911206051707,9.372517993745207,-2.8644205865755676
1667776290634445000,4.121445068359375,0.3354813701495528,9.374373850744963,-2.859889665147662
1667776290644496600,4.13149658203125,0.3281206686558202,9.381872682067751,-2.836051401181519
1667776290654547700,4.141547607421875,0.3234411690700799,9.39267406206727,-2.8006130080536007
1667776290664598800,4.151598876953125,0.31933241857700045,9.403898051393032,-2.763167951278388
1667776290674651000,4.16165087890625,0.32073523457963016,9.41499812207818,-2.7249405119538306
1667776290684701700,4.17170166015625,0.33253150736801323,9.425948555159568,-2.6853853311568496
1667776290694752800,4.181752685546875,0.35560342660415917,9.436635368868709,-2.6445865800395607
1667776290704803600,4.191803466796875,0.3915814065014943,9.447468313050269,-2.600463068413734
1667776290714854700,4.201854736328125,0.44852399462480097,9.458332236891984,-2.5513044852301476
1667776290724906800,4.21190673828125,0.5378754354543983,9.468146359419823,-2.497051209256053
1667776290734957600,4.22195751953125,0.6628765375424176,9.475171728011965,-2.4396930991344155
1667776290745008600,4.232008544921875,0.8073025441337376,9.477069670587777,-2.38826145645231
1667776290755059700,4.242059814453125,0.9839742852915078,9.463494149699807,-2.375811578593403
1667776290765110800,4.25211083984375,1.1333842908404768,9.441379348525404,-2.397114624993503
1667776290775162600,4.26216259765625,1.234947161130607,9.422592230468988,-2.4207544437780975
1667776290785213700,4.272213623046875,1.28894748525694,9.41182533726096,-2.434448038087785
1667776290795264800,4.2822646484375,1.2930474679216741,9.414705861133337,-2.4211020881719887
1667776290805315800,4.29231591796875,1.253779433503002,9.42611339033246,-2.397250087941438
1667776290815366700,4.30236669921875,1.193652881581336,9.437028167578578,-2.384965191385895
1667776290825417700,4.312417724609375,1.134204740377888,9.445963169184326,-2.3786006247900424
1667776290835469800,4.3224697265625,1.087441527898237,9.45373204962015,-2.3695574866347013
1667776290845520600,4.332520751953125,1.0605223951820284,9.460575047382711,-2.354398349817097
1667776290855571700,4.34257177734375,1.0573055520273744,9.4669574418962,-2.3300689413331446
1667776290865622800,4.352622802734375,1.0812436231061815,9.472464222618937,-2.2964630243293938
1667776290875673900,4.362673828125,1.1322780831642447,9.476502099832892,-2.2548251920394597
1667776290885725700,4.3727255859375,1.2080797586016356,9.47911608172357,-2.2039153812743724
1667776290895776800,4.38277685546875,1.308130909154564,9.48049613790512,-2.1399473514936864
1667776290905827800,4.392827880859375,1.4276526299834251,9.479146476861834,-2.0683349444396795
1667776290915878700,4.402878662109375,1.5568154548607767,9.47423240133524,-1.9964112794794142
1667776290925929700,4.4129296875,1.690438620147854,9.465583230933547,-1.9275773972280323
1667776290935981800,4.42298193359375,1.823686668512225,9.453798100593685,-1.8628598642542957
1667776290946032600,4.43303271484375,1.9510778075419366,9.440140746641159,-1.8020593585938214
1667776290956083700,4.443083740234375,2.0668572731025514,9.425324870303273,-1.7497911189571023
1667776290966134800,4.453134765625,2.167404682739824,9.409451009345053,-1.713178567483276
1667776290976185900,4.463185791015625,2.2495295698493716,9.39317733541429,-1.6965376676753163
1667776290986237000,4.47323681640625,2.3137172337301073,9.37778804310262,-1.6953455352813005
1667776290996288800,4.483288818359375,2.3637799261465666,9.364599475705623,-1.699176345615834
1667776291006339800,4.49333984375,2.4040100835956633,9.353557272687555,-1.703554999091476
1667776291016391000,4.503390869140625,2.436729719284177,9.34433293274641,-1.7076796778060495
1667776291026441700,4.513441650390625,2.4629502022117373,9.336921195185184,-1.7106028717763722
1667776291036492800,4.523492919921875,2.482409228180349,9.331434288206696,-1.7124163509391248
1667776291046545000,4.533544921875,2.4952467901825903,9.327892085555195,-1.7130536259293556
1667776291056595700,4.543595703125,2.5014193413376806,9.326424935612081,-1.712045617930591
1667776291066646800,4.553646728515625,2.5004239005595443,9.327233913907408,-1.7090883755601942
1667776291076697900,4.56369775390625,2.491856855483353,9.330545814934373,-1.7035213890828191
1667776291086749000,4.5737490234375,2.474625734697282,9.336766881406307,-1.694509815109521
1667776291096800800,4.58380078125,2.4470783870801327,9.346353040397167,-1.6816306059226394
1667776291106851800,4.593851806640625,2.4060858669564125,9.36012963681519,-1.66406104696244
1667776291116903000,4.60390283203125,2.349009057994187,9.378393023258447,-1.6426462107509374
1667776291126953700,4.61395361328125,2.2753014322265983,9.400735203447937,-1.6185023879669607
1667776291137004800,4.6240048828125,2.1868919118896124,9.426123327204584,-1.5925000778347254
1667776291147055900,4.634055908203125,2.0873361436381934,9.453197796612978,-1.5653968207232654
1667776291157107700,4.644107666015625,1.9806205667600034,9.480469834420084,-1.5389029276818036
1667776291167158800,4.65415869140625,1.8713656806625425,9.506610237848758,-1.5141766288347542
1667776291177209900,4.6642099609375,1.762811051788926,9.530933947244286,-1.491365223698318
1667776291187261000,4.674260986328125,1.6557291258163749,9.553203062197566,-1.4714892874918877
1667776291197312000,4.68431201171875,1.5481810436367989,9.573703998434542,-1.4552433783508836
1667776291207363800,4.69436376953125,1.438918997146189,9.592297055223584,-1.4449040629051624
1667776291217415000,4.704414794921875,1.331628835250437,9.607815526872873,-1.4446663086265326
1667776291227466000,4.714466064453125,1.233793022659421,9.619014966279268,-1.4569431680060922
1667776291237516800,4.724516845703125,1.1506827777743338,9.625279287371038,-1.4833359387606382
1667776291247568000,4.73456787109375,1.0841850833855569,9.626277650758624,-1.5263427213162182
1667776291257620000,4.744619873046875,1.033077631156519,9.622381227841974,-1.5852267258308828
1667776291267670800,4.7546708984375,0.9993201037876307,9.614060558742285,-1.6557720881752669
1667776291277721900,4.764721923828125,0.9881243176430463,9.602052141040563,-1.7304868451587854
1667776291287773000,4.77477294921875,0.9969664533335715,9.588278467231989,-1.8003806117266417
1667776291297824000,4.784823974609375,1.006450174863264,9.5753330609411,-1.8629202161394058
1667776291307875800,4.794875732421875,0.9868689838197082,9.567131634306907,-1.9148009177632628
1667776291317927000,4.804927001953125,0.923401304776594,9.566013443931936,-1.951691409395635
1667776291327978000,4.81497802734375,0.8237858422271906,9.571142623513936,-1.9710330925948916
1667776291338028800,4.82502880859375,0.7015234443880617,9.58107832659483,-1.9700765225224195
1667776291348079600,4.83507958984375,0.5664215117853134,9.594384382891654,-1.948671038661152
1667776291358130700,4.845130615234375,0.42525366673972453,9.608782910600304,-1.9133255845136938
1667776291368182800,4.855182861328125,0.28867581636551765,9.622099488291143,-1.8714305625922978
1667776291378233900,4.86523388671875,0.17246824331963434,9.633121817564964,-1.8285516442000864
1667776291388284700,4.87528466796875,0.0865413701112382,9.641084759268164,-1.7923131867356596
1667776291398335700,4.885335693359375,0.022179571223014498,9.645157123273611,-1.7722366133905947
1667776291408386800,4.89538671875,-0.039796629436616784,9.645200962415338,-1.7716870166838168
1667776291418439000,4.90543896484375,-0.11248622356834821,9.642700962293148,-1.7821498123787343
1667776291428489700,4.91548974609375,-0.19174677988849578,9.639194415476918,-1.7943075754232705
1667776291438540800,4.925540771484375,-0.267653596200794,9.634781859731673,-1.8082440385781227
1667776291448591600,4.935591552734375,-0.33814887232575563,9.62896995858252,-1.8272876156136393
1667776291458642700,4.945642578125,-0.4101638688312843,9.621405076286196,-1.8522125057727097
1667776291468694800,4.95569482421875,-0.49296358646247534,9.611546530094742,-1.8829612797796724
1667776291478745600,4.96574560546875,-0.5922885781653225,9.598981647554039,-1.9181025896571575
1667776291488796700,4.975796630859375,-0.7087769957128912,9.583931962460278,-1.9535326533481479
1667776291498847700,4.98584765625,-0.8377319499932229,9.567129296219349,-1.9845937081746756
1667776291508898800,4.99589892578125,-0.9722995565235614,9.549673134505749,-2.007173934903741
1667776291518949600,5.00594970703125,-1.1059398921411483,9.532291207072138,-2.020566938831657
1667776291529001700,5.016001708984375,-1.2319736982777714,9.515085805249214,-2.0287292024992407
1667776291539052800,5.026052734375,-1.346525083348155,9.49812122644484,-2.035416132917255
1667776291549103600,5.036103515625,-1.4477264268495142,9.481773318234085,-2.0421713062658906
1667776291559154700,5.04615478515625,-1.5347930081449448,9.46643254123926,-2.0497394034326075
1667776291569205800,5.056205810546875,-1.6090481847926974,9.45192529245913,-2.059725375396013
1667776291579257600,5.066257568359375,-1.673792459642887,9.437952296686172,-2.0721618092514573
1667776291589308700,5.07630859375,-1.7350373480699954,9.423796930083633,-2.0861615469008683
1667776291599359700,5.08635986328125,-1.798272241270542,9.408445631694793,-2.101841638852656
1667776291609410800,5.096410888671875,-1.8650512368187306,9.39125835005045,-2.1204330882064997
1667776291619462000,5.1064619140625,-1.9344534204773605,9.372263142201303,-2.142184024504572
1667776291629513700,5.116513671875,-2.0077200244791804,9.350980700197816,-2.1676281162321565
1667776291639564000,5.12656396484375,-2.088003375375271,9.326769803526997,-2.195901586166769
1667776291649614800,5.13661474609375,-2.175797540292889,9.299614085575937,-2.2256427905663845
1667776291659666000,5.146666015625,-2.2673716621406377,9.270860869300364,-2.25400393878445
1667776291669716700,5.156716796875,-2.3534645760983226,9.24298852751255,-2.2800753686301407
1667776291679767800,5.166767822265625,-2.42512769042626,9.218429840317368,-2.3042773513421415
1667776291689820000,5.17681982421875,-2.4785215730920434,9.198366126453877,-2.3275246636778113
1667776291699870700,5.18687060546875,-2.5130910744309425,9.18284297862947,-2.351625377972424
1667776291709921800,5.196921875,-2.532128367856145,9.171702575933933,-2.3745672776207325
1667776291719972900,5.206972900390625,-2.5394302153021098,9.164549781569837,-2.3943093583144246
1667776291730024000,5.21702392578125,-2.540312843355536,9.160168205484748,-2.410082681507617
1667776291740075800,5.22707568359375,-2.5400422097206112,9.156750505995749,-2.4233183029167353
1667776291750126800,5.237126953125,-2.5413404328376052,9.152586956575512,-2.4376466879986225
1667776291760178000,5.247177978515625,-2.5429072437629103,9.147678726267815,-2.454380819047987
1667776291770228700,5.257228759765625,-2.5435057941779493,9.142719058033823,-2.4721727885872125
1667776291780279800,5.26727978515625,-2.54356015471369,9.138420484057068,-2.487964231958985
1667776291790332000,5.277331787109375,-2.5447379663214087,9.134867760011554,-2.4997809264808892
1667776291800383000,5.287383056640625,-2.546946874542534,9.132064977550506,-2.5077555586218834
1667776291810433800,5.297433837890625,-2.547232121224701,9.130186324197053,-2.514296358567476
1667776291820484900,5.30748486328125,-2.5389251883894204,9.130366941460967,-2.5220260760366915
1667776291830536000,5.317535888671875,-2.5153067046537996,9.134041830581426,-2.532366852787137
1667776291840587000,5.3275869140625,-2.470890639822185,9.142644239231943,-2.545024382047355
1667776291850638800,5.337638916015625,-2.4038608843833207,9.156915341168641,-2.557880064228177
1667776291860690000,5.34768994140625,-2.3163671637170014,9.176735893926024,-2.567557408633828
1667776291870741000,5.357740966796875,-2.212308531088382,9.201396872451902,-2.5710633709281683
1667776291880791800,5.367791748046875,-2.094583338287473,9.23019509691298,-2.566436880171299
1667776291890843000,5.3778427734375,-1.964285079639405,9.262560073944925,-2.5528303796231744
1667776291900895000,5.38789501953125,-1.820930063280463,9.297527342429756,-2.531911510235071
1667776291910945800,5.39794580078125,-1.663869031521678,9.333774713853002,-2.506500882385671
1667776291920996900,5.407996826171875,-1.4929691517636179,9.369873032194375,-2.479290803898871
1667776291931048000,5.4180478515625,-1.3074069787941873,9.404663190546632,-2.4522215951874853
1667776291941099000,5.42809912109375,-1.1041150148015468,9.437260807290672,-2.4268150589913127
1667776291951150800,5.43815087890625,-0.8827608860261738,9.466177689695357,-2.404699819425493
1667776291961202000,5.448201904296875,-0.6466876923508942,9.489814585870503,-2.3865489534460007
1667776291971253000,5.4582529296875,-0.4031327280854806,9.506778580152988,-2.372558568146825
1667776291981303800,5.4683037109375,-0.16150677738757804,9.516630696603656,-2.3617853913284836
1667776291991355000,5.47835498046875,0.07075932018889579,9.52042716627717,-2.3509248284876345
1667776292001406000,5.488406005859375,0.29155933591257777,9.5194732265532,-2.337729977480322
1667776292011458000,5.4984580078125,0.5010172021238133,9.514918047466873,-2.320714691402018
1667776292021508900,5.5085087890625,0.6973656671214848,9.50821124330461,-2.29738963765502
1667776292031560000,5.518559814453125,0.8753053823884576,9.500854450801015,-2.266713052101433
1667776292041611000,5.528611083984375,1.0284243985231964,9.494298453286289,-2.22957749966681
1667776292051662000,5.538662109375,1.1577470170721411,9.489671962529421,-2.185436452384293
1667776292061714000,5.5487138671875,1.268957567282021,9.487619121652841,-2.1319461236067117
1667776292071765000,5.558764892578125,1.3664138790361582,9.489060552632807,-2.064227655251324
1667776292081816000,5.568816162109375,1.4586271755702793,9.49388694987595,-1.9770866935454308
1667776292091867000,5.578866943359375,1.5521062542565165,9.500943882650136,-1.8690704093322157
1667776292101918000,5.58891796875,1.6470274945750831,9.50884544955492,-1.7434261139698326
1667776292111970000,5.598969970703125,1.7364060060746966,9.516832356655597,-1.6078502071797847
1667776292122020900,5.609020751953125,1.8166802968814968,9.523065698087215,-1.476923587500304
1667776292132072000,5.619072021484375,1.8947016941949724,9.524738015213607,-1.3637706710509956
1667776292142123000,5.629123046875,1.9764732378222047,9.521132099676132,-1.2696461340680718
1667776292152174000,5.639174072265625,2.0647452493846417,9.5121450756222,-1.1942954903338103
1667776292162226000,5.649225830078125,2.159752414420992,9.498145191842317,-1.1362645224519072
1667776292172277000,5.659277099609375,2.2592386245675384,9.480036119177937,-1.0932375008258968
1667776292182328000,5.669328125,2.3613101750321683,9.458760106915236,-1.061341164219007
1667776292192379000,5.67937890625,2.463750997200608,9.435182831972837,-1.0380953862532973
1667776292202430000,5.689429931640625,2.562617321883142,9.410358771839737,-1.0239703417237846
1667776292212481000,5.69948095703125,2.652873639130592,9.385652200606465,-1.020871425860375
1667776292222532900,5.709532958984375,2.7297601871952413,9.36242096262276,-1.0314455729752778
1667776292232584000,5.719583984375,2.792695074535906,9.341113386178016,-1.0558562300018965
1667776292242635000,5.729635009765625,2.8453794937580823,9.3213910330981,-1.0889712216835468
1667776292252686000,5.73968603515625,2.8926097392275927,9.302981516182422,-1.1214994995184242
1667776292262737200,5.749737060546875,2.936742310942709,9.285942118576168,-1.1476909755472093
1667776292272789000,5.7597890625,2.978616582337022,9.270451703977585,-1.1648896553684025
1667776292282840000,5.769840087890625,3.0175799347206946,9.25695567806661,-1.1718994610652327
1667776292292891100,5.77989111328125,3.0504701046705245,9.246543005123733,-1.168939515281096
1667776292302942000,5.78994189453125,3.0761957898184655,9.239639217084646,-1.156072654119134
1667776292312992800,5.79999267578125,3.0950515891969204,9.23625600438714,-1.132520805878937
1667776292323045000,5.810045166015625,3.10641849412471,9.236360633805393,-1.1000792564794422
1667776292333096000,5.820095947265625,3.109446317513287,9.23987302584052,-1.0613421140670776
1667776292343147000,5.83014697265625,3.103644060975313,9.246543005123733,-1.0194049335043878
1667776292353197800,5.84019775390625,3.089098818272352,9.255641672858596,-0.9802890209075062
1667776292363249000,5.850248779296875,3.0667347185119986,9.266332578220963,-0.9490243332676589
1667776292373299700,5.8602998046875,3.0374469569683074,9.277811419090629,-0.9308897608358413
1667776292383351800,5.870351806640625,3.002431757688522,9.289268048128486,-0.9301915494386106
1667776292393403000,5.88040283203125,2.963744007375836,9.300062998387217,-0.9462822680179029
1667776292403454000,5.890453857421875,2.921614299915731,9.310848596295713,-0.970916577732563
1667776292413504800,5.9005048828125,2.872235936501622,9.323714507609605,-0.994476536213979
1667776292423555800,5.910555908203125,2.8121120149284597,9.340257061609625,-1.0109456596516073
1667776292433608000,5.92060791015625,2.7410283079236746,9.360504899868369,-1.0188615473426879
1667776292443658800,5.93065869140625,2.663413445584476,9.382413949337602,-1.0231905164577066
1667776292453709800,5.940709716796875,2.590065885300934,9.402036349174379,-1.0313459119930863
1667776292463761000,5.950760986328125,2.529156658568978,9.417264313444495,-1.0435033827766775
1667776292473812000,5.96081201171875,2.480588442493975,9.429011449861527,-1.0539543419033288
1667776292483862800,5.97086279296875,2.4262794908098875,9.443695808774232,-1.048878134617582
1667776292493915000,5.980914794921875,2.3396786273300645,9.46878465732336,-1.0190149843387306
1667776292503966000,5.990966064453125,2.1946100850515067,9.508667754900454,-0.9691675421081483
1667776292514016800,6.001016845703125,1.9765086013965307,9.562306990629434,-0.9088801736015826
1667776292524067800,6.01106787109375,1.6816035717852413,9.624152329167723,-0.8475121702514589
1667776292534119000,6.021118896484375,1.3221160337567328,9.684635147181153,-0.7938651896074413
1667776292544170800,6.031170654296875,0.918500454057753,9.733742584699392,-0.7622300612200051
1667776292554221800,6.041221923828125,0.4992417534165084,9.763545602288842,-0.7709201481539756
1667776292564273000,6.05127294921875,0.12576242358302697,9.7710292360425,-0.8255614005323499
1667776292574324000,6.061323974609375,-0.14636505749565548,9.764017895975709,-0.9016144203823059
1667776292584374800,6.071374755859375,-0.3512594060504809,9.750685536193847,-0.9854559021513909
1667776292594427000,6.081427001953125,-0.5284012854706496,9.7338214951545,-1.0695391567870973
1667776292604478000,6.09147802734375,-0.6797747731123119,9.717635499507189,-1.1295355064578354
1667776292614528800,6.10152880859375,-0.8027334095872938,9.70366191921234,-1.1683154650986194
1667776292624579800,6.111579833984375,-0.9081319125175475,9.689678402045368,-1.206575418453291
1667776292634631000,6.121630859375,-1.0107941954169422,9.672843587100505,-1.2588745646849273
1667776292644681700,6.131681640625,-1.121792271919921,9.651457684722542,-1.3271592886209487
1667776292654733600,6.141733642578125,-1.2495930877290666,9.62494084919691,-1.4033578544214367
1667776292664784600,6.15178466796875,-1.3961379861705003,9.594422376814483,-1.4724863357052207
1667776292674835700,6.161835693359375,-1.5543619242288171,9.562447860404848,-1.521161373155564
1667776292684886800,6.17188671875,-1.7163370315141975,9.531182953569292,-1.5430901502385734
1667776292694937600,6.1819375,-1.8739442989788948,9.501267707777023,-1.5442235381826757
1667776292704989700,6.19198974609375,-2.0204571948468684,9.472500462976097,-1.5361824166767297
1667776292715040800,6.202040771484375,-2.1513319382086395,9.444797048014403,-1.5290395591847599
1667776292725091600,6.212091552734375,-2.275354185327142,9.414759052625298,-1.5347512148298321
1667776292735142700,6.222142578125,-2.4082047588065265,9.377668216115236,-1.5589298166662453
1667776292745193700,6.23219384765625,-2.5501404098868368,9.335906465184689,-1.583666198515892
1667776292755245600,6.24224560546875,-2.6928575667336583,9.292902020716667,-1.6002748034894465
1667776292765296600,6.252296630859375,-2.827161115500331,9.24959011773467,-1.6194512131243943
1667776292775347700,6.26234765625,-2.9448896693021056,9.207132785755395,-1.6512807681053876
1667776292785398800,6.272398681640625,-3.0421427135691044,9.168191352942586,-1.6911643040739
1667776292795449900,6.282449951171875,-3.1213904378071424,9.135105660420656,-1.7254389141194522
1667776292805501700,6.292501708984375,-3.1873335670530794,9.10801950057447,-1.747937600044906
1667776292815552800,6.302552734375,-3.2430247668758034,9.085779611715674,-1.761192510676384
1667776292825603800,6.312603759765625,-3.2887045680329203,9.068096070986986,-1.7676066155023873
1667776292835654700,6.322654541015625,-3.320609526337683,9.056332567957043,-1.768268878803402
1667776292845705700,6.332705810546875,-3.335641675774753,9.052119334176183,-1.761532556285709
1667776292855756800,6.3427568359375,-3.3323762442380187,9.056346011960505,-1.745927137005329
1667776292865808600,6.35280859375,-3.313352979338169,9.067198245364427,-1.7256854362264276
1667776292875859700,6.362859619140625,-3.285000452817976,9.081171241137385,-1.706309120105207
1667776292885910800,6.372910888671875,-3.248761849223077,9.09686565387547,-1.6920283735573292
1667776292895961900,6.3829619140625,-3.200672356575727,9.114676620376109,-1.6878260995618999
1667776292906012700,6.3930126953125,-3.1377389305397867,9.135423640328645,-1.6938161337569355
1667776292916064800,6.403064697265625,-3.0596231329411268,9.15930720474124,-1.707678070370853
1667776292926115800,6.41311572265625,-2.961872076024115,9.187339705526828,-1.7293064032025633
1667776292936166700,6.423166748046875,-2.835346467782557,9.221238467997312,-1.760668194541335
1667776292946217700,6.4332177734375,-2.672172798362374,9.262201762026548,-1.8004149523876607
1667776292956268800,6.443268798828125,-2.4719305042639372,9.30947555437684,-1.8421712964907286
1667776292966320600,6.453320556640625,-2.241049764665216,9.360877824833988,-1.8767102565608917
1667776292976371700,6.463371826171875,-1.9861621265351772,9.414125430896878,-1.8973164067380128
1667776292986422800,6.4734228515625,-1.711304005783051,9.466852812477946,-1.9027645891413092
1667776292996473900,6.483473876953125,-1.4180790382131934,9.517724337059258,-1.8900629284784196
1667776293006524700,6.493524658203125,-1.1055648482836782,9.566855739974976,-1.8502450050920247
1667776293016575500,6.503575439453125,-0.7715770776927471,9.61337725265324,-1.7770869760312138
1667776293026627800,6.5136279296875,-0.44008788245189934,9.654244685092568,-1.6650059265971182
1667776293036678700,6.5236787109375,-0.14437988416096195,9.688122404775022,-1.513210706412047
1667776293046729500,6.5337294921875,0.13513599013597705,9.710331313973665,-1.3643978630386293
1667776293056780500,6.543780517578125,0.4140033739289269,9.716575761321186,-1.2598133068397641
1667776293066831600,6.55383154296875,0.6817042068049312,9.712364281105994,-1.1728896411463618
1667776293076883500,6.563883544921875,0.9186182352185249,9.706378192433714,-1.0548761329233647
1667776293086934500,6.5739345703125,1.1362059241324662,9.699945529037713,-0.889085924329236
1667776293096985600,6.583985595703125,1.3593414564318955,9.686348965361713,-0.705161508629471
1667776293107036700,6.59403662109375,1.594842110916227,9.66086147288382,-0.5427999593097717
1667776293117087500,6.60408740234375,1.8400019896276294,9.623276130855082,-0.42112887842729685
1667776293127139600,6.6141396484375,2.0846260078966616,9.576733575388788,-0.3330490649687126
1667776293137190700,6.624190673828125,2.3207585305437446,9.524646245276928,-0.25607810828993094
1667776293147241500,6.634241455078125,2.542318922480941,9.469879466822743,-0.1684411797606386
1667776293157292500,6.64429248046875,2.743767085237801,9.414766651409863,-0.06556192507573869
1667776293167343600,6.654343505859375,2.9202120319023726,9.361703754264116,0.035442379749868996
1667776293177395500,6.6643955078125,3.072973905162513,9.312023485293984,0.11603456369969062
1667776293187446500,6.674446533203125,3.212755008557439,9.263916749250889,0.16871621557604521
1667776293197497600,6.68449755859375,3.340280149230361,9.218106015190482,0.19856310883983969
1667776293207548700,6.694548583984375,3.446210420949757,9.17860636397302,0.21728543629804625
1667776293217599700,6.704599853515625,3.5188425264403222,9.150666802167892,0.23109082041913642
1667776293227650600,6.714650634765625,3.551627774710953,9.137779263544083,0.23939114085054022
1667776293237702700,6.72470263671875,3.546551202099025,9.139786511713266,0.23796101671587674
1667776293247753700,6.734753662109375,3.504749119158089,9.1561355889678,0.228720127498731
1667776293257804500,6.744804443359375,3.4217464263007042,9.187797970688342,0.21543924217578023
1667776293267855600,6.754855712890625,3.2937183045417067,9.234954858660698,0.19340355238588525
1667776293277906700,6.76490673828125,3.120748048250377,9.295594913062454,0.15244539118949324
1667776293287958500,6.77495849609375,2.9096316011771557,9.364693583729863,0.08355081912628375
1667776293298009600,6.785009521484375,2.6685356109037994,9.43657750120163,-0.01676291304421029
1667776293308060700,6.795060791015625,2.4047008423388,9.506097612151503,-0.1481119924945291
1667776293318111700,6.80511181640625,2.1237648629777133,9.569316577130556,-0.29695385189987716
1667776293328162600,6.81516259765625,1.833746874755621,9.623637949904799,-0.4397398361992091
1667776293338214700,6.825214599609375,1.5482668222241103,9.667769937098026,-0.5545193674696609
1667776293348265700,6.835265625,1.3075421494811772,9.699307231134176,-0.6197988086424767
1667776293358316500,6.845316650390625,1.2077508189082145,9.713086165639757,-0.6063624770294874
1667776293368367600,6.85536767578125,1.2694821756780146,9.711283500131964,-0.49974816856868565
1667776293378418700,6.865418701171875,1.3331665662117302,9.70877590122521,-0.36427893702350556
1667776293388470500,6.875470458984375,1.257632017277926,9.721836458328365,-0.27318489031028
1667776293398521600,6.885521484375,1.0848317837912589,9.743857151478528,-0.22537920130668207
1667776293408572700,6.89557275390625,0.9343417279206215,9.76022727152109,-0.1879346742544323
1667776293418623700,6.905623779296875,0.8553982473261654,9.767891522538662,-0.16428254397753625
1667776293428674800,6.9156748046875,0.8306998593993484,9.769726921272277,-0.1809593005501665
1667776293438725600,6.9257255859375,0.8387174538992345,9.767711489796637,-0.2423386107455939
1667776293448777700,6.93577783203125,0.8552172647360712,9.763951845002174,-0.322870748770982
1667776293458828800,6.945828857421875,0.8548156981978565,9.761391054603457,-0.3935774026243016
1667776293468879600,6.955879638671875,0.8291061604671179,9.760860308727622,-0.45671084474436935
1667776293478930700,6.9659306640625,0.7785599223174154,9.762082543998956,-0.5157378379262983
1667776293488981800,6.975981689453125,0.7138727844819426,9.764017311453818,-0.569864199585095
1667776293499033600,6.98603369140625,0.6414353978458791,9.766355399012564,-0.6141841836310923
1667776293509084700,6.996084716796875,0.5556374117141589,9.769693603524566,-0.6440097783785314
1667776293519135700,7.0061357421875,0.4493338497029617,9.773590610963106,-0.6673929920535534
1667776293529186800,7.016186767578125,0.32768673421796407,9.775489722582698,-0.7090797049865126
1667776293539237600,7.026237548828125,0.19540312870526685,9.773439219793676,-0.7823536155119538
1667776293549288700,7.036288818359375,0.01039078533805441,9.768558462014793,-0.8634460908338427
1667776293559340800,7.0463408203125,-0.26835220945682375,9.761070152086019,-0.905479059921205
1667776293569391600,7.0563916015625,-0.5868544242873788,9.748334589153528,-0.8921624822303652
1667776293579442700,7.066442626953125,-0.8504377023093402,9.730939217716456,-0.8694568755559623
1667776293589493800,7.07649365234375,-1.0382076144561172,9.71229706108868,-0.8739469535168259
1667776293599544800,7.086544921875,-1.1901409279376267,9.692674076730013,-0.8977873363748192
1667776293609596700,7.0965966796875,-1.3325180391751228,9.670388595163821,-0.9372023780487477
1667776293619647700,7.106647705078125,-1.469271319181472,9.644273326176405,-0.9998029919337481
1667776293629698800,7.11669873046875,-1.5976023694097994,9.614728082740307,-1.0839927026186138
1667776293639750000,7.12675,-1.7174017381362616,9.583763620156049,-1.1714911725252866
1667776293649801500,7.136801513671875,-1.830821927219629,9.55358884664476,-1.2439559586249291
1667776293659853600,7.146853515625,-1.9422741772308945,9.52508931286931,-1.29252826635316
1667776293669904400,7.156904296875,-2.0531974349319935,9.497997307804226,-1.3201609541662036
1667776293679955500,7.16695556640625,-2.1530479483462868,9.473526298892498,-1.3368074069321154
1667776293690006500,7.177006591796875,-2.2293993666209277,9.45390214549005,-1.3505186830289662
1667776293700057600,7.1870576171875,-2.2866060855731365,9.43853389596641,-1.3623217874169349
1667776293710109400,7.197109375,-2.3351339696377513,9.426053769099711,-1.3663998505108057
1667776293720160500,7.207160400390625,-2.378898730953783,9.416448905408382,-1.3570935313746333
1667776293730211600,7.217211669921875,-2.4150100549072024,9.410507824921607,-1.3343341486863791
1667776293740262400,7.227262451171875,-2.4352589160792526,9.409287343215942,-1.3058357839547097
1667776293750313500,7.2373134765625,-2.4311387674093243,9.413395947578548,-1.2837158682137726
1667776293760365600,7.247365478515625,-2.3999054247558114,9.422701536062359,-1.2741760325826703
1667776293770416400,7.25741650390625,-2.3441312228247524,9.43607130524516,-1.2790540138825774
1667776293780467500,7.267467529296875,-2.2662546408094464,9.452524427396058,-1.2977924704916775
1667776293790518500,7.2775185546875,-2.165201181346178,9.472183067589997,-1.3266703360602259
1667776293800569600,7.287569580078125,-2.0383082010969518,9.495462236368656,-1.3608442622102797
1667776293810620700,7.29762060546875,-1.8809869109667836,9.522886249867081,-1.3953253546133637
1667776293820672500,7.307672607421875,-1.6863069271706044,9.554898760199546,-1.4250076684325932
1667776293830723600,7.3177236328125,-1.451770879934728,9.590727029427885,-1.4424603230148554
1667776293840774700,7.327774658203125,-1.1808277406692504,9.628483636370301,-1.438176946607232
1667776293850825500,7.337825439453125,-0.8833177161913365,9.665736969965696,-1.40130457515344
1667776293860876500,7.34787646484375,-0.584532118819654,9.699193833887577,-1.324521633593738
1667776293870928600,7.3579287109375,-0.3076746044112369,9.725673260012268,-1.2194323427431284
1667776293880979500,7.3679794921875,-0.048814929978223516,9.743560214358567,-1.1095236689120531
1667776293891030500,7.378030517578125,0.20148316100500524,9.753372583320736,-1.0007639459203928
1667776293901081600,7.38808154296875,0.4444055264553055,9.756538353875278,-0.8847907844185828
1667776293911132700,7.398132568359375,0.6766257344968617,9.753626265820861,-0.7611326213721186
1667776293921184500,7.4081845703125,0.8985744681645185,9.744071086490154,-0.6450196860734373
1667776293931235600,7.418235595703125,1.1141403689272702,9.727763510289787,-0.5474591467598453
1667776293941286700,7.42828662109375,1.3248678166829049,9.705744570705294,-0.46218167737089094
1667776293951337500,7.43833740234375,1.5356303357519208,9.678313542944192,-0.37744463500156994
1667776293961388300,7.44838818359375,1.7509467187330126,9.644773092392086,-0.28795906466459853
1667776293971440600,7.458440673828125,1.9685661179594693,9.605121465483307,-0.19176659883381797
1667776293981491500,7.468491455078125,2.1800993291400372,9.560796001544594,-0.09354851806010119
1667776293991542500,7.47854248046875,2.377240442352742,9.514148232138156,-0.009211734475431149
1667776294001593300,7.48859326171875,2.565483817230165,9.465026766094566,0.04391614791888278
1667776294011644400,7.49864453125,2.7578450026899572,9.410721175411343,0.05494320360017009
1667776294021695500,7.508695556640625,2.9622268808111545,9.348522201129793,0.026931565222807693
1667776294031747600,7.51874755859375,3.1709739684045313,9.279797039949893,-0.025681811756885144
1667776294041798400,7.52879833984375,3.3666800803780554,9.210272252824902,-0.08202702535879798
1667776294051849500,7.538849365234375,3.538220596127212,9.145307320961356,-0.12131049480861983
1667776294061900300,7.548900390625,3.679467972682416,9.089299602535366,-0.1287299864180386
1667776294071951400,7.558951416015625,3.785648712031543,9.04584040003717,-0.10962020314536057
1667776294082003500,7.56900341796875,3.8558673266395926,9.016434857332706,-0.0813485141758807
1667776294092054300,7.57905419921875,3.892656842115521,9.000792467042803,-0.05778495723158121
1667776294102105300,7.589105224609375,3.901834712566435,8.996897213169932,-0.04396920698010363
1667776294112156400,7.599156494140625,3.889598915849626,9.002221623063088,-0.037247196115553376
1667776294122207500,7.60920751953125,3.854944951097667,9.01713569907844,-0.03253662325482583
1667776294132259300,7.61925927734375,3.7891038209214805,9.04501856226027,-0.026493061924399805
1667776294142310400,7.629310302734375,3.67490081089735,9.09203341141343,-0.02062440963630797
1667776294152361500,7.639361572265625,3.498734096652269,9.161253078112006,-0.026577102929062676
1667776294162412300,7.649412353515625,3.2623177886277435,9.2478938352108,-0.06416398617762606
1667776294172463400,7.65946337890625,2.973604599393904,9.343945394733547,-0.13698558179172687
1667776294182514400,7.669514404296875,2.6446602297976614,9.44088367396295,-0.21414722960386423
1667776294192566300,7.679566162109375,2.303548014154285,9.528841358879207,-0.2554264394481666
1667776294202617300,7.689617431640625,1.99169097295925,9.599365678435564,-0.23612970963548868
1667776294212668400,7.69966845703125,1.8409090214699506,9.631504445496201,-0.12474460657630115
1667776294222719500,7.709719482421875,1.8927175346404312,9.62199310530722,0.07258597392705268
1667776294232770600,7.7197705078125,1.9154506138436496,9.61537514847219,0.214478123792354
1667776294242822400,7.729822509765625,1.8199451438963412,9.633643211090565,0.22604323643967508
1667776294252873500,7.73987353515625,1.697002654838562,9.657833064973353,0.1298187041033525
1667776294262924500,7.749924560546875,1.596424557802081,9.675781978639959,-0.032628849849232935
1667776294272975400,7.759975341796875,1.5412810549899936,9.682191845682263,-0.22358804357359185
1667776294283026400,7.7700263671875,1.492360956737399,9.683179103153943,-0.42344818822033703
1667776294293078500,7.78007861328125,1.4066023893006145,9.68827613403201,-0.5737316886682063
1667776294303129300,7.79012939453125,1.2983577031590043,9.699237088507413,-0.6398983975369483
1667776294313180400,7.800180419921875,1.1750444080274551,9.714339965093135,-0.649026291366294
1667776294323231500,7.8102314453125,1.038050889524445,9.730956753373146,-0.6334821007538587
1667776294333282600,7.820282470703125,0.8837768581356853,9.747217567822336,-0.617341697813943
1667776294343334400,7.83033447265625,0.708147904029116,9.761558227863906,-0.6171591808538883
1667776294353385500,7.840385498046875,0.5102427476413548,9.772078452834487,-0.6453780710570514
1667776294363436500,7.8504365234375,0.29831516684833914,9.776439570653437,-0.7089532290626317
1667776294373487400,7.8604873046875,0.09309248138829133,9.773464938756822,-0.8006809340368956
1667776294383538400,7.870538330078125,-0.09260811367114075,9.76530150604546,-0.8948021100189536
1667776294393590500,7.880590576171875,-0.2828180119817145,9.755152452474832,-0.9630229749385267
1667776294403641300,7.890641357421875,-0.5036883210292086,9.74338778040111,-0.9914977395989
1667776294413692400,7.9006923828125,-0.7498714418411254,9.728385441580414,-0.9831552970588207
1667776294423743500,7.910743408203125,-1.003474885379523,9.708186703160404,-0.9563092295788228
1667776294433794600,7.920794677734375,-1.2409142528414725,9.682100660267471,-0.9420537636026739
1667776294443845600,7.930845703125,-1.4471949503213166,9.651900752314925,-0.9575109335187822
1667776294453897500,7.9408974609375,-1.6201130380339919,9.621077744027971,-0.9901888489574193
1667776294463948500,7.950948486328125,-1.7665150208733975,9.590656886801122,-1.0339766988880932
1667776294473999600,7.96099951171875,-1.897403062108159,9.558756020149588,-1.0956379860963672
1667776294484050400,7.971050537109375,-2.0174097899749874,9.525001634585857,-1.172516496985033
1667776294494101500,7.9811015625,-2.124692206955701,9.491153140997886,-1.2546167611099779
1667776294504153600,7.991153564453125,-2.2184693918056784,9.459180378153919,-1.3314283442422747
1667776294514204400,8.001204345703124,-2.29916073898077,9.431459427535533,-1.3898888626478612
1667776294524255500,8.01125537109375,-2.3742102808766066,9.407864032414555,-1.4232412432819603
1667776294534306600,8.021306640625,-2.454452422979474,9.385483858302235,-1.4348293897449969
1667776294544357600,8.031357666015625,-2.5487682447507978,9.360366952702403,-1.4344669861733912
1667776294554409500,8.041409423828124,-2.6576439222723245,9.331361807492375,-1.4258255606867372
1667776294564460500,8.05146044921875,-2.7690812669754026,9.302117008307576,-1.4047053235076368
1667776294574511600,8.06151171875,-2.8677830487459897,9.276559957724809,-1.375364662732929
1667776294584562400,8.0715625,-2.941320870904624,9.256613732761144,-1.3542960096105932
1667776294594613500,8.081613525390624,-2.982717003393173,9.243582986274362,-1.3527581325188278
1667776294604664600,8.09166455078125,-2.9943147944673894,9.236706670764088,-1.3739347760602831
1667776294614716400,8.10171630859375,-2.9821809968203303,9.23470643685758,-1.413213770264387
1667776294624767500,8.111767578125,-2.9458243198037146,9.237734260246157,-1.468592397006601
1667776294634818600,8.121818603515624,-2.8795971129193902,9.247326264455914,-1.5379390510857105
1667776294644868900,8.131868896484375,-2.778965239869058,9.265021495622396,-1.6146550648890434
1667776294654920000,8.141919921875,-2.6435660048201677,9.292288857254386,-1.6838323537506161
1667776294664971800,8.1519716796875,-2.475473875959217,9.330186918494105,-1.729171086385101
1667776294675022800,8.16202294921875,-2.275632710007578,9.378385424473882,-1.7429159724906087
1667776294685074000,8.172073974609376,-2.047332926812768,9.433972871661185,-1.7259706829085946
1667776294695125000,8.182125,-1.804683423487097,9.492779865416884,-1.6735041442207992
1667776294705175800,8.19217578125,-1.5667976274318993,9.550838671153784,-1.580191215881705
1667776294715228000,8.202227783203124,-1.3276467798769473,9.605809447747468,-1.4615591373689472
1667776294725279000,8.212279052734376,-1.0734765693012625,9.655522449943422,-1.33749378176108
1667776294735329800,8.222329833984375,-0.8039590789247304,9.696809569099544,-1.2230890386197715
1667776294745380900,8.232380859375,-0.5218624948190524,9.72796341677606,-1.1246245727363973
1667776294755432000,8.242431884765624,-0.23038380466094238,9.749385559511184,-1.0328619425792247
1667776294765483800,8.25248388671875,0.05953174609998241,9.761638307362794,-0.9366058734603225
1667776294775534800,8.262534912109375,0.34180779669210315,9.764914552554488,-0.8366628594569862
1667776294785586000,8.2725859375,0.6127644164936616,9.759041276606917,-0.7456525089718401
1667776294795637000,8.282636962890624,0.8723157721184194,9.744609431150556,-0.6723285487595945
1667776294805687800,8.292687744140625,1.1253413427036254,9.722476509797573,-0.6143508454348892
1667776294815740000,8.302739990234375,1.3755207300774752,9.693045832651853,-0.5684972586134448
1667776294825791000,8.312791015625,1.6229662355080245,9.656411507737635,-0.5386095584152266
1667776294835841800,8.322841796875,1.8660243196345865,9.61305985726714,-0.5267029571201652
1667776294845892900,8.332892822265626,2.1018781714707613,9.564276244875789,-0.5264324330830946
1667776294855944000,8.34294384765625,2.330732665938884,9.511133852753042,-0.5257621691387147
1667776294865995000,8.3529951171875,2.5587729214146733,9.453017179349064,-0.5133870370164513
1667776294876046800,8.363046875,2.798870548300445,9.38621977136135,-0.48533597766086456
1667776294886098000,8.373097900390626,3.058343030002713,9.306861572486161,-0.4463566605230793
1667776294896149000,8.38314892578125,3.3273093162372707,9.216081231364607,-0.40400797655005005
1667776294906199800,8.39319970703125,3.569095334601402,9.126709587997198,-0.3675872213212773
1667776294916251000,8.4032509765625,3.7510356638118623,9.054887045323849,-0.3303521540349349
1667776294926303000,8.413302978515626,3.867957285144925,9.007491087898611,-0.2727330366232432
1667776294936354000,8.42335400390625,3.9282533484145996,8.983253303220868,-0.20091708808746186
1667776294946404900,8.43340478515625,3.95030589800775,8.974797025042772,-0.1359338807817083
1667776294956456000,8.4434560546875,3.9450893324032426,8.977650076386333,-0.09192607709057629
1667776294966506800,8.4535068359375,3.9024873312562702,8.996389263647794,-0.0771525055244565
1667776294976558800,8.463558837890625,3.8117937916353344,9.034958940538763,-0.10046184111251495
1667776294986610000,8.47360986328125,3.6710321527704592,9.092095955255628,-0.16650127947293222
1667776294996661000,8.483660888671874,3.486683301113546,9.162068486148119,-0.2644301771748811
1667776295006711800,8.4937119140625,3.2715745695337652,9.237770500603318,-0.3616066125417128
1667776295016762600,8.5037626953125,3.045117929987609,9.312449601751565,-0.41940537910293785
1667776295026813700,8.513813720703125,2.827706474423408,9.38151963084638,-0.40194936351981014
1667776295036866000,8.523865966796874,2.6609742357388138,9.434601817214489,-0.2790424206994474
1667776295046916600,8.53391650390625,2.613335993990302,9.45181131069064,-0.06400366734964773
1667776295056967700,8.5439677734375,2.6790909071877596,9.432616780877114,0.13636220746268518
1667776295067018800,8.554018798828125,2.7523843991965053,9.409695339494943,0.22887109854305163
1667776295077069800,8.56406982421875,2.752539882019162,9.409579604160784,0.23175944039570165
1667776295087121700,8.57412158203125,2.6192913952633736,9.448812128874659,0.17211113697765393
1667776295097172700,8.5841728515625,2.3568318605743346,9.519144140729308,0.04048515055689495
1667776295107223800,8.594223876953125,2.0598536779507994,9.586480477899313,-0.16368706230241806
1667776295117275000,8.60427490234375,1.8357013698242604,9.62514660090208,-0.39641591398585585
1667776295127325700,8.61432568359375,1.7151611196026204,9.640670333248377,-0.5348850945319981
1667776295137377800,8.624377685546875,1.6447184869803488,9.65269161043167,-0.5392835852192714
1667776295147428900,8.634428955078125,1.5485025306761264,9.671481066575646,-0.48475419571753586
1667776295157479700,8.644479736328124,1.3947531076833606,9.69719301545918,-0.4352959720002487
1667776295167530800,8.65453076171875,1.184377542105317,9.726034494540094,-0.4145744152825325
1667776295177581800,8.664581787109375,0.9399585448890924,9.751970315307378,-0.4311880982900038
1667776295187633700,8.674633544921875,0.7013060022450983,9.769039523530006,-0.4943871164595708
1667776295197684700,8.684684814453124,0.49355983532257375,9.77509049413204,-0.6118730571445077
1667776295207735800,8.69473583984375,0.29010104512935503,9.773107795882224,-0.7567139281470329
1667776295217787000,8.704786865234375,0.10742907717609777,9.766430217814445,-0.8807146210208535
1667776295227837700,8.714837646484375,-0.01757770345074823,9.759466808542609,-0.9606751697033643
1667776295237889800,8.724889892578124,-0.1185871616587974,9.754662623131274,-1.0014357077021152
1667776295247940900,8.73494091796875,-0.23857487429790197,9.751469964569807,-1.0110917170587927
1667776295257991700,8.74499169921875,-0.4036894851854071,9.7474519611001,-0.9972958314184099
1667776295268042800,8.755042724609375,-0.6180405667982996,9.739010880491136,-0.9695737848214805
1667776295278093800,8.76509375,-0.8677291749805212,9.722848265719414,-0.9400224039055407
1667776295288145700,8.775145751953126,-1.119523669400811,9.698834937447309,-0.9217521493300795
1667776295298196700,8.78519677734375,-1.3166590835250913,9.673941903731226,-0.9228449860680847
1667776295308247800,8.795247802734375,-1.4382377368837593,9.655175828462838,-0.9377827352199702
1667776295318299000,8.805298828125,-1.5134225955970584,9.64176397370398,-0.9572555705182254
1667776295328350000,8.815349853515626,-1.5943988971933722,9.626647653114794,-0.977717343788594
1667776295338400800,8.82540087890625,-1.7208076010569928,9.60284124559164,-0.9973262996219098
1667776295348452900,8.835452880859375,-1.888723496568203,9.56925227972269,-1.0161179477229714
1667776295358504000,8.84550390625,-2.0603034675449132,9.531742925539612,-1.0350892632398754
1667776295368554800,8.8555546875,-2.1980054265782236,9.498334576934575,-1.0586731140535324
1667776295378605800,8.865605712890625,-2.292949170989543,9.472012387198209,-1.092589485245943
1667776295388657000,8.875656982421875,-2.3612904474183916,9.449492512354254,-1.1409593292046338
1667776295398708700,8.885708740234374,-2.417601240444183,9.427814933553337,-1.2007846331574021
1667776295408759800,8.895759765625,-2.4553335897281765,9.40964623965621,-1.265023296573013
1667776295418811000,8.905810791015625,-2.450962096645683,9.401534244871138,-1.3320340550504624
1667776295428862000,8.915862060546875,-2.388574760185182,9.406479884579777,-1.4082662308596074
1667776295438912800,8.925912841796874,-2.2701858427785337,9.422432071471214,-1.494794905886054
1667776295448964900,8.93596484375,-2.1044034521646795,9.446563473165035,-1.5825037306077778
1667776295459016000,8.946015869140625,-1.8972168918862937,9.477899107149243,-1.6554121688216923
1667776295469066800,8.956066650390625,-1.6570976376906037,9.516166001701354,-1.6932235746912658
1667776295479117800,8.966117919921874,-1.3967388746730982,9.562057399782537,-1.6692993860073386
1667776295489169000,8.9761689453125,-1.1281162873096764,9.615460488668084,-1.5622684595696628
1667776295499220700,8.986220703125,-0.873115178867802,9.669987028625608,-1.3781884879820048
1667776295509271800,8.996271728515625,-0.6301739260539412,9.71604443092346,-1.1712069487564265
1667776295519323000,9.006322998046874,-0.38038525503072884,9.74715560850203,-1.0092690316762774
1667776295529374000,9.0163740234375,-0.11694333084137178,9.764262810647487,-0.903275193201378
1667776295539425000,9.026425048828125,0.1587552319234237,9.76847429086268,-0.8497682786151767
1667776295549476900,9.036476806640625,0.43629057252816855,9.760996502327918,-0.8384523001570254
1667776295559528000,9.04652783203125,0.7100980151835828,9.745469847372174,-0.8318423804979771
1667776295569579000,9.0565791015625,0.9815565566252916,9.724809921181201,-0.7968460320491343
1667776295579629800,9.0666298828125,1.2514940990447998,9.698940735909343,-0.7312334499318153
1667776295589681000,9.076680908203125,1.5214115485243498,9.665936876451969,-0.652203313967213
1667776295599732000,9.08673193359375,1.7940616378381846,9.624262219282985,-0.5703431787410751
1667776295609783800,9.09678369140625,2.0625632291704417,9.575158873417973,-0.4822342122532427
1667776295619835000,9.1068349609375,2.312982343584299,9.522192422384023,-0.3851709184046834
1667776295629886000,9.116885986328125,2.5373484405919906,9.46856195448339,-0.28029349847277624
1667776295639937000,9.12693701171875,2.736120369876921,9.415645772331953,-0.1721915270037949
1667776295649988000,9.136988037109376,2.9156597754254934,9.362940602582693,-0.06839250885916408
1667776295660040200,9.147040283203125,3.091475192014873,9.30658450911045,0.026120808245637454
1667776295670091300,9.15709130859375,3.2824650891214606,9.240354087355731,0.10818252589190377
1667776295680142000,9.16714208984375,3.5040409708887337,9.157679895800351,0.17016382056847212
1667776295690193200,9.177193115234376,3.753723587721586,9.0573665871799,0.20982753977384416
1667776295700244200,9.187244140625,3.9999107636541127,8.9507252445817,0.23589951760880648
1667776295710296000,9.197296142578125,4.202555150458217,8.856793745952844,0.2572036417211406
1667776295720347100,9.20734716796875,4.349242379979789,8.78518572281301,0.2738809097504243
1667776295730398200,9.217398193359376,4.448070418478548,8.735583779776096,0.2732162170303054
1667776295740449300,9.22744921875,4.5134667274966835,8.702852892041205,0.2436115715571679
1667776295750500000,9.2375,4.5539352237463,8.683118264001607,0.18846565759228542
1667776295760552200,9.24755224609375,4.570381039373577,8.675800049942731,0.11174409083100036
1667776295770603300,9.257603271484374,4.556626654787362,8.683740779814123,0.013111590887361671
1667776295780654000,9.267654052734375,4.505168854750693,8.709961847263575,-0.1019473304299172
1667776295790705200,9.277705078125,4.409161426630616,8.756663977205752,-0.2247826601856388
1667776295800756200,9.287756103515624,4.259823974861204,8.826412051692605,-0.34459753700848667
1667776295810807300,9.297807373046876,4.050083492316306,8.919918018385767,-0.44976022188887
1667776295820859100,9.307859130859375,3.780546128195524,9.032910775837301,-0.533239555814676
1667776295830910200,9.31791015625,3.463639402395487,9.15561244187653,-0.5902196994693949
1667776295840961300,9.327961181640624,3.1289734402820466,9.274203165465593,-0.607505655715242
1667776295851012400,9.338012451171876,2.8430080884516236,9.368636768397689,-0.5624702534088865
1667776295861063200,9.348063232421875,2.680736920829117,9.42213922600448,-0.4553165043091401
1667776295871115300,9.358115234375,2.606384567417204,9.447054471552372,-0.36099659088458863
1667776295881166300,9.368166259765625,2.5771307081431147,9.456582178354262,-0.31914701554011554
1667776295891217200,9.378217041015626,2.619680686841905,9.444906353607774,-0.31848705379404124
1667776295901268200,9.388268310546875,2.71158827842772,9.41828138153255,-0.33713856277205045
1667776295911319300,9.3983193359375,2.79504689835906,9.393304176664351,-0.35205826481059194
1667776295921371100,9.40837109375,2.818029422278702,9.386853977611661,-0.34067988864071663
1667776295931422200,9.418422119140626,2.7338813587784765,9.41320539344251,-0.29638363253017885
1667776295941473300,9.428473388671875,2.527311907485127,9.472522090286017,-0.23319066050890833
1667776295951524400,9.4385244140625,2.2229342622600496,9.549729248607157,-0.1777160808452405
1667776295961575200,9.4485751953125,1.8546857640184462,9.628141106542945,-0.1715532838991843
1667776295971627300,9.458627197265624,1.4461683837525545,9.696316817146538,-0.24578307037735356
1667776295981678300,9.46867822265625,1.1146532868854702,9.734936762920022,-0.3986951474968344
1667776295991729200,9.478729248046875,1.0027704634372145,9.738348617190121,-0.573924982750602
1667776296001780200,9.4887802734375,0.9575010697118937,9.733764796531199,-0.7123313271936029
1667776296011831300,9.498831298828126,0.9157258017126471,9.733362060949206,-0.7703795384712517
1667776296021883100,9.508883056640625,0.8432805240310728,9.74053589810133,-0.7623578523181378
1667776296031934200,9.518934326171875,0.7307170979075134,9.75259926086068,-0.7233673927318305
1667776296041985300,9.5289853515625,0.5923665022397413,9.765281047779322,-0.6773414084855467
1667776296052036400,9.539036376953124,0.44317591159511355,9.775579154431819,-0.6419033806838095
1667776296062087200,9.549087158203125,0.2946871490769088,9.78204805818498,-0.6285696326624601
1667776296072139300,9.55913916015625,0.1526815654323902,9.784348736342787,-0.6431015044271946
1667776296082190300,9.5691904296875,0.01562945203487179,9.78251626021862,-0.6874096519049256
1667776296092241400,9.579241455078124,-0.12260490940017625,9.776651752099394,-0.7565884020712226
1667776296102292000,9.5892919921875,-0.26593230709983035,9.767322782739996,-0.8361019376385956
1667776296112343000,9.599343017578125,-0.4214484292378649,9.75523194745183,-0.9100584236007183
1667776296122394000,9.60939404296875,-0.6315298707075416,9.739515907403826,-0.9557161590564995
1667776296132446200,9.6194462890625,-0.9169117966268211,9.717340315952896,-0.950239481211081
1667776296142497000,9.6294970703125,-1.2190931008514017,9.68842810972333,-0.9047438775144517
1667776296152548000,9.639548095703125,-1.4681298940613865,9.658304189616441,-0.8556558753490447
1667776296162599200,9.64959912109375,-1.6544798564076422,9.62979004279375,-0.8368015372753143
1667776296172650000,9.65964990234375,-1.807602233543247,9.600686113384365,-0.8542831256911158
1667776296182702000,9.6697021484375,-1.9521501129485666,9.568613981819153,-0.8950469516254961
1667776296192753200,9.679753173828125,-2.09500317113474,9.532912553840875,-0.9512809530880302
1667776296202804000,9.689803955078125,-2.2315157742530105,9.494527001345157,-1.0220867929995059
1667776296212855000,9.69985498046875,-2.3574581757791337,9.45520562930405,-1.1008353355437517
1667776296222906000,9.709906005859375,-2.475070555855334,9.415929265448451,-1.1767306075487285
1667776296232958000,9.7199580078125,-2.5865327427387235,9.376966789847613,-1.246083472172916
1667776296243009000,9.730009033203125,-2.690716755312681,9.33856837787032,-1.3120771625623107
1667776296253060000,9.74006005859375,-2.7899028134688733,9.300919907477498,-1.3710269257895649
1667776296263111200,9.750111083984375,-2.8887141930937767,9.263705736848712,-1.41755384529531
1667776296273162200,9.760162353515625,-2.986348345632851,9.22760215781033,-1.450325941823423
1667776296283214000,9.770214111328125,-3.0769810949772594,9.194082750046253,-1.4735672628097236
1667776296293265200,9.78026513671875,-3.1575635749503967,9.163543819397688,-1.4932028143890201
1667776296303316200,9.790316162109375,-3.228853618182242,9.1352278254956,-1.514097572249174
1667776296313367000,9.800366943359375,-3.285100113800168,9.110334791779518,-1.5428239005178213
1667776296323418000,9.810418212890625,-3.3254002677455543,9.088933691832423,-1.582206501226872
1667776296333469200,9.82046923828125,-3.356727718423307,9.06887114701271,-1.6304451930865644
1667776296343521000,9.83052099609375,-3.386503263483941,9.047446666190028,-1.6869140992835163
1667776296353572000,9.840572021484375,-3.4160122665628787,9.024526978373528,-1.7490484838962554
1667776296363623200,9.850623046875,-3.437138933482766,9.002798546168208,-1.8182602595493196
1667776296373674200,9.86067431640625,-3.4357816736549136,8.98585968632698,-1.9026617132887242
1667776296383725000,9.87072509765625,-3.400545232839882,8.97668210813701,-2.0064543884575365
1667776296393777200,9.880777099609375,-3.3307097723305223,8.976807780343293,-2.1198262083545325
1667776296403828200,9.890828125,-3.232587251752615,8.987150310659407,-2.2252812637776134
1667776296413879000,9.900879150390624,-3.1122277649253607,9.00816796424687,-2.310268992972374
1667776296423930000,9.91093017578125,-2.9674975146904585,9.042074325501918,-2.3675397170715033
1667776296433981200,9.920981201171875,-2.7996087994471193,9.090229576861859,-2.3875283198721706
1667776296444033000,9.931032958984375,-2.6150679323494432,9.151530725520848,-2.36247790363729
1667776296454084000,9.941083984375,-2.4198406899340448,9.223548498505354,-2.2893051153987645
1667776296464135200,9.95113525390625,-2.226663950307667,9.301509690064192,-2.1666265379741785
1667776296474186200,9.961186279296875,-2.04437802252993,9.37911256970465,-2.005784234111011
1667776296484237300,9.9712373046875,-1.8675092974953353,9.454159335121512,-1.8170491301938891
1667776296494289200,9.9812890625,-1.679326859024912,9.527097730082273,-1.6076839107021688
1667776296504340200,9.99134033203125,-1.466522604995221,9.59629401590526,-1.389542241167277
1667776296514391300,10.001391357421875,-1.2269665376402437,9.657771690174936,-1.1799931895412503
1667776296524442000,10.011442138671875,-0.9699669488575309,9.707464818626642,-0.9973254959043115
1667776296534493200,10.0214931640625,-0.7036500811532139,9.743732648316024,-0.8572725898306817
1667776296544545300,10.031545166015626,-0.4313648796290159,9.766946935164928,-0.7687967993244529
1667776296554596000,10.04159619140625,-0.15130035847336984,9.778447403344511,-0.7276371790055185
1667776296564647200,10.051647216796875,0.14583791008270344,9.77889806972146,-0.7226784606195986
1667776296574698200,10.0616982421875,0.46277869341596956,9.767240365153551,-0.7464704012259841
1667776296584749300,10.071749267578125,0.7971607970867306,9.742498138085008,-0.7865303166747093
1667776296594801200,10.08180126953125,1.1462452337183058,9.704321844425797,-0.8262155535921454
1667776296604852200,10.091852294921875,1.4960589344725013,9.654607088664173,-0.8489773474331944
1667776296614903300,10.1019033203125,1.822843787947297,9.59887175743878,-0.8421686903316528
1667776296624954000,10.1119541015625,2.107390066760033,9.543568387889861,-0.8059793327059597
1667776296635005200,10.122005126953125,2.352530363988131,9.490746898284554,-0.749482442523539
1667776296645057300,10.132057373046875,2.5822122491911053,9.436724216195941,-0.6714467974890023
1667776296655108000,10.142108154296874,2.817794736739993,9.37544235675931,-0.5757914707422256
1667776296665159200,10.1521591796875,3.0655411248132585,9.302881562939286,-0.4787991597706452
1667776296675210200,10.162210205078125,3.317553061376512,9.219978238803147,-0.39523148997426033
1667776296685261300,10.17226123046875,3.5596041604176163,9.131756349992752,-0.3326226927828044
1667776296695312400,10.1823125,3.777052733121812,9.04572466470301,-0.2812452279733494
1667776296705364200,10.1923642578125,3.9581381990686055,8.969428191486001,-0.2300169623762369
1667776296715415300,10.202415283203125,4.099900831669569,8.906680935671925,-0.17961113734422252
1667776296725466400,10.21246630859375,4.208343086209893,8.856683271315694,-0.13925585567811502
1667776296735517200,10.22251708984375,4.292596655911207,8.816431340426206,-0.12067142058694734
1667776296745568300,10.232568359375,4.356503603154421,8.784871250036359,-0.1315510077886749
1667776296755620400,10.242620361328125,4.390878750964999,8.76713101068437,-0.16733539220951496
1667776296765671200,10.252671142578125,4.377903534057737,8.772607396268844,-0.21382871997291222
1667776296775722200,10.26272216796875,4.294859047885239,8.81224616369605,-0.262441158782132
1667776296785773300,10.272773193359376,4.127243596625328,8.889949581101536,-0.3241453352840617
1667776296795824400,10.282824462890625,3.880450856015086,8.996814211061597,-0.41207890867237
1667776296805876200,10.292876220703125,3.569923894380033,9.119255764859915,-0.5149951663328335
1667776296815927300,10.30292724609375,3.213671831141412,9.245226661828159,-0.6070054511081427
1667776296825978400,10.312978271484376,2.8407150090783833,9.362373031827806,-0.6683275694899261
1667776296836029000,10.32302880859375,2.5356068576216697,9.448841939491032,-0.6786030989844352
1667776296846080000,10.333080078125,2.514285252651572,9.461825924226641,-0.5679749883050099
1667776296856132400,10.34313232421875,2.7025299427032468,9.417840652027726,-0.41347281071618197
1667776296866183200,10.35318310546875,2.8219153238013384,9.384171606659889,-0.38012053967993703
1667776296876234000,10.36323388671875,2.78481688850671,9.393077382171153,-0.43040816342607136
1667776296886285000,10.37328515625,2.7125851805105805,9.411830013436079,-0.4792814268622547
1667776296896336100,10.383336181640624,2.714426424463093,9.408333988013863,-0.5343324656179175
1667776296906388200,10.39338818359375,2.8154133945614097,9.374613504719733,-0.6003603140052408
1667776296916439000,10.40343896484375,2.988239273945987,9.320286871248483,-0.6107786860365421
1667776296926490000,10.413489990234375,3.132622318178415,9.27612799604833,-0.557243129877746
1667776296936541200,10.423541259765624,3.152576434187591,9.272292947930097,-0.5061978926973417
1667776296946592000,10.433592041015626,3.037706484687328,9.310672070685028,-0.5041114052794874
1667776296956644000,10.44364404296875,2.8973867443710564,9.355535294762253,-0.4995108526814729
1667776296966695200,10.453695068359375,2.7815225231364367,9.393892790207266,-0.43391909415647384
1667776296976746000,10.46374609375,2.660136615870893,9.433466091182828,-0.3221563534239307
1667776296986797000,10.473797119140626,2.5111796878516675,9.477744208848476,-0.19171685967426746
1667776296996848000,10.48384814453125,2.309452854283899,9.530621228033304,-0.06400016935146413
1667776297006899200,10.493899169921875,2.0386774728007615,9.592226328074931,0.05830216777240857
1667776297016951000,10.503950927734374,1.6942178464256226,9.657757077127695,0.1665072708223015
1667776297027002000,10.514002197265626,1.3086477726355195,9.715697809442878,0.2511073889389634
1667776297037053200,10.52405322265625,0.9448633411306887,9.756717217573524,0.29000439808815714
1667776297047104000,10.53410400390625,0.6703335755500942,9.780552851191162,0.24864810441965235
1667776297057155000,10.544155029296874,0.5602652541778982,9.789963069093227,0.11454708335460163
1667776297067207200,10.554207275390626,0.5959510461956262,9.788107212093472,-0.09054541812082752
1667776297077258000,10.564258056640625,0.6801257054418325,9.77809435212314,-0.3108879039019346
1667776297087309000,10.57430908203125,0.7063456038475037,9.769122525638341,-0.48547860100194806
1667776297097360100,10.584360107421874,0.6229556652382016,9.76921838722825,-0.5870935668054967
1667776297107411200,10.5944111328125,0.43959787044525145,9.777053903159498,-0.6215847422111779
1667776297117463000,10.604463134765625,0.19465906887231393,9.785904149091243,-0.607114756701514
1667776297127514000,10.61451416015625,-0.07420036858743988,9.790160052970052,-0.5635950927203521
1667776297137565200,10.624565185546874,-0.3452570968957618,9.78718016037643,-0.51214448960945
1667776297147616300,10.6346162109375,-0.6085097547238693,9.77639923864305,-0.4713188870178535
1667776297157667000,10.6446669921875,-0.8490263011414557,9.759069918179511,-0.45834578900244083
1667776297167719200,10.65471923828125,-1.0474126651749014,9.738726218330859,-0.4801264263190329
1667776297177770200,10.664770263671874,-1.2010049248445778,9.71847195033133,-0.5284476088304072
1667776297187821000,10.674821044921876,-1.3192175358362495,9.699526426842809,-0.590966572313942
1667776297197872000,10.6848720703125,-1.4101266179040073,9.682540805250406,-0.6559904312904924
1667776297207923200,10.694923095703125,-1.4826903343334794,9.667416885876655,-0.7162788957756012
1667776297217975000,10.70497509765625,-1.545948900670558,9.653390698611735,-0.7697375873059034
1667776297228026000,10.715026123046876,-1.6157722323507069,9.63823813766539,-0.8148780208893119
1667776297238077200,10.7250771484375,-1.710134231351316,9.618755438560246,-0.8516817110210657
1667776297248128300,10.735128173828125,-1.8311980670556425,9.593615736606717,-0.8829651764266192
1667776297258179000,10.745178955078124,-1.9586926664598285,9.565902969294786,-0.9096248544890433
1667776297268231200,10.755231201171876,-2.068110195773095,9.54073696385622,-0.9314761093564331
1667776297278282200,10.7652822265625,-2.1507646597146985,9.520088143581152,-0.955261254895851
1667776297288333000,10.7753330078125,-2.208783571832627,9.50360462629199,-0.9864876563519239
1667776297298384100,10.785384033203124,-2.2500337199792266,9.489657934004068,-1.0267032007537782
1667776297308435200,10.795435302734376,-2.2983995453499255,9.472930086565016,-1.0730098285723477
1667776297318486300,10.805486328125,-2.3788934702567754,9.447655944576859,-1.1193952207155524
1667776297328538000,10.8155380859375,-2.5007503560349345,9.4109503079921,-1.1621634452749043
1667776297338589200,10.825589111328124,-2.6536212426275014,9.363808033066988,-1.203244520464912
1667776297348640300,10.83564013671875,-2.811788774323463,9.31124724022448,-1.2509551698625088
1667776297358691300,10.84569140625,-2.9479280140846966,9.260885418730973,-1.3100010869406162
1667776297368742100,10.8557421875,-3.0467680352821946,9.217165519469976,-1.389764797876775
1667776297378794200,10.865794189453124,-3.1091093406438826,9.180521257683635,-1.4905872250631451
1667776297388845300,10.87584521484375,-3.13995251493603,9.151042065221072,-1.6029750023588538
1667776297398896000,10.885896240234375,-3.1475548066332935,9.128795746621488,-1.711249937508255
1667776297408947200,10.895947265625,-3.1425691271752116,9.113433342316746,-1.7999897127129136
1667776297418998300,10.905998291015624,-3.1334500011742112,9.103701637375353,-1.8640005587220192
1667776297429050000,10.916050048828126,-3.1165351067304607,9.100927496486902,-1.9054433068312704
1667776297439101200,10.92610107421875,-3.0815128931879996,9.108658382999897,-1.9253559217862783
1667776297449152300,10.93615234375,-3.0274525094375013,9.128433343049883,-1.9174498248368501
1667776297459203300,10.946203369140624,-2.95999751432389,9.158883426371217,-1.8771417798459529
1667776297469254100,10.956254150390626,-2.876094073234498,9.198876414063573,-1.810842384508252
1667776297479306200,10.96630615234375,-2.76502965349704,9.248575972256065,-1.728825195556879
1667776297489357300,10.976357421875,-2.614702898429334,9.309377939221262,-1.633765861941874
1667776297499408100,10.986408203125,-2.411057517889142,9.381749932470917,-1.5296869171775878
1667776297509459200,10.996459228515626,-2.149843599347025,9.462112339952588,-1.4202053827174006
1667776297519510300,11.00651025390625,-1.8439315841615198,9.542722584715484,-1.3064230823233722
1667776297529562000,11.01656201171875,-1.5102226305119693,9.616222120690345,-1.1907511687904595
1667776297539613200,11.02661328125,-1.1639565392367541,9.678196054044365,-1.0714924097467213
1667776297549664300,11.036664306640626,-0.8217223338261246,9.72591116042137,-0.9496396886870264
1667776297559715300,11.04671533203125,-0.496417745504342,9.758801038110256,-0.8305167579174041
1667776297569766400,11.056766357421875,-0.19845707291578873,9.778032977324724,-0.7218516544066369
1667776297579818200,11.066818359375,0.06804088240989949,9.786150817328691,-0.6300696619618684
1667776297589869300,11.076869384765626,0.30810638342462476,9.785901811003685,-0.5581782187707722
1667776297599920400,11.08692041015625,0.5387868877435102,9.778989255136251,-0.5014616944883018
1667776297609971200,11.09697119140625,0.7731485647931694,9.765583830118178,-0.45386130053214724
1667776297620022000,11.10702197265625,1.0153649373985827,9.745492643725871,-0.40595878182426093
1667776297630074400,11.117074462890624,1.2658036332957445,9.718351538822054,-0.3489380138982087
1667776297640125200,11.127125244140625,1.5194216898813844,9.684263391259313,-0.27709132316429164
1667776297650176300,11.13717626953125,1.7828154366806148,9.641469374671578,-0.18455409190542996
1667776297660227000,11.14722705078125,2.0777922163538634,9.583813889038563,-0.060620641881809566
1667776297670278100,11.157278076171876,2.3979944765679537,9.508466679370402,0.09515180680458434
1667776297680330200,11.167330322265625,2.7001711046174166,9.423916757071018,0.2632082706971094
1667776297690381300,11.17738134765625,2.9556340584173797,9.340694868505,0.4313218807375058
1667776297700432100,11.18743212890625,3.169167503504455,9.261610225874184,0.5910764624292031
1667776297710483200,11.197483154296876,3.362458371029794,9.183113027742504,0.7312364456064999
1667776297720534000,11.207533935546875,3.55524158129394,9.100227823784946,0.8464652915470302
1667776297730585000,11.217585205078125,3.756785313379764,9.010582039651274,0.9307744638931006
1667776297740637200,11.22763720703125,3.9605797470018267,8.91763896753788,0.9797395703312008
1667776297750688000,11.23768798828125,4.147925734648108,8.829958345997333,0.9984661903720349
1667776297760739000,11.247739013671875,4.302302057367563,8.755830448991059,0.9980269952371716
1667776297770790100,11.2577900390625,4.421479348672926,8.6978488001436,0.9840493232890963
1667776297780841200,11.26784130859375,4.505797508043051,8.657105870866776,0.9605701749589294
1667776297790893000,11.27789306640625,4.554636650013923,8.634736802670359,0.9311296340063214
1667776297800944000,11.287944091796875,4.565518109512329,8.632605635860562,0.8969698825120925
1667776297810995200,11.2979951171875,4.532931598684192,8.653398248520492,0.8611728852048516
1667776297821046000,11.3080458984375,4.4530388545408846,8.698025910276174,0.8277348721139133
1667776297831097000,11.31809716796875,4.324951988331973,8.765523575487732,0.7942083039566874
1667776297841149200,11.328149169921875,4.145342147895693,8.855673802012205,0.7507141032103448
1667776297851200000,11.338199951171875,3.9146836727455256,8.965841565170884,0.6777228090185672
1667776297861251000,11.3482509765625,3.650723231974244,9.083793990856408,0.5721502646956592
1667776297871302100,11.35830224609375,3.371852806840837,9.197358995237947,0.4577601711342111
1667776297881353200,11.368353271484375,3.0886469828516243,9.300600758525729,0.35985154903531075
1667776297891405000,11.378405029296875,2.817626978957653,9.388527463781832,0.2948349235171452
1667776297901456100,11.3884560546875,2.6158810022979972,9.447026999023556,0.28497911727204916
1667776297911507200,11.398507080078126,2.6460788644239304,9.435566862854362,0.37241529906485227
1667776297921558000,11.40855810546875,2.8636069321051236,9.36501623981297,0.5163490286272019
1667776297931609000,11.418609130859375,3.067072864425182,9.294652663776278,0.6106409580662846
1667776297941661200,11.4286611328125,3.1344919114425775,9.272084273615478,0.6114024804906919
1667776297951712300,11.438712158203124,3.077662939761579,9.29431422560215,0.5604647953379899
1667776297961763000,11.44876318359375,3.026195787374675,9.314658509972691,0.4996407261388376
1667776297971814100,11.458814208984375,3.07178615668267,9.30322759989798,0.429499670279026
1667776297981865200,11.468865234375,3.16470058722347,9.273915580695867,0.38671613855268805
1667776297991917000,11.4789169921875,3.201066324329376,9.259611161011456,0.4279543405331671
1667776298001968000,11.488968017578125,3.1527208110943437,9.270193345302342,0.5424236733432859
1667776298012019200,11.499019287109375,3.003599632424116,9.309576676663756,0.6932152694437652
1667776298022070300,11.5090703125,2.758250368620455,9.372079602327942,0.8523890555728226
1667776298032121000,11.51912109375,2.4372838460355997,9.447148579576611,0.9906571240562945
1667776298042172200,11.529172119140625,2.0484955408513543,9.529423542681336,1.0789582886479794
1667776298052224300,11.539224365234375,1.5947046021416782,9.614429976576567,1.090888526546955
1667776298062275000,11.549275146484375,1.1420241819571704,9.688478378605842,0.9997743503611535
1667776298072326100,11.559326171875,0.8467261344403028,9.739570267939566,0.770828451282531
1667776298082377200,11.569377197265625,0.7911983084857463,9.764321847358346,0.44989652508702127
1667776298092428300,11.57942822265625,0.8764243034157901,9.76604852502048,0.1629339789127931
1667776298102480100,11.589480224609375,0.991983258093521,9.756213944226502,-0.05130559144990984
1667776298112531200,11.59953125,1.0398355809841304,9.749237675473093,-0.20371325814463198
1667776298122582300,11.609582275390625,0.9553536824196577,9.755334238782524,-0.3018926052100025
1667776298132633000,11.619633056640625,0.7441523335419595,9.772086636140942,-0.3506045223383233
1667776298142684200,11.62968408203125,0.44909876230545337,9.789728091293572,-0.3604287278687581
1667776298152736300,11.639736328125,0.11790800202190875,9.799812847456336,-0.3466371530773118
1667776298162787000,11.649787109375,-0.21147267663236707,9.798920282530784,-0.3268611335813999
1667776298172838100,11.659838134765625,-0.507432147200033,9.788262694916128,-0.3206698046606034
1667776298182889200,11.66988916015625,-0.7462688873045146,9.772298817586899,-0.3400786348119378
1667776298192940300,11.679940185546876,-0.9290217750068753,9.754835641610622,-0.3879243452986702
1667776298202992000,11.6899921875,-1.0737472029361874,9.737034611982107,-0.4556544310266152
1667776298213043200,11.700043212890625,-1.1979325316619127,9.71863970811367,-0.5323587909247726
1667776298223094300,11.71009423828125,-1.3217178282193838,9.69823755607605,-0.6063274057161062
1667776298233145300,11.720145263671874,-1.4623011879079042,9.674509474486111,-0.6602334756877273
1667776298243196200,11.730196044921875,-1.626287927276641,9.646251348251104,-0.6894941300287842
1667776298253248300,11.740248291015625,-1.8043785953216254,9.61291255775094,-0.7117035506840795
1667776298263299300,11.75029931640625,-1.976779381161928,9.57645066679418,-0.744530957596004
1667776298273350100,11.76035009765625,-2.1303660148084163,9.539944352173805,-0.7882876086708158
1667776298283401200,11.770401123046875,-2.2663731526225805,9.504767824852467,-0.832651943315193
1667776298293452300,11.780452392578125,-2.39091898522377,9.470251222744583,-0.8764830478657036
1667776298303504100,11.790504150390625,-2.5088623508200047,9.434987601661682,-0.9257461143370718
1667776298313555200,11.80055517578125,-2.6213898288473487,9.398182011833786,-0.9863540200348943
1667776298323606300,11.810606201171876,-2.73139421813786,9.358454397079347,-1.0626366108570247
1667776298333657300,11.8206572265625,-2.843679411841929,9.314069311907886,-1.1541200587466358
1667776298343708200,11.830708251953125,-2.9597447086066007,9.264336435967683,-1.2579257395274936
1667776298353760300,11.84076025390625,-3.069794398343563,9.211741740855574,-1.3749782937638462
1667776298363811300,11.850811279296876,-3.1504841380834576,9.164162828078865,-1.5043160368166864
1667776298373862100,11.860862060546875,-3.18257672791481,9.130149499318003,-1.6376697375126181
1667776298383913200,11.870913330078125,-3.1608781063258644,9.113573043048381,-1.7669236016742884
1667776298393964000,11.880964111328124,-3.087416856534779,9.114316554892062,-1.8887768341906368
1667776298404015000,11.89101513671875,-2.959393410950899,9.133917327418922,-1.995979756194353
1667776298414067200,11.901067138671875,-2.775841554890573,9.17458017719686,-2.0717554204076527
1667776298424118300,11.9111181640625,-2.5520953433468936,9.233499983677268,-2.0975392654836176
1667776298434169000,11.921169189453124,-2.315071132557094,9.302987945923208,-2.065249984036386
1667776298444220200,11.93122021484375,-2.082147781214863,9.376044998827576,-1.9811182871490716
1667776298454271000,11.94127099609375,-1.8504658082358538,9.448709837543964,-1.86226935101524
1667776298464323300,11.9513232421875,-1.6106320929832756,9.519260460585356,-1.7204413980931044
1667776298474374100,11.9613740234375,-1.3675250551484524,9.584237082886695,-1.5628988664276897
1667776298484425000,11.971425048828126,-1.128302311401069,9.641292849060893,-1.3938405228830872
1667776298494476000,11.98147607421875,-0.8926547957919537,9.689596568980813,-1.2187266786918043
1667776298504527000,11.991527099609375,-0.6567014291040599,9.72766706417799,-1.0543403455462306
1667776298514579000,12.001578857421874,-0.4245518386133015,9.753698162013292,-0.9249354555413126
1667776298524630000,12.011630126953126,-0.19847042558770625,9.768002581697703,-0.8468396047521382
1667776298534681000,12.02168115234375,0.030178789815993513,9.77308149239719,-0.8101630481313914
1667776298544732200,12.031732177734375,0.267911114625819,9.771496269032358,-0.7851555211901664
1667776298554783200,12.041783203125,0.5161845587804913,9.764449273130298,-0.747968238568306
1667776298564835000,12.0518349609375,0.7748298689436167,9.75183938240409,-0.6867818753954023
1667776298574886100,12.06188623046875,1.0400783036988228,9.732743052268027,-0.6019379385855048
1667776298584937200,12.071937255859375,1.297451255838573,9.707264912140369,-0.5059673718770966
1667776298594988000,12.081988037109374,1.5301457668609917,9.677858784914017,-0.409996366777271
1667776298605039000,12.0920390625,1.7319525337971746,9.647198858234285,-0.3198397105120122
1667776298615091200,12.10209130859375,1.9130200256958603,9.615368718731403,-0.23539909380599855
1667776298625142000,12.11214208984375,2.10338609181568,9.577189502462744,-0.15358831414692103
1667776298635193000,12.122193115234374,2.336494152075052,9.523926698830723,-0.07741354934712871
1667776298645244200,12.132244140625,2.6247420618847013,9.448852460885048,-0.01628276941102813
1667776298655295500,12.14229541015625,2.9540584796637295,9.351125661626458,0.019871250898158176
1667776298665347600,12.15234765625,3.286931420880556,9.239359231099487,0.026544869743450543
1667776298675398400,12.1623984375,3.574477319900691,9.131994834923743,0.0131173322166258
1667776298685449500,12.172449462890626,3.792299402092397,9.043719170099497,0.0016720148760607115
1667776298695500300,12.182500244140625,3.9521906888410445,8.974996931529045,0.002087231912653806
1667776298705551400,12.19255126953125,4.077400246047973,8.918809764882921,0.00546189069741813
1667776298715603500,12.202603515625,4.182373070912063,8.870069991633295,-0.003134953864115232
1667776298725654300,12.212654296875,4.269779259425402,8.82826732417047,-0.03233078935126541
1667776298735705300,12.222705322265625,4.333093209211528,8.797042749345302,-0.08202659610053524
1667776298745756400,12.23275634765625,4.3581738744542,8.783863534298538,-0.14283877393249422
1667776298755807500,12.242807373046874,4.330750445477665,8.79620512947738,-0.20431864015925674
1667776298765859300,12.252859375,4.242305269305408,8.837650654065609,-0.26297040682062506
1667776298775910400,12.262910400390625,4.091984943978488,8.906228515729307,-0.3242896756581962
1667776298785961500,12.27296142578125,3.886006444315612,8.995325433808565,-0.3917566900031641
1667776298796012300,12.28301220703125,3.6334465184807776,9.096924106064439,-0.463023169696331
1667776298806063400,12.2930634765625,3.349332055214047,9.202339121738076,-0.5189645083552226
1667776298816114400,12.303114501953125,3.0776015649631616,9.296448899543284,-0.5242044913679361
1667776298826166300,12.313166259765625,2.953101909591257,9.341306862923503,-0.43537499205321073
1667776298836217300,12.32321728515625,3.042538434888422,9.319070481196045,-0.2613177259764634
1667776298846268400,12.333268310546876,3.1856852153241633,9.273986307844519,-0.12234331758823246
1667776298856319500,12.343319580078125,3.2800296786680816,9.241304519948363,-0.10055054230927489
1667776298866370600,12.35337060546875,3.300885419692099,9.233004309114813,-0.16175863325679674
1667776298876422400,12.36342236328125,3.3159345202639696,9.226401549848914,-0.22015379480859262
1667776298886473500,12.373473388671876,3.363598480975628,9.208010153111815,-0.26291505990419534
1667776298896524500,12.383524658203125,3.3948563735485076,9.193719761952757,-0.3476721586808562
1667776298906575400,12.393575439453125,3.3543893386036157,9.203266173455118,-0.46727264383435246
1667776298916626400,12.40362646484375,3.2617978564068673,9.23392551561296,-0.5154436407526954
1667776298926678500,12.413678466796876,3.119847007757425,9.285654533806442,-0.4621203756377101
1667776298936729300,12.423729248046875,2.915250025580823,9.357522084665298,-0.3293462283954024
1667776298946780400,12.433780517578125,2.6335350246712563,9.445254728654026,-0.14841963367159478
1667776298956831500,12.44383154296875,2.272860176554322,9.539509467887878,0.04762480231162626
1667776298966882600,12.453882568359376,1.821785364935547,9.633462009304761,0.21879578606206923
1667776298976934400,12.463934326171875,1.2778998754113913,9.717821377468109,0.3182978148322552
1667776298986985500,12.4739853515625,0.7158289600510149,9.775631176880001,0.30824100612234323
1667776298997036500,12.48403662109375,0.2794654318844899,9.801262461742759,0.16599369527697563
1667776299007087400,12.49408740234375,0.08553072263081557,9.805930453553795,-0.08251752142263576
1667776299017138400,12.504138427734375,0.1575171414958313,9.799397836914657,-0.34260099289640783
1667776299027190500,12.5141904296875,0.33376170675009487,9.785247146487235,-0.5549135544190182
1667776299037241300,12.524241455078124,0.44383802876565603,9.769407187798619,-0.7294297615107148
1667776299047292400,12.53429248046875,0.3793570810267701,9.76075217217803,-0.8684262173339724
1667776299057343500,12.544343505859375,0.16320958098378033,9.758782333409785,-0.9538934736739844
1667776299067394600,12.55439453125,-0.13377092146100475,9.756821846991777,-0.9782314307905733
1667776299077446400,12.5644462890625,-0.4486768105663359,9.749725751250981,-0.9549546731647104
1667776299087497500,12.57449755859375,-0.7481201411943882,9.736098207914829,-0.9050471713099628
1667776299097548500,12.584548583984375,-1.0192873715393245,9.71610054502487,-0.8537071524340659
1667776299107599600,12.594599609375,-1.2542504120156168,9.691278238457441,-0.8224168919615447
1667776299117650400,12.604650390625,-1.450634861642122,9.664026074394583,-0.8201405445273965
1667776299127701500,12.614701416015626,-1.6101766043007373,9.636689154657722,-0.8437637775033712
1667776299137753600,12.624753662109375,-1.7386157910786568,9.610250645065307,-0.889201659663394
1667776299147804400,12.634804443359375,-1.8469404105886815,9.584143559384346,-0.9504570694845169
1667776299157855500,12.64485546875,-1.9490745048955083,9.557096562504768,-1.016568687165156
1667776299167906600,12.654906494140626,-2.058580297014117,9.526885548636317,-1.0821716246712951
1667776299177958400,12.66495849609375,-2.1787419231817124,9.492695109742879,-1.1455225454669444
1667776299188009500,12.675009521484375,-2.303013176625222,9.456085919269919,-1.2037239014796912
1667776299198060500,12.685060546875,-2.4196252936176954,9.4197181363374,-1.2588495763741432
1667776299208111600,12.695111572265626,-2.519809569031,9.38468949305415,-1.3223206164181232
1667776299218162400,12.705162353515625,-2.607216926588118,9.350128467282651,-1.3956680305711924
1667776299228213500,12.715213623046875,-2.6959792058855294,9.313204219511151,-1.471833570884913
1667776299238265600,12.725265625,-2.799087113660574,9.270598418971895,-1.5464455981463192
1667776299248316400,12.73531640625,-2.914095594848692,9.220538795295358,-1.6309755005709825
1667776299258367500,12.745367431640625,-3.0176196822091934,9.166976131933927,-1.7409461337223648
1667776299268418600,12.75541845703125,-3.081881141978502,9.11932123131156,-1.8735989926725625
1667776299278469600,12.7654697265625,-3.0838539033561942,9.08742854796648,-2.019626004719734
1667776299288521500,12.775521484375,-3.008088468275964,9.078172059321403,-2.1699271869547663
1667776299298572500,12.785572509765625,-2.8614178976282476,9.090324853929877,-2.3127156554721293
1667776299308623600,12.79562353515625,-2.6611349792584775,9.12153890736103,-2.4261655090413985
1667776299318674700,12.8056748046875,-2.4255156668305395,9.17321941023767,-2.4777596488088367
1667776299328725500,12.8157255859375,-2.167562795910984,9.244522312951087,-2.45170896949023
