time,seconds_elapsed,z,y,x
1667776286533559600,0.0205595703125,0.0023526824079453945,0.1491176337003708,0.14944802224636078
1667776286543610600,0.030610595703125,0.025049734860658646,0.13251188397407532,0.11853833496570587
1667776286553661700,0.04066162109375,0.04463249072432518,0.10139605402946472,0.07459164410829544
1667776286563712500,0.05071240234375,0.05886702984571457,0.027978142723441124,0.02502506785094738
1667776286573763600,0.060763671875,0.06158691644668579,-0.036469824612140656,-0.02545488253235817
1667776286583815700,0.070815673828125,0.05280382186174393,-0.05502104014158249,-0.06330619752407074
1667776286593866500,0.080866455078125,0.03722646087408066,-0.03410297632217407,-0.08283302932977676
1667776286603917600,0.09091748046875,0.009771712124347687,-0.005093374755233526,-0.07475363463163376
1667776286613968600,0.10096875,-0.035976868122816086,0.027804654091596603,-0.057630572468042374
1667776286624019700,0.111019775390625,-0.05582423135638237,0.0665929764509201,-0.02455977164208889
1667776286634070500,0.121070556640625,-0.04625416174530983,0.0956568494439125,0.038122519850730896
1667776286644123400,0.131123291015625,-0.012706218287348747,0.09772884845733643,0.10626744478940964
1667776286654174200,0.14117431640625,0.0035561081022024155,0.08162924647331238,0.14064271748065948
1667776286664225300,0.151225341796875,-0.0033299135975539684,0.06632755696773529,0.15224814414978027
1667776286674276400,0.1612763671875,-0.024027204141020775,0.04579723998904228,0.15057967603206635
1667776286684327400,0.171327392578125,-0.041387829929590225,0.01919749192893505,0.13144919276237488
1667776286694378500,0.18137841796875,-0.052827704697847366,-0.0047619035467505455,0.10125774145126343
1667776286704430300,0.191430419921875,-0.05242977291345596,-0.011765600182116032,0.06072106212377548
1667776286714481400,0.2014814453125,-0.04634924232959747,-0.015179240144789219,0.01828651875257492
1667776286724532500,0.211532470703125,-0.03167962655425072,-0.03017989546060562,-0.014923026785254478
1667776286734583300,0.221583251953125,-0.01953267864882946,-0.03030453249812126,-0.031809866428375244
1667776286744634400,0.23163427734375,-0.0180828720331192,-0.04915395379066467,-0.04065705090761185
1667776286754686500,0.2416865234375,-0.025360222905874252,-0.07626093924045563,-0.03611236810684204
1667776286764737300,0.2517373046875,-0.028233127668499947,-0.1057591363787651,-0.03016083501279354
1667776286774788400,0.261788330078125,-0.029360445216298103,-0.1228603646159172,-0.050834957510232925
1667776286784839400,0.27183935546875,-0.03481860086321831,-0.12119932472705841,-0.09221429377794266
1667776286794890500,0.281890380859375,-0.029390547424554825,-0.11292461305856705,-0.11042765527963638
1667776286804941000,0.291941162109375,-0.018915273249149323,-0.11609576642513275,-0.10005728155374527
1667776286814993400,0.301993408203125,-0.011518609710037708,-0.10810016095638275,-0.08152833580970764
1667776286825044500,0.31204443359375,-0.00869363360106945,-0.07921317219734192,-0.07752316445112228
1667776286835095300,0.32209521484375,-0.0004154639318585396,-0.04607279598712921,-0.06691419333219528
1667776286845146000,0.33214599609375,0.007182692177593708,-0.047912150621414185,-0.04798411577939987
1667776286855197200,0.342197265625,0.0025996582116931677,-0.07992095500230789,-0.037722423672676086
1667776286865249300,0.352249267578125,0.001963390037417412,-0.13647231459617615,-0.04828871041536331
1667776286875300400,0.36230029296875,-0.011438434943556786,-0.1821441948413849,-0.07818135619163513
1667776286885351200,0.37235107421875,-0.02892790362238884,-0.21894291043281555,-0.09746194630861282
1667776286895402200,0.38240234375,-0.04632660001516342,-0.22241966426372528,-0.10590682923793793
1667776286905453300,0.392453369140625,-0.05920176953077316,-0.17657269537448883,-0.10139506310224533
1667776286915504000,0.402504150390625,-0.06393793970346451,-0.10675472766160965,-0.08177688717842102
1667776286925556200,0.41255615234375,-0.050547823309898376,-0.018525293096899986,-0.05242728814482689
1667776286935607300,0.422607177734375,-0.03509722650051117,0.058203838765621185,-0.0174085833132267
1667776286945658000,0.432658203125,-0.025825582444667816,0.09622422605752945,0.0037725064903497696
1667776286955709200,0.442709228515625,-0.019834004342556,0.09701624512672424,0.016572458669543266
1667776286965760300,0.45276025390625,-0.012570707127451897,0.0762338936328888,0.007414994761347771
1667776286975812000,0.46281201171875,-0.010346435010433197,0.06710297614336014,-0.012099850922822952
1667776286985863200,0.47286328125,-0.008998713456094265,0.02497810125350952,-0.03033367544412613
1667776286995914200,0.482914306640625,-0.012695712968707085,-0.0228663869202137,-0.038248591125011444
1667776287005965300,0.49296533203125,-0.033735714852809906,-0.03974370285868645,-0.030808590352535248
1667776287016016100,0.50301611328125,-0.05927862599492073,-0.04042147845029831,-0.01920546405017376
1667776287026067200,0.513067138671875,-0.08863440155982971,-0.019758526235818863,-0.003518480807542801
1667776287036119300,0.523119384765625,-0.12195534259080887,0.013522464781999588,0.004899239167571068
1667776287046170000,0.533170166015625,-0.14039599895477295,0.04273694381117821,0.007769574411213398
1667776287056221200,0.54322119140625,-0.14670315384864807,0.055833037942647934,0.0063903238624334335
1667776287066272300,0.553272216796875,-0.13695745170116425,0.06093738228082657,0.008231119252741337
1667776287076323300,0.5633232421875,-0.11982933431863785,0.0744638442993164,0.012991519644856453
1667776287086375200,0.573375244140625,-0.10076591372489929,0.08143883943557739,0.035669539123773575
1667776287096426200,0.58342626953125,-0.09912034869194031,0.07149326056241989,0.07636583596467972
1667776287106477300,0.593477294921875,-0.11420786380767822,0.049514155834913254,0.10276234894990921
1667776287116528400,0.6035283203125,-0.12308789789676666,0.0407470278441906,0.10311201959848404
1667776287126579200,0.6135791015625,-0.12510810792446136,0.006700357422232628,0.07860665768384933
1667776287136630300,0.62363037109375,-0.13023069500923157,-0.02006734162569046,0.05458974093198776
1667776287146682400,0.633682373046875,-0.12797501683235168,-0.014160014688968658,0.0376281663775444
1667776287156733200,0.643733154296875,-0.12140820175409317,0.001979806926101446,0.04372280836105347
1667776287166784300,0.6537841796875,-0.11121424287557602,0.01630992814898491,0.062298599630594254
1667776287176835300,0.66383544921875,-0.10065001249313354,0.033803168684244156,0.08570273220539093
1667776287186886400,0.673886474609375,-0.09256286174058914,0.057605188339948654,0.09755007177591324
1667776287196938200,0.683938232421875,-0.09067494422197342,0.0625927522778511,0.106105737388134
1667776287206989300,0.6939892578125,-0.09653032571077347,0.04401031881570816,0.11120346933603287
1667776287217040400,0.704040283203125,-0.11509735882282257,0.015932079404592514,0.1053016409277916
1667776287227091200,0.71409130859375,-0.1266980916261673,-0.006241133902221918,0.09802188724279404
1667776287237142300,0.724142333984375,-0.13008642196655273,-0.031965672969818115,0.08209910988807678
1667776287247194400,0.7341943359375,-0.11586210876703262,-0.0513458251953125,0.052960921078920364
1667776287257245200,0.7442451171875,-0.10207466036081314,-0.06449917703866959,0.01868443936109543
1667776287267296300,0.754296142578125,-0.08716073632240295,-0.071038618683815,0.007821505889296532
1667776287277347300,0.764347412109375,-0.05579269677400589,-0.06415248662233353,0.020583374425768852
1667776287287398400,0.7743984375,-0.036086227744817734,-0.06082313135266304,0.038893021643161774
1667776287297449500,0.784449462890625,-0.01705154962837696,-0.04879709705710411,0.054609932005405426
1667776287307501300,0.794501220703125,-0.00917593203485012,-0.0328371524810791,0.057441845536231995
1667776287317552400,0.804552490234375,-0.005504498723894358,-0.04400245472788811,0.0568799152970314
1667776287327603500,0.814603515625,0.0017910264432430267,-0.05356692522764206,0.032922979444265366
1667776287337654300,0.824654296875,0.00705982418730855,-0.06113376468420029,0.018055615946650505
1667776287347705300,0.834705322265625,0.015522969886660576,-0.04761985316872597,0.012395959347486496
1667776287357757400,0.84475732421875,0.024428579956293106,-0.024809613823890686,0.026052383705973625
1667776287367808300,0.854808349609375,0.026941778138279915,-0.03373009338974953,0.053374793380498886
1667776287377859300,0.864859375,0.02817881479859352,-0.04548634961247444,0.06912526488304138
1667776287387910400,0.874910400390625,0.03343747556209564,-0.044601600617170334,0.054524634033441544
1667776287397961500,0.88496142578125,0.027597427368164062,-0.045263394713401794,0.03285529091954231
1667776287408012300,0.89501220703125,0.029860801994800568,-0.038310058414936066,0.010907238349318504
1667776287418064400,0.905064453125,0.039290256798267365,-0.038067176938056946,-0.017120668664574623
1667776287428115500,0.915115478515625,0.04910287633538246,-0.04245713725686073,-0.0428716242313385
1667776287438166300,0.925166259765625,0.05684308707714081,-0.040300775319337845,-0.04708314687013626
1667776287448217300,0.93521728515625,0.06536547094583511,-0.04437316209077835,-0.03440120071172714
1667776287458268400,0.945268310546875,0.06733088940382004,-0.03147813305258751,-0.015241354703903198
1667776287468320300,0.9553203125,0.06853954493999481,-0.02075514756143093,0.011884428560733795
1667776287478371300,0.965371337890625,0.05540057271718979,-0.017010744661092758,0.02816246822476387
1667776287488422400,0.97542236328125,0.029363317415118217,-0.015024563297629356,0.03581314906477928
1667776287498473500,0.985473388671875,0.006338425911962986,-0.013564351946115494,0.03778095915913582
1667776287508524300,0.995524169921875,0.0007419418543577194,-0.017678558826446533,0.0409100241959095
1667776287518575000,1.0055751953125,-0.0034088613465428352,-0.022762266919016838,0.028607020154595375
1667776287528627500,1.01562744140625,0.0017072372138500214,-0.008886069059371948,0.009606987237930298
1667776287538678500,1.025678466796875,0.007162456400692463,-0.0038455044850707054,0.005685748066753149
1667776287548729000,1.03572900390625,0.02100520022213459,-0.008545653894543648,0.017616726458072662
1667776287558780200,1.0457802734375,0.030549170449376106,-0.01608000323176384,0.03968101739883423
1667776287568831200,1.055831298828125,0.041248682886362076,-0.020795518532395363,0.043641697615385056
1667776287578883300,1.06588330078125,0.043478548526763916,-0.025426488369703293,0.039414193481206894
1667776287588934100,1.07593408203125,0.036304689943790436,-0.02711167372763157,0.028268344700336456
1667776287598985200,1.085985107421875,0.038410454988479614,-0.03979897126555443,0.030228696763515472
1667776287609036300,1.096036376953125,0.033748164772987366,-0.05539959296584129,0.03543137386441231
1667776287619087000,1.106087158203125,0.010031117126345634,-0.05706433579325676,0.039096683263778687
1667776287629139200,1.11613916015625,-0.006185302510857582,-0.04133203625679016,0.03830118849873543
1667776287639189800,1.126189697265625,-0.017619051039218903,-0.015377935953438282,0.03103022649884224
1667776287649240800,1.13624072265625,-0.021334588527679443,-0.01116236113011837,0.025465242564678192
1667776287659291600,1.146291748046875,-0.013126195408403873,-0.01741066947579384,0.012255164794623852
1667776287669342700,1.1563427734375,-0.016507286578416824,-0.02306041494011879,0.013289889320731163
1667776287679393800,1.166393798828125,-0.021993398666381836,0.011945240199565887,0.034956566989421844
1667776287689445600,1.176445556640625,-0.010969927534461021,0.07874240726232529,0.06143813207745552
1667776287699496700,1.18649658203125,0.003857753938063979,0.08541496098041534,0.05723939463496208
1667776287709547800,1.1965478515625,0.006597990170121193,0.07786241918802261,0.04675072431564331
1667776287719598800,1.206598876953125,0.002980352146551013,0.03531202673912048,0.014928080141544342
1667776287729649700,1.216649658203125,-0.0013786056078970432,-0.018208129331469536,-0.03658175468444824
1667776287739701800,1.22670166015625,-0.0014838003553450108,-0.060876499861478806,-0.06711063534021378
1667776287749752800,1.2367529296875,0.008622096851468086,-0.09759403020143509,-0.0821676179766655
1667776287759803600,1.2468037109375,0.005815391428768635,-0.06882017105817795,-0.07378904521465302
1667776287769854700,1.256854736328125,-0.0018478436395525932,-0.023867638781666756,-0.040129974484443665
1667776287779905800,1.26690576171875,-0.004104873165488243,0.016949033364653587,0.0028017829172313213
1667776287789958000,1.2769580078125,0.006577583029866219,0.049359340220689774,0.03246472775936127
1667776287800008700,1.2870087890625,0.014416597783565521,0.03963427618145943,0.03916444256901741
1667776287810059800,1.297059814453125,0.0036511400248855352,0.011977139860391617,0.023880520835518837
1667776287820110800,1.30711083984375,-0.004149791318923235,-0.017386607825756073,-0.011297706514596939
1667776287830162000,1.317161865234375,-0.010720817372202873,-0.04575871303677559,-0.045325104147195816
1667776287840212700,1.327212646484375,-0.007925031706690788,-0.04909592121839523,-0.05895676091313362
1667776287850264800,1.337264892578125,-0.001043860800564289,-0.02725711651146412,-0.06098580360412598
1667776287860316000,1.34731591796875,0.015208611264824867,0.0035117152146995068,-0.047908883541822433
1667776287870366700,1.35736669921875,0.024286532774567604,0.024686897173523903,-0.037275440990924835
1667776287880417800,1.367417724609375,0.02775530144572258,0.038837868720293045,-0.02960447035729885
1667776287890468900,1.37746875,0.023456009104847908,0.0251694954931736,-0.019190551713109016
1667776287900520700,1.387520751953125,0.008379320614039898,-0.0013209677999839187,-0.009594117291271687
1667776287910571800,1.39757177734375,-0.006112768314778805,-0.028413493186235428,-0.004051324911415577
1667776287920622800,1.407622802734375,-0.01051177829504013,-0.04574401676654816,-0.0018140031024813652
1667776287930674000,1.417673828125,-0.013379670679569244,-0.03406885638833046,-0.005823352374136448
1667776287940724700,1.427724853515625,-0.012535715475678444,-0.01692076399922371,-0.011307068169116974
1667776287950776800,1.43777685546875,-0.014378045685589314,-0.004025684669613838,-0.017901426181197166
1667776287960828000,1.447827880859375,-0.010174247436225414,-0.004988683387637138,-0.015910979360342026
1667776287970878700,1.457878662109375,-0.006073026452213526,-0.009669363498687744,-0.016236284747719765
1667776287980929800,1.4679296875,0.003654968226328492,0.002324981614947319,-0.020189747214317322
1667776287990980900,1.47798095703125,0.008645527064800262,0.0020592031069099903,-0.011711254715919495
1667776288001032000,1.488031982421875,0.005324299447238445,-0.002941680606454611,0.01009524054825306
1667776288011083800,1.498083740234375,0.0028403163887560368,-0.010682986117899418,0.0290062315762043
1667776288021134800,1.508134765625,-0.001952307764440775,-0.01777471788227558,0.03177565336227417
1667776288031186000,1.51818603515625,-0.013273024000227451,-0.02267010696232319,0.033036280423402786
1667776288041237000,1.528237060546875,-0.016653109341859818,-0.030934426933526993,0.02095617912709713
1667776288051287800,1.538287841796875,-0.016650564968585968,-0.04014326259493828,-0.0008826563134789467
1667776288061340000,1.54833984375,-0.018150990828871727,-0.04897883161902428,-0.007875584065914154
1667776288071391000,1.558390869140625,-0.016331151127815247,-0.05088651552796364,-0.011526794172823429
1667776288081441800,1.56844189453125,-0.007154697552323341,-0.04517083987593651,-0.014957744628190994
1667776288091492900,1.578492919921875,0.009264755994081497,-0.038159001618623734,-0.027794448658823967
1667776288101544000,1.5885439453125,0.032771412283182144,-0.027478661388158798,-0.03363555669784546
1667776288111595000,1.598594970703125,0.04839427396655083,-0.023331785574555397,-0.042486779391765594
1667776288121646800,1.608646728515625,0.04978817328810692,-0.024634338915348053,-0.05029383674263954
1667776288131698000,1.618697998046875,0.050741586834192276,-0.024054568260908127,-0.03933466225862503
1667776288141749000,1.6287490234375,0.058313749730587006,-0.04513934627175331,-0.02429952099919319
1667776288151799800,1.6387998046875,0.05371318757534027,-0.07078248262405396,-0.010374235920608044
1667776288161851000,1.648850830078125,0.028458166867494583,-0.07336654514074326,-0.004165075719356537
1667776288171903000,1.658903076171875,0.005032635759562254,-0.07711541652679443,0.005848945118486881
1667776288181953800,1.668953857421875,-0.01216206420212984,-0.055700674653053284,0.002497889567166567
1667776288192004900,1.6790048828125,-0.010289928875863552,-0.02932112291455269,-0.02623443678021431
1667776288202056000,1.689055908203125,0.012839891947805882,-0.024054989218711853,-0.061896294355392456
1667776288212107000,1.69910693359375,0.03506433963775635,-0.04238372668623924,-0.08801873028278351
1667776288222158800,1.709158935546875,0.045209117233753204,-0.06287755072116852,-0.09046324342489243
1667776288232210000,1.7192099609375,0.049609579145908356,-0.08736983686685562,-0.08644389361143112
1667776288242261000,1.729260986328125,0.035530246794223785,-0.09616359323263168,-0.07031019777059555
1667776288252312000,1.73931201171875,0.01917816326022148,-0.09696678072214127,-0.048498306423425674
1667776288262363000,1.74936279296875,0.007537219673395157,-0.06708397716283798,-0.01652998849749565
1667776288272413700,1.75941357421875,-0.00003291526809334755,-0.02160751074552536,0.009706685319542885
1667776288282466000,1.769466064453125,-0.0015724888071417809,0.007810032926499844,0.019516440108418465
1667776288292516900,1.779516845703125,0.008890324272215366,0.014223221689462662,0.01747470535337925
1667776288302567700,1.789567626953125,0.02223702147603035,0.005412418860942125,-0.007657811511307955
1667776288312618800,1.79961865234375,0.03537512943148613,-0.006798301823437214,-0.030544782057404518
1667776288322669800,1.809669921875,0.04757613316178322,-0.009264655411243439,-0.048757340759038925
1667776288332722000,1.819721923828125,0.04915120452642441,-0.006017892621457577,-0.05920443311333656
1667776288342772700,1.829772705078125,0.043299440294504166,-0.001503035775385797,-0.061075836420059204
1667776288352823800,1.83982373046875,0.04212312027812004,-0.0009845183230936527,-0.05667709559202194
1667776288362874600,1.84987451171875,0.03700053319334984,-0.00715213268995285,-0.05647975206375122
1667776288372925700,1.85992578125,0.03404425457119942,-0.008312535472214222,-0.06043268367648125
1667776288382976800,1.869976806640625,0.03330336511135101,-0.0172924492508173,-0.05325360223650932
1667776288393028900,1.88002880859375,0.016797253862023354,-0.0353708416223526,-0.041441909968853
1667776288403079700,1.89007958984375,0.009785950183868408,-0.03286214545369148,-0.03887329250574112
1667776288413130800,1.900130859375,0.005868954584002495,-0.010024691931903362,-0.04599420353770256
1667776288423181800,1.910181884765625,0.016382582485675812,0.01794702187180519,-0.04573853686451912
1667776288433233000,1.92023291015625,0.017965350300073624,0.04512886703014374,-0.036291662603616714
1667776288443284700,1.93028466796875,0.022711636498570442,0.05000191926956177,-0.016724884510040283
1667776288453335800,1.940335693359375,0.030354922637343407,0.0358707569539547,0.0022846809588372707
1667776288463387000,1.950386962890625,0.04284754768013954,0.0026845713146030903,0.016784528270363808
1667776288473437700,1.960437744140625,0.044753242284059525,-0.023967549204826355,0.00913507491350174
1667776288483488800,1.97048876953125,0.03375518321990967,-0.04422275349497795,-0.008292385376989841
1667776288493540900,1.980540771484375,0.022756919264793396,-0.05629364773631096,-0.024023324251174927
1667776288503591700,1.990591796875,0.015075297094881535,-0.07110907882452011,-0.022080548107624054
1667776288513642800,2.000642822265625,0.012991474010050297,-0.0586404912173748,-0.015443969517946243
1667776288523693800,2.01069384765625,0.016633080318570137,-0.022320032119750977,-0.0023497396614402533
1667776288533745000,2.020744873046875,0.02859744429588318,0.011117320507764816,0.01473008282482624
1667776288543795700,2.030795654296875,0.04773944988846779,0.03730791434645653,0.016069119796156883
1667776288553847800,2.040847900390625,0.06821437925100327,0.04346683621406555,0.001375820953398943
1667776288563899000,2.05089892578125,0.06522471457719803,0.01716519147157669,-0.025346336886286736
1667776288573949700,2.06094970703125,0.05557937175035477,0.007817577570676804,-0.0589737705886364
1667776288584000800,2.071000732421875,0.04664099961519241,-0.003387140342965722,-0.06274320185184479
1667776288594051800,2.0810517578125,0.028432756662368774,-0.018146082758903503,-0.029294056817889214
1667776288604103700,2.091103759765625,0.005733303725719452,-0.0032504911068826914,0.001366916112601757
1667776288614154800,2.10115478515625,0.00018593063578009605,0.031790606677532196,0.023279991000890732
1667776288624205800,2.111205810546875,0.008475551381707191,0.05533641204237938,0.03537766635417938
1667776288634257000,2.1212568359375,0.02288847789168358,0.0664365291595459,0.03113047406077385
1667776288644308000,2.131307861328125,0.03859980031847954,0.06747409701347351,0.018353693187236786
1667776288654359000,2.141359130859375,0.0349755622446537,0.06290065497159958,0.02073727175593376
1667776288664411100,2.1514111328125,0.016360865905880928,0.04119216650724411,0.03851386904716492
1667776288674462200,2.161462158203125,-0.00048825377598404884,0.02865833044052124,0.06271454691886902
1667776288684513000,2.171512939453125,-0.00005122879520058632,0.02920347824692726,0.08963004499673843
1667776288694564000,2.181564208984375,0.0020434940233826637,0.03520289063453674,0.10530316829681396
1667776288704615200,2.191615234375,0.004418501164764166,0.061934102326631546,0.10953040421009064
1667776288714667000,2.2016669921875,-0.01885906234383583,0.09516557306051254,0.10775944590568542
1667776288724718000,2.211718017578125,-0.048725347965955734,0.2043871283531189,0.11669488251209259
1667776288734769200,2.22176904296875,-0.02854561060667038,0.35311755537986755,0.13415323197841644
1667776288744820200,2.2318203125,-0.01546283159404993,0.43151381611824036,0.16014620661735535
1667776288754871000,2.24187109375,-0.014167341403663158,0.42536792159080505,0.1984664350748062
1667776288764923100,2.251923095703125,-0.03785669058561325,0.2845436930656433,0.2408519685268402
1667776288774974200,2.26197412109375,-0.09945587068796158,0.0768931582570076,0.22196774184703827
1667776288785025000,2.27202490234375,-0.16330088675022125,-0.11373510956764221,0.10640759021043777
1667776288795076000,2.282076171875,-0.23163343966007233,-0.254721462726593,-0.050688330084085464
1667776288805127200,2.292127197265625,-0.2510761022567749,-0.36051449179649353,-0.1488173007965088
1667776288815178200,2.30217822265625,-0.22748418152332306,-0.3431539833545685,-0.16962209343910217
1667776288825230000,2.31222998046875,-0.1387322098016739,-0.043649572879076004,-0.16742472350597382
1667776288835281200,2.32228125,-0.01726800948381424,0.5627284646034241,-0.14235655963420868
1667776288845332200,2.332332275390625,0.07634423673152924,1.2625867128372192,-0.05883557349443436
1667776288855383000,2.342383056640625,0.08821342885494232,1.8642187118530273,0.07868677377700806
1667776288865434000,2.35243408203125,0.11494649946689606,2.0766761302948,0.2780204117298126
1667776288875486200,2.362486328125,0.21464750170707703,1.9552044868469238,0.47209104895591736
1667776288885537000,2.372537109375,0.25221192836761475,1.755826711654663,0.523119330406189
1667776288895588000,2.382588134765625,0.17165394127368927,1.4002704620361328,0.44330617785453796
1667776288905639200,2.39263916015625,0.06055218726396561,0.8105893135070801,0.31015583872795105
1667776288915690200,2.402690185546875,0.0761420726776123,0.10943561047315598,0.1841648519039154
1667776288925741300,2.4127412109375,0.08133683353662491,-0.21373499929904938,0.06345067918300629
1667776288935793200,2.422793212890625,0.0783696323633194,-0.3051135540008545,-0.024715900421142578
1667776288945844200,2.43284423828125,0.11628558486700058,-0.10329601913690567,-0.04794186353683472
1667776288955895300,2.442895263671875,0.1600140780210495,0.4250485599040985,0.020403306931257248
1667776288965946000,2.452946044921875,0.23211383819580078,1.128000259399414,0.25305652618408203
1667776288975997200,2.4629970703125,0.31589895486831665,1.867637276649475,0.6364576816558838
1667776288986049300,2.47304931640625,0.3563169538974762,2.5476951599121094,1.0613442659378052
1667776288996100000,2.48310009765625,0.35088634490966797,3.1509411334991455,1.4257217645645142
1667776289006151200,2.493151123046875,0.25845867395401,3.5541276931762695,1.6811734437942505
1667776289016202200,2.5032021484375,0.05832916125655174,3.838324546813965,1.8588861227035522
1667776289026253300,2.51325341796875,-0.2756011486053467,4.06287956237793,1.9717628955841064
1667776289036305200,2.52330517578125,-0.7210724949836731,4.201498985290527,2.0293402671813965
1667776289046356200,2.533356201171875,-1.22857666015625,4.3245720863342285,2.0393495559692383
1667776289056407300,2.5434072265625,-1.617082118988037,4.502657413482666,2.0045008659362793
1667776289066458000,2.5534580078125,-1.8829894065856934,4.746450901031494,1.9482324123382568
1667776289076509200,2.56350927734375,-2.1843507289886475,5.065622329711914,1.9116621017456055
1667776289086560300,2.573560302734375,-2.51031231880188,5.562229633331299,1.9098166227340698
1667776289096612000,2.583612060546875,-2.8792126178741455,6.196376323699951,1.9802433252334595
1667776289106663200,2.5936630859375,-3.333763599395752,6.672806739807129,2.0679006576538086
1667776289116714200,2.60371435546875,-3.815953016281128,6.719786167144775,2.032459259033203
1667776289126765300,2.613765380859375,-4.318872451782227,6.530636310577393,1.8516006469726562
1667776289136816400,2.62381640625,-4.715570449829102,6.1052470207214355,1.469310998916626
1667776289146868200,2.6338681640625,-5.00238037109375,5.373183727264404,1.0044119358062744
1667776289156919300,2.643919189453125,-5.148751258850098,4.534394264221191,0.6125175356864929
1667776289166970400,2.653970458984375,-5.154725551605225,3.8981096744537354,0.41563189029693604
1667776289177021200,2.664021240234375,-5.089656352996826,3.6841440200805664,0.5039446353912354
1667776289187072300,2.674072265625,-5.106199264526367,3.924222469329834,0.8319448828697205
1667776289197123300,2.684123291015625,-5.286069869995117,4.153329372406006,1.310633659362793
1667776289207175200,2.694175048828125,-5.515988349914551,4.419508457183838,1.7529575824737549
1667776289217226200,2.704226318359375,-5.656452655792236,4.4077982902526855,2.004075050354004
1667776289227277300,2.71427734375,-5.873892784118652,4.057607650756836,1.8964143991470337
1667776289237328100,2.724328125,-6.204847812652588,3.6616694927215576,1.5632710456848145
1667776289247379000,2.73437890625,-6.502528667449951,3.5007832050323486,1.4010038375854492
1667776289257431300,2.744431396484375,-6.563565254211426,3.5091962814331055,1.5782859325408936
1667776289267482400,2.754482421875,-6.255790710449219,3.5791046619415283,2.007922410964966
1667776289277533000,2.764532958984375,-5.735647678375244,3.6533384323120117,2.551539897918701
1667776289287584000,2.774583984375,-5.145008087158203,3.7368035316467285,3.0463945865631104
1667776289297635000,2.784635009765625,-4.59991455078125,3.829590320587158,3.4460508823394775
1667776289307687200,2.794687255859375,-4.120503902435303,3.801722526550293,3.6612961292266846
1667776289317738000,2.804738037109375,-3.6899075508117676,3.552152395248413,3.9099137783050537
1667776289327789000,2.8147890625,-3.0785791873931885,3.0835177898406982,3.957043409347534
1667776289337840000,2.824840087890625,-2.220811605453491,2.373619318008423,3.80643367767334
1667776289347891200,2.83489111328125,-1.2794854640960693,1.7571666240692139,3.4830288887023926
1667776289357943000,2.844943115234375,-0.3091447651386261,0.38907235860824585,2.476182460784912
1667776289367994000,2.854994140625,0.6875632405281067,-2.1869754791259766,0.1478021889925003
1667776289378045200,2.865045166015625,1.3894870281219482,-3.9195785522460938,-1.8038488626480103
1667776289388096000,2.875095947265625,2.1510729789733887,-4.449219703674316,-2.5610616207122803
1667776289398147000,2.88514697265625,2.8231983184814453,-4.068485736846924,-2.522002935409546
1667776289408198100,2.8951982421875,3.1692118644714355,-2.9154586791992188,-2.084920644760132
1667776289418250000,2.90525,3.1726810932159424,-1.4587934017181396,-1.6283782720565796
1667776289428301000,2.915301025390625,2.942021369934082,0.18941400945186615,-1.043096661567688
1667776289438352100,2.92535205078125,2.5026938915252686,1.6664761304855347,-0.1923176646232605
1667776289448403200,2.9354033203125,1.9509919881820679,2.8684070110321045,0.6441383361816406
1667776289458454000,2.9454541015625,1.4745934009552002,3.825329542160034,1.3574999570846558
1667776289468506000,2.955506103515625,1.166554570198059,4.110434055328369,1.7322163581848145
1667776289478557200,2.96555712890625,1.0484241247177124,3.8482089042663574,1.8028682470321655
1667776289488608000,2.97560791015625,1.1167157888412476,3.505878210067749,1.7909231185913086
1667776289498659000,2.9856591796875,1.1715903282165527,3.2899696826934814,1.7107104063034058
1667776289508710100,2.995710205078125,1.1149941682815552,2.926886558532715,1.5932849645614624
1667776289518762000,3.005761962890625,0.8000861406326294,2.4356954097747803,1.5878154039382935
1667776289528813000,3.01581298828125,0.2322443127632141,1.8565258979797363,1.6902674436569214
1667776289538864000,3.025864013671875,-0.37643957138061523,1.2562717199325562,1.7936195135116577
1667776289548915200,3.035915283203125,-0.7806661128997803,0.7814971804618835,1.7768423557281494
1667776289558966300,3.04596630859375,-0.8961860537528992,0.5687682032585144,1.7458635568618774
1667776289569017000,3.05601708984375,-0.8792722821235657,0.6186143159866333,1.7082821130752563
1667776289579069200,3.066069091796875,-0.740233838558197,0.7862617373466492,1.6751130819320679
1667776289589120300,3.076120361328125,-0.624655544757843,1.0215213298797607,1.5943260192871094
1667776289599171000,3.086171142578125,-0.6984381675720215,0.749325156211853,1.5724881887435913
1667776289609222100,3.09622216796875,-0.5921055674552917,0.5799675583839417,1.401921272277832
1667776289619273200,3.106273193359375,-0.4827103018760681,0.6115382313728333,1.1556355953216553
1667776289629325000,3.116324951171875,-0.4003395140171051,0.7204951047897339,0.8371069431304932
1667776289639376100,3.126376220703125,-0.37931913137435913,0.8248785734176636,0.49173232913017273
1667776289649427000,3.136427001953125,-0.3346363604068756,0.3539285957813263,0.22789031267166138
1667776289659478000,3.14647802734375,-0.6021119356155396,-0.2653740346431732,0.003978251945227385
1667776289669529000,3.156529052734375,-0.9115403294563293,-0.6176798939704895,-0.20317573845386505
1667776289679580000,3.166579833984375,-1.27288019657135,-0.8059491515159607,-0.4710620045661926
1667776289689632000,3.176632080078125,-1.5737664699554443,-0.8296888470649719,-0.754508912563324
1667776289699683800,3.186683837890625,-1.8310548067092896,-0.5888778567314148,-1.0261989831924438
1667776289709735000,3.19673486328125,-2.2748196125030518,-0.169718936085701,-1.3672854900360107
1667776289719786000,3.206785888671875,-2.969968557357788,-0.3926216661930084,-1.7395989894866943
1667776289729837800,3.216837890625,-3.472515344619751,-0.8683738708496094,-2.054346799850464
1667776289739889000,3.226888916015625,-3.6304948329925537,-1.483116865158081,-2.2905526161193848
1667776289749940000,3.23693994140625,-3.385183334350586,-1.9844266176223755,-2.4600305557250977
1667776289759991000,3.246990966796875,-2.934335470199585,-2.453632354736328,-2.473928213119507
1667776289770041900,3.257041748046875,-2.179926633834839,-2.5076961517333984,-2.2648122310638428
1667776289780094000,3.267093994140625,-1.260443925857544,-1.9170128107070923,-1.833775520324707
1667776289790145000,3.27714501953125,-0.4550161361694336,-0.7806877493858337,-1.1005361080169678
1667776289800195800,3.28719580078125,-0.04524639993906021,0.9399058818817139,-0.3776743412017822
1667776289810247000,3.297246826171875,0.01217002235352993,1.5536688566207886,0.14188867807388306
1667776289820298000,3.307298095703125,-0.2397414743900299,1.3973692655563354,0.4119129776954651
1667776289830349800,3.317349853515625,-0.7859217524528503,0.9307178854942322,0.35301291942596436
1667776289840401000,3.32740087890625,-1.3484281301498413,0.7155733704566956,-0.005992648657411337
1667776289850452000,3.337451904296875,-1.296133279800415,0.7657971382141113,-0.21460498869419098
1667776289860503000,3.3475029296875,-0.7492314577102661,0.39602479338645935,-0.30145078897476196
1667776289870553900,3.357553955078125,-0.32927629351615906,-0.4631144404411316,-0.44340845942497253
1667776289880605000,3.36760498046875,-0.24194535613059998,-1.0227299928665161,-0.5612244009971619
1667776289890657000,3.377656982421875,0.1389026641845703,-0.974707305431366,-0.41341230273246765
1667776289900707800,3.387707763671875,0.5962355136871338,-0.7161279916763306,0.0337783508002758
1667776289910759000,3.397759033203125,0.8933348059654236,-0.006585713010281324,0.6850232481956482
1667776289920810000,3.40781005859375,1.0986536741256714,0.7359277009963989,1.263770580291748
1667776289930861000,3.417861083984375,1.5018788576126099,1.312273383140564,1.645297646522522
1667776289940913000,3.427912841796875,1.9723378419876099,1.7332124710083008,1.7593694925308228
1667776289950964000,3.4379638671875,2.191040515899658,0.47908011078834534,2.4019358158111572
1667776289961015000,3.44801513671875,2.0875329971313477,2.498142719268799,2.226180076599121
1667776289971066000,3.458066162109375,2.081880807876587,3.9362502098083496,1.9715293645858765
1667776289981117000,3.468116943359375,1.6030193567276,4.462156295776367,1.4967187643051147
1667776289991169000,3.4781689453125,0.6022515892982483,3.717818260192871,0.5465596318244934
1667776290001220000,3.48822021484375,-0.5376458168029785,2.173506736755371,-0.3664214313030243
1667776290011271000,3.49827099609375,-1.362720251083374,0.0793808102607727,-0.516886830329895
1667776290021322000,3.508322021484375,-1.939232587814331,-2.0961742401123047,-0.2977909445762634
1667776290031373000,3.518373046875,-2.308420181274414,-3.470717668533325,-0.2074836939573288
1667776290041425000,3.5284248046875,-2.6482560634613037,-3.687896966934204,-0.39187008142471313
1667776290051476000,3.53847607421875,-2.787710428237915,-2.715548038482666,-0.6235733032226562
1667776290061527000,3.548527099609375,-2.5827009677886963,-1.3335667848587036,-0.6323798298835754
1667776290071578000,3.558578125,-2.0976247787475586,-0.4085729420185089,-0.5182780027389526
1667776290081629000,3.56862890625,-1.5776252746582031,0.03874972462654114,-0.3425881862640381
1667776290091679700,3.5786796875,-1.1464719772338867,0.3201926052570343,-0.1384291648864746
1667776290101732000,3.588732177734375,-0.7207928895950317,0.4708307981491089,-0.05481106415390968
1667776290111783000,3.598782958984375,-0.3462027907371521,0.4683314263820648,-0.11589651554822922
1667776290121834000,3.608833984375,-0.12366662919521332,0.4077664315700531,-0.21997754275798798
1667776290131884800,3.618884765625,-0.09809362143278122,0.3533276915550232,-0.2802337110042572
1667776290141935900,3.628935791015625,-0.3097001612186432,0.3650663197040558,-0.23850810527801514
1667776290151988000,3.638988037109375,-0.49238207936286926,0.4744521975517273,-0.14297838509082794
1667776290162038800,3.649038818359375,-0.6300644874572754,0.8950360417366028,0.04979530721902847
1667776290172089900,3.65908984375,-0.9448370933532715,1.5125064849853516,0.2146710902452469
1667776290182141000,3.669140869140625,-1.516162395477295,2.2027366161346436,0.35562413930892944
1667776290192191700,3.679191650390625,-2.1823723316192627,2.91404128074646,0.6041596531867981
1667776290202243800,3.689243896484375,-2.732043504714966,4.126296520233154,1.3036776781082153
1667776290212295000,3.699294921875,-3.234995126724243,5.718472957611084,2.618337631225586
1667776290222345700,3.709345703125,-3.8644208908081055,6.572515487670898,3.6406211853027344
1667776290232396800,3.719396728515625,-4.405044078826904,6.793196678161621,4.27839994430542
1667776290242448000,3.72944775390625,-4.761938571929932,6.681517601013184,4.5528178215026855
1667776290252499700,3.739499755859375,-4.881199836730957,6.175800323486328,4.420170783996582
1667776290262550800,3.74955078125,-4.593966960906982,4.564352035522461,3.249326467514038
1667776290272601900,3.759601806640625,-4.193977355957031,2.3217926025390625,1.691638708114624
1667776290282653000,3.76965283203125,-3.853834390640259,0.16788800060749054,0.3660094439983368
1667776290292703700,3.779703857421875,-3.571974754333496,-1.6125030517578125,-0.39410653710365295
1667776290302755800,3.789755859375,-3.3408737182617188,-2.816012382507324,-0.6911928653717041
1667776290312807000,3.799806884765625,-3.184781789779663,-3.3298990726470947,-0.7246690392494202
1667776290322858000,3.80985791015625,-3.13657546043396,-2.9400031566619873,-0.4641740620136261
1667776290332908800,3.81990869140625,-3.1358344554901123,-1.69822359085083,0.2053171992301941
1667776290342959900,3.8299599609375,-3.203350305557251,-0.20386481285095215,0.9896109104156494
1667776290353011000,3.840010986328125,-3.3030319213867188,1.0022515058517456,1.641487717628479
1667776290363062800,3.850062744140625,-3.425208806991577,1.64857017993927,1.9651765823364258
1667776290373113900,3.86011376953125,-3.592024326324463,1.6076717376708984,1.8387656211853027
1667776290383165000,3.8701650390625,-3.4862232208251953,0.9161074757575989,1.35991632938385
1667776290393216000,3.880216064453125,-2.4480395317077637,-0.12249469757080078,0.6160299777984619
1667776290403266800,3.890266845703125,-0.7099805474281311,-0.8940153121948242,-0.21731318533420563
1667776290413319000,3.90031884765625,0.572838306427002,-1.1132004261016846,-0.6711477637290955
1667776290423370000,3.910369873046875,0.9066565036773682,-0.8966869711875916,-0.5725189447402954
1667776290433420800,3.9204208984375,0.8007020950317383,-0.49724021553993225,-0.1414482444524765
1667776290443472000,3.930471923828125,0.6838857531547546,-0.36430445313453674,0.2325422316789627
1667776290453523000,3.94052294921875,0.7713199853897095,-0.3562784790992737,0.42108631134033203
1667776290463574800,3.95057470703125,0.9724178314208984,-0.4049764573574066,0.4698120057582855
1667776290473625900,3.9606259765625,1.0959256887435913,-0.41233742237091064,0.4198705554008484
1667776290483677000,3.970677001953125,1.0332106351852417,-0.3995344340801239,0.34519439935684204
1667776290493728000,3.98072802734375,0.8008028268814087,-0.34830746054649353,0.26642313599586487
1667776290503778800,3.99077880859375,0.47390270233154297,-0.2194538563489914,0.15273337066173553
1667776290513831000,4.000830810546875,0.17901591956615448,-0.026911582797765732,0.03152120113372803
1667776290523882000,4.010882080078125,-0.0351019948720932,0.12178688496351242,-0.07126612216234207
1667776290533932800,4.020932861328125,-0.1220262348651886,0.16992858052253723,-0.1443784087896347
1667776290543983900,4.03098388671875,-0.16921129822731018,0.19019357860088348,-0.09568627923727036
1667776290554035000,4.041034912109375,-1.731823205947876,0.36128169298171997,0.08190048485994339
1667776290564086000,4.0510859375,-2.19760799407959,-0.07215005159378052,-0.06918871402740479
1667776290574137900,4.061137939453125,-1.3011047840118408,-0.5221931338310242,-0.18109767138957977
1667776290584189000,4.07118896484375,-0.7753936648368835,-0.43709754943847656,-0.12932132184505463
1667776290594240000,4.081239990234375,-0.9389735460281372,-0.006299544125795364,-0.029651986435055733
1667776290604291000,4.091291015625,-0.7408823370933533,0.31456199288368225,-0.00029608840122818947
1667776290614342000,4.101341796875,-0.31753405928611755,0.48550498485565186,0.030029326677322388
1667776290624394000,4.11139404296875,-0.04838862270116806,0.4972793757915497,0.012799372896552086
1667776290634445000,4.121445068359375,0.1715967357158661,0.37365517020225525,-0.011284656822681427
1667776290644496600,4.13149658203125,0.34306642413139343,0.16401752829551697,0.0071502202190458775
1667776290654547700,4.141547607421875,0.3963448405265808,-0.019451629370450974,0.05314194783568382
1667776290664598800,4.151598876953125,0.38708028197288513,-0.13120463490486145,0.06751271337270737
1667776290674651000,4.16165087890625,0.40735599398612976,-0.21889933943748474,-0.0016341300215572119
1667776290684701700,4.17170166015625,0.4089663326740265,-0.2621651589870453,-0.10928906500339508
1667776290694752800,4.181752685546875,0.43112996220588684,-0.28295910358428955,-0.22711610794067383
1667776290704803600,4.191803466796875,0.4716924726963043,-0.3611448407173157,-0.3642105758190155
1667776290714854700,4.201854736328125,0.5178733468055725,-0.578765332698822,-0.5963207483291626
1667776290724906800,4.21190673828125,0.5443707704544067,-0.8554096221923828,-0.9103952646255493
1667776290734957600,4.22195751953125,0.5197479724884033,-1.0578455924987793,-1.2056394815444946
1667776290745008600,4.232008544921875,0.36333420872688293,-1.0338295698165894,-1.2583811283111572
1667776290755059700,4.242059814453125,-0.38867509365081787,-2.115896224975586,-1.3116563558578491
1667776290765110800,4.25211083984375,-0.4743059575557709,-1.8300867080688477,-0.8520405888557434
1667776290775162600,4.26216259765625,-0.40848299860954285,-1.2689472436904907,-0.5005238056182861
1667776290785213700,4.272213623046875,-0.0887511819601059,-0.563149094581604,-0.16062180697917938
1667776290795264800,4.2822646484375,0.28609299659729004,0.1582048386335373,0.15992264449596405
1667776290805315800,4.29231591796875,0.29364272952079773,0.7006847262382507,0.4028511941432953
1667776290815366700,4.30236669921875,0.18673358857631683,0.8648795485496521,0.4421440064907074
1667776290825417700,4.312417724609375,0.16882172226905823,0.831203043460846,0.36664748191833496
1667776290835469800,4.3224697265625,0.19242878258228302,0.6042372584342957,0.24560172855854034
1667776290845520600,4.332520751953125,0.22115477919578552,0.2018863409757614,0.11363992094993591
1667776290855571700,4.34257177734375,0.2778569459915161,-0.2956874966621399,-0.033966585993766785
1667776290865622800,4.352622802734375,0.3055639863014221,-0.7705196142196655,-0.2116333544254303
1667776290875673900,4.362673828125,0.3498518168926239,-1.0806337594985962,-0.41525357961654663
1667776290885725700,4.3727255859375,0.44409382343292236,-1.1877597570419312,-0.6475129723548889
1667776290895776800,4.38277685546875,0.5776700377464294,-1.1049857139587402,-0.9299960732460022
1667776290905827800,4.392827880859375,0.6377987861633301,-0.794219434261322,-1.1453100442886353
1667776290915878700,4.402878662109375,0.6827138066291809,-0.3748199939727783,-1.3133596181869507
1667776290925929700,4.4129296875,0.7011627554893494,0.021640844643115997,-1.4181731939315796
1667776290935981800,4.42298193359375,0.7217402458190918,0.28929704427719116,-1.441017508506775
1667776290946032600,4.43303271484375,0.6838327646255493,0.38204076886177063,-1.3616141080856323
1667776290956083700,4.443083740234375,0.546066403388977,0.2958526015281677,-1.2032746076583862
1667776290966134800,4.453134765625,0.3099297881126404,0.11695320159196854,-0.9911231994628906
1667776290976185900,4.463185791015625,0.058901023119688034,-0.06095634028315544,-0.7593158483505249
1667776290986237000,4.47323681640625,-0.07339787483215332,-0.17699936032295227,-0.5640945434570312
1667776290996288800,4.483288818359375,-0.09729069471359253,-0.19969137012958527,-0.43757763504981995
1667776291006339800,4.49333984375,-0.08353148400783539,-0.13626481592655182,-0.35960519313812256
1667776291016391000,4.503390869140625,-0.04191959649324417,-0.003057765308767557,-0.3124115765094757
1667776291026441700,4.513441650390625,0.015024060383439064,0.16268497705459595,-0.2718544006347656
1667776291036492800,4.523492919921875,0.06011909991502762,0.3015906512737274,-0.22668665647506714
1667776291046545000,4.533544921875,0.10841722786426544,0.40809106826782227,-0.17276006937026978
1667776291056595700,4.543595703125,0.15046827495098114,0.4986867308616638,-0.1208563968539238
1667776291066646800,4.553646728515625,0.19692862033843994,0.575275719165802,-0.05509631708264351
1667776291076697900,4.56369775390625,0.24530494213104248,0.6344402432441711,0.01914755254983902
1667776291086749000,4.5737490234375,0.28592199087142944,0.6527040600776672,0.11545874178409576
1667776291096800800,4.58380078125,0.3213537633419037,0.6131066083908081,0.24992041289806366
1667776291106851800,4.593851806640625,0.34797289967536926,0.542195737361908,0.4213043749332428
1667776291116903000,4.60390283203125,0.3565096855163574,0.4429229497909546,0.6179431080818176
1667776291126953700,4.61395361328125,0.3432908058166504,0.31842610239982605,0.8110467791557312
1667776291137004800,4.6240048828125,0.3154469430446625,0.1510019451379776,0.9745504856109619
1667776291147055900,4.634055908203125,0.2705433964729309,-0.051802702248096466,1.104872226715088
1667776291157107700,4.644107666015625,0.21888205409049988,-0.25756600499153137,1.183170199394226
1667776291167158800,4.65415869140625,0.16686329245567322,-0.4058413803577423,1.2098029851913452
1667776291177209900,4.6642099609375,0.141887366771698,-0.4534839987754822,1.1935970783233643
1667776291187261000,4.674260986328125,0.12057457119226456,-0.39128270745277405,1.1725704669952393
1667776291197312000,4.68431201171875,0.10472770035266876,-0.2549099624156952,1.1685512065887451
1667776291207363800,4.69436376953125,0.04618266969919205,-0.09933684021234512,1.1503084897994995
1667776291217415000,4.704414794921875,-0.06109637767076492,-0.008967794477939606,1.077027678489685
1667776291227466000,4.714466064453125,-0.1952328085899353,-0.015559645369648933,0.9448310732841492
1667776291237516800,4.724516845703125,-0.35644328594207764,0.010010428726673126,0.7718291878700256
1667776291247568000,4.73456787109375,-0.5056415796279907,0.17937788367271423,0.5765683650970459
1667776291257620000,4.744619873046875,-0.6363362073898315,0.4319044351577759,0.3767316937446594
1667776291267670800,4.7546708984375,-0.7071518898010254,0.585581362247467,0.13832628726959229
1667776291277721900,4.764721923828125,-0.7129588723182678,0.49527305364608765,-0.0960870161652565
1667776291287773000,4.77477294921875,-0.6658002138137817,0.20730650424957275,-0.19026707112789154
1667776291297824000,4.784823974609375,-0.5990614295005798,0.051011450588703156,-0.01221824437379837
1667776291307875800,4.794875732421875,-0.46959060430526733,0.01624210551381111,0.425441712141037
1667776291317927000,4.804927001953125,-0.321150541305542,-0.24904735386371613,0.9293307662010193
1667776291327978000,4.81497802734375,-0.1617746502161026,-0.689392626285553,1.3183979988098145
1667776291338028800,4.82502880859375,0.0462467260658741,-1.0206843614578247,1.561506748199463
1667776291348079600,4.83507958984375,0.24665868282318115,-1.0700831413269043,1.6644138097763062
1667776291358130700,4.845130615234375,0.37333938479423523,-0.8896816372871399,1.6427139043807983
1667776291368182800,4.855182861328125,0.4303434193134308,-0.6282260417938232,1.4600300788879395
1667776291378233900,4.86523388671875,0.42020583152770996,-0.3610142767429352,1.1150394678115845
1667776291388284700,4.87528466796875,0.30692559480667114,0.041345804929733276,0.7330886125564575
1667776291398335700,4.885335693359375,0.09875322133302689,0.5362346172332764,0.5128957629203796
1667776291408386800,4.89538671875,-0.0795295462012291,0.8348573446273804,0.5313962697982788
1667776291418439000,4.90543896484375,-0.13410277664661407,0.7178282141685486,0.6723092198371887
1667776291428489700,4.91548974609375,-0.13436630368232727,0.3405817747116089,0.7507656216621399
1667776291438540800,4.925540771484375,-0.16538174450397491,-0.10446812212467194,0.7690969109535217
1667776291448591600,4.935591552734375,-0.21230164170265198,-0.46700942516326904,0.8047964572906494
1667776291458642700,4.945642578125,-0.2556062340736389,-0.663590133190155,0.9106704592704773
1667776291468694800,4.95569482421875,-0.3105866014957428,-0.7517961859703064,1.0820246934890747
1667776291478745600,4.96574560546875,-0.3249088227748871,-0.7676861882209778,1.2771230936050415
1667776291488796700,4.975796630859375,-0.2990770936012268,-0.7549964189529419,1.4424314498901367
1667776291498847700,4.98584765625,-0.21509374678134918,-0.8120130896568298,1.5505973100662231
1667776291508898800,4.99589892578125,-0.09752099961042404,-0.8591897487640381,1.5907714366912842
1667776291518949600,5.00594970703125,-0.006314920261502266,-0.8538530468940735,1.5465205907821655
1667776291529001700,5.016001708984375,0.022702867165207863,-0.7443338632583618,1.4235365390777588
1667776291539052800,5.026052734375,0.002034605946391821,-0.5161520838737488,1.2447645664215088
1667776291549103600,5.036103515625,-0.03828651085495949,-0.21465668082237244,1.0337473154067993
1667776291559154700,5.04615478515625,-0.10401599109172821,0.07555649429559708,0.8256481885910034
1667776291569205800,5.056205810546875,-0.1673567146062851,0.2834952473640442,0.6632492542266846
1667776291579257600,5.066257568359375,-0.21211139857769012,0.39454185962677,0.5651829242706299
1667776291589308700,5.07630859375,-0.22897277772426605,0.4022161364555359,0.5606800317764282
1667776291599359700,5.08635986328125,-0.2451765090227127,0.3464790880680084,0.6136849522590637
1667776291609410800,5.096410888671875,-0.2596234679222107,0.23151491582393646,0.6702452301979065
1667776291619462000,5.1064619140625,-0.26388800144195557,0.06429874897003174,0.7351086139678955
1667776291629513700,5.116513671875,-0.2699374258518219,-0.09466855227947235,0.835139274597168
1667776291639564000,5.12656396484375,-0.2758144736289978,-0.1734296828508377,0.9383660554885864
1667776291649614800,5.13661474609375,-0.2861618399620056,-0.12342382967472076,1.0051701068878174
1667776291659666000,5.146666015625,-0.28708329796791077,-0.020823687314987183,0.9810224175453186
1667776291669716700,5.156716796875,-0.2750348150730133,0.02702959254384041,0.8544973134994507
1667776291679767800,5.166767822265625,-0.261004239320755,0.024665502831339836,0.6739123463630676
1667776291689820000,5.17681982421875,-0.24716287851333618,-0.02942657843232155,0.4782937467098236
1667776291699870700,5.18687060546875,-0.241502583026886,-0.0732952356338501,0.3041539192199707
1667776291709921800,5.196921875,-0.20711305737495422,-0.09458373486995697,0.15578314661979675
1667776291719972900,5.206972900390625,-0.17458760738372803,-0.07706412672996521,0.052760619670152664
1667776291730024000,5.21702392578125,-0.15124410390853882,-0.0025535947643220425,-0.005453092511743307
1667776291740075800,5.22707568359375,-0.16176465153694153,0.06140594929456711,-0.012744560837745667
1667776291750126800,5.237126953125,-0.18131886422634125,0.04497465863823891,0.007474762853235006
1667776291760178000,5.247177978515625,-0.18474368751049042,-0.035911135375499725,0.023124296218156815
1667776291770228700,5.257228759765625,-0.15691013634204865,-0.11544173210859299,0.03259412199258804
1667776291780279800,5.26727978515625,-0.11098499596118927,-0.1518988162279129,0.044400446116924286
1667776291790332000,5.277331787109375,-0.06410664319992065,-0.15241572260856628,0.06164497509598732
1667776291800383000,5.287383056640625,-0.03412210941314697,-0.1419905126094818,0.06388682872056961
1667776291810433800,5.297433837890625,-0.02771821990609169,-0.1601061075925827,0.017269639298319817
1667776291820484900,5.30748486328125,-0.03654739633202553,-0.2317744344472885,-0.09713523834943771
1667776291830536000,5.317535888671875,-0.035086438059806824,-0.3396087884902954,-0.2673228085041046
1667776291840587000,5.3275869140625,-0.028436526656150818,-0.4294651746749878,-0.48452410101890564
1667776291850638800,5.337638916015625,-0.013158774934709072,-0.44933804869651794,-0.7196020483970642
1667776291860690000,5.34768994140625,0.014225444756448269,-0.37094125151634216,-0.9421864151954651
1667776291870741000,5.357740966796875,0.04635616019368172,-0.1822039932012558,-1.149945855140686
1667776291880791800,5.367791748046875,0.08462338894605637,0.06285902857780457,-1.3554654121398926
1667776291890843000,5.3778427734375,0.12510836124420166,0.29917648434638977,-1.5498793125152588
1667776291900895000,5.38789501953125,0.15925726294517517,0.47801336646080017,-1.7365554571151733
1667776291910945800,5.39794580078125,0.17794321477413177,0.5936026573181152,-1.9052752256393433
1667776291920996900,5.407996826171875,0.18684004247188568,0.6551709771156311,-2.059912919998169
1667776291931048000,5.4180478515625,0.18633776903152466,0.6750525236129761,-2.22501802444458
1667776291941099000,5.42809912109375,0.1763932704925537,0.6416833400726318,-2.406527280807495
1667776291951150800,5.43815087890625,0.15922747552394867,0.5552142858505249,-2.553687572479248
1667776291961202000,5.448201904296875,0.14110572636127472,0.388797402381897,-2.627641439437866
1667776291971253000,5.4582529296875,0.12167743593454361,0.11654950678348541,-2.5867135524749756
1667776291981303800,5.4683037109375,0.11135023087263107,-0.23449400067329407,-2.4263083934783936
1667776291991355000,5.47835498046875,0.11606846004724503,-0.619750440120697,-2.2127134799957275
1667776292001406000,5.488406005859375,0.1228661760687828,-0.9980577826499939,-1.9996919631958008
1667776292011458000,5.4984580078125,0.13393524289131165,-1.295437216758728,-1.8055541515350342
1667776292021508900,5.5085087890625,0.18184123933315277,-1.3784087896347046,-1.6399660110473633
1667776292031560000,5.518559814453125,0.2520153224468231,-1.1364532709121704,-1.4705555438995361
1667776292041611000,5.528611083984375,0.33477357029914856,-0.7796232104301453,-1.2835267782211304
1667776292051662000,5.538662109375,0.4504397213459015,-0.4641695022583008,-1.1451917886734009
1667776292061714000,5.5487138671875,0.6021895408630371,-0.14292940497398376,-1.0497030019760132
1667776292071765000,5.558764892578125,0.8115053772926331,0.054749298840761185,-0.9866679310798645
1667776292081816000,5.568816162109375,1.0423566102981567,0.1027786135673523,-0.9865440726280212
1667776292091867000,5.578866943359375,1.2512609958648682,0.10924564301967621,-1.0149497985839844
1667776292101918000,5.58891796875,1.4211347103118896,0.19143930077552795,-1.0157318115234375
1667776292111970000,5.598969970703125,1.5136895179748535,0.46142104268074036,-0.9607511758804321
1667776292122020900,5.609020751953125,1.4479891061782837,0.8660563826560974,-0.9446526169776917
1667776292132072000,5.619072021484375,1.336240530014038,1.2755968570709229,-1.010751485824585
1667776292142123000,5.629123046875,1.2198225259780884,1.6213020086288452,-1.0998531579971313
1667776292152174000,5.639174072265625,1.106432557106018,1.8934203386306763,-1.2001150846481323
1667776292162226000,5.649225830078125,1.0032649040222168,2.113342046737671,-1.2772128582000732
1667776292172277000,5.659277099609375,0.9195401072502136,2.255596876144409,-1.32051682472229
1667776292182328000,5.669328125,0.8517908453941345,2.2571263313293457,-1.3372797966003418
1667776292192379000,5.67937890625,0.7516265511512756,2.112243413925171,-1.3020696640014648
1667776292202430000,5.689429931640625,0.6066323518753052,1.8752315044403076,-1.2168614864349365
1667776292212481000,5.69948095703125,0.4123495817184448,1.591958999633789,-1.067380666732788
1667776292222532900,5.709532958984375,0.19536907970905304,1.309975028038025,-0.8828048706054688
1667776292232584000,5.719583984375,-0.016484104096889496,1.0335896015167236,-0.7231466770172119
1667776292242635000,5.729635009765625,-0.11025959998369217,0.8439245820045471,-0.6264012455940247
1667776292252686000,5.73968603515625,-0.11520536243915558,0.666741669178009,-0.5671946406364441
1667776292262737200,5.749737060546875,-0.09487398713827133,0.4566020369529724,-0.5200303196907043
1667776292272789000,5.7597890625,-0.06961902230978012,0.19534684717655182,-0.4681123197078705
1667776292282840000,5.769840087890625,-0.05495805665850639,-0.11010601371526718,-0.37905752658843994
1667776292292891100,5.77989111328125,-0.053358230739831924,-0.4026377201080322,-0.26305899024009705
1667776292302942000,5.78994189453125,-0.02415294200181961,-0.6635162234306335,-0.15534904599189758
1667776292312992800,5.79999267578125,0.026312045753002167,-0.8396046757698059,-0.06513644009828568
1667776292323045000,5.810045166015625,0.09498272091150284,-0.8657540082931519,0.02400701865553856
1667776292333096000,5.820095947265625,0.18729910254478455,-0.7614536285400391,0.104106105864048
1667776292343147000,5.83014697265625,0.2661744952201843,-0.5387473106384277,0.1698574274778366
1667776292353197800,5.84019775390625,0.31847912073135376,-0.20796507596969604,0.22225911915302277
1667776292363249000,5.850248779296875,0.3316875994205475,0.16634993255138397,0.26308247447013855
1667776292373299700,5.8602998046875,0.2684537470340729,0.4951339066028595,0.296450674533844
1667776292383351800,5.870351806640625,0.16443783044815063,0.7915074825286865,0.3213041126728058
1667776292393403000,5.88040283203125,0.08336876332759857,1.019364595413208,0.32648760080337524
1667776292403454000,5.890453857421875,0.07799450308084488,1.1139699220657349,0.3622005879878998
1667776292413504800,5.9005048828125,0.10295840352773666,1.0607362985610962,0.4674636721611023
1667776292423555800,5.910555908203125,0.14103974401950836,0.881665825843811,0.6047853231430054
1667776292433608000,5.92060791015625,0.14156556129455566,0.6547080874443054,0.7385859489440918
1667776292443658800,5.93065869140625,0.07850643247365952,0.4756377041339874,0.769344687461853
1667776292453709800,5.940709716796875,0.016361122950911522,0.4793756604194641,0.6728392243385315
1667776292463761000,5.950760986328125,0.02869582176208496,0.6285271048545837,0.4890108108520508
1667776292473812000,5.96081201171875,0.0922030508518219,0.5738943815231323,0.42969799041748047
1667776292483862800,5.97086279296875,0.2215956747531891,0.15189920365810394,0.6651155948638916
1667776292493915000,5.980914794921875,0.38868317008018494,-0.19267049431800842,1.1974303722381592
1667776292503966000,5.990966064453125,0.5108495354652405,-0.35884082317352295,1.9168987274169922
1667776292514016800,6.001016845703125,0.5587214231491089,-0.43938690423965454,2.7178847789764404
1667776292524067800,6.01106787109375,0.521577775478363,-0.5304190516471863,3.465456962585449
1667776292534119000,6.021118896484375,0.3560384511947632,-0.8390225768089294,4.029572486877441
1667776292544170800,6.031170654296875,0.025148937478661537,-1.317230463027954,4.381958961486816
1667776292554221800,6.041221923828125,-0.4445747137069702,-1.9561940431594849,4.356072902679443
1667776292564273000,6.05127294921875,-0.7559105157852173,-2.4381346702575684,3.5117428302764893
1667776292574324000,6.061323974609375,-0.772370457649231,-2.574968099594116,2.5497095584869385
1667776292584374800,6.071374755859375,-0.8172585964202881,-2.082601308822632,2.1253113746643066
1667776292594427000,6.081427001953125,-0.7117522954940796,-1.1107804775238037,1.8199853897094727
1667776292604478000,6.09147802734375,-0.44020360708236694,-0.40156155824661255,1.441495418548584
1667776292614528800,6.10152880859375,-0.33660417795181274,-0.22529901564121246,1.1675994396209717
1667776292624579800,6.111579833984375,-0.4162713289260864,-0.35705092549324036,1.0872241258621216
1667776292634631000,6.121630859375,-0.5561420321464539,-0.6849529147148132,1.169284701347351
1667776292644681700,6.131681640625,-0.6434116959571838,-1.0895233154296875,1.368483304977417
1667776292654733600,6.141733642578125,-0.6118559837341309,-1.3247932195663452,1.6180706024169922
1667776292664784600,6.15178466796875,-0.4430605471134186,-1.2944755554199219,1.7951185703277588
1667776292674835700,6.161835693359375,-0.18715395033359528,-1.1102044582366943,1.8589140176773071
1667776292684886800,6.17188671875,0.07627608627080917,-0.9678522944450378,1.8387717008590698
1667776292694937600,6.1819375,0.2501787841320038,-0.9726260304450989,1.7620304822921753
1667776292704989700,6.19198974609375,0.3167530298233032,-1.0276941061019897,1.6232099533081055
1667776292715040800,6.202040771484375,0.2279175966978073,-0.8431572914123535,1.4429740905761719
1667776292725091600,6.212091552734375,-0.09004545211791992,-0.32350847125053406,1.3863528966903687
1667776292735142700,6.222142578125,-0.3786632716655731,0.27608025074005127,1.4191014766693115
1667776292745193700,6.23219384765625,-0.3420112431049347,0.48602816462516785,1.452384352684021
1667776292755245600,6.24224560546875,-0.22480106353759766,0.21480213105678558,1.4629507064819336
1667776292765296600,6.252296630859375,-0.19958892464637756,-0.2186739295721054,1.4040554761886597
1667776292775347700,6.26234765625,-0.26318517327308655,-0.46372586488723755,1.2490284442901611
1667776292785398800,6.272398681640625,-0.3116946518421173,-0.3563501238822937,1.0118403434753418
1667776292795449900,6.282449951171875,-0.30430033802986145,-0.006680899299681187,0.7843342423439026
1667776292805501700,6.292501708984375,-0.27504125237464905,0.23936456441879272,0.6154472231864929
1667776292815552800,6.302552734375,-0.19146543741226196,0.2520972490310669,0.5079805254936218
1667776292825603800,6.312603759765625,-0.05259731411933899,0.037751130759716034,0.4282969534397125
1667776292835654700,6.322654541015625,0.11528927087783813,-0.2385280877351761,0.30775120854377747
1667776292845705700,6.332705810546875,0.25963231921195984,-0.36344605684280396,0.13604392111301422
1667776292855756800,6.3427568359375,0.33519595861434937,-0.3474556803703308,-0.06918492913246155
1667776292865808600,6.35280859375,0.327193945646286,-0.2711310386657715,-0.22072438895702362
1667776292875859700,6.362859619140625,0.25563544034957886,-0.1758168339729309,-0.31463295221328735
1667776292885910800,6.372910888671875,0.1627347767353058,-0.16998611390590668,-0.41731351613998413
1667776292895961900,6.3829619140625,0.07643671333789825,-0.2614128291606903,-0.556134819984436
1667776292906012700,6.3930126953125,0.00544323306530714,-0.3473474681377411,-0.6999518871307373
1667776292916064800,6.403064697265625,-0.057164616882801056,-0.3994322419166565,-0.8632460832595825
1667776292926115800,6.41311572265625,-0.11543910950422287,-0.513578474521637,-1.0966105461120605
1667776292936166700,6.423166748046875,-0.15893401205539703,-0.7639021277427673,-1.4068493843078613
1667776292946217700,6.4332177734375,-0.13295115530490875,-1.112635612487793,-1.745123267173767
1667776292956268800,6.443268798828125,-0.04481538385152817,-1.4404069185256958,-2.0333197116851807
1667776292966320600,6.453320556640625,0.06922224164009094,-1.548133134841919,-2.281010389328003
1667776292976371700,6.463371826171875,0.14854054152965546,-1.3528937101364136,-2.5320119857788086
1667776292986422800,6.4734228515625,0.19041554629802704,-0.9223172664642334,-2.8015425205230713
1667776292996473900,6.483473876953125,0.3090531527996063,-0.37779316306114197,-3.0911765098571777
1667776293006524700,6.493524658203125,0.5547758340835571,0.2678827941417694,-3.407322645187378
1667776293016575500,6.503575439453125,0.8432568907737732,1.0713996887207031,-3.753289222717285
1667776293026627800,6.5136279296875,1.2953500747680664,2.0962486267089844,-3.5977158546447754
1667776293036678700,6.5236787109375,1.6322985887527466,2.6922881603240967,-3.3115556240081787
1667776293046729500,6.5337294921875,1.3366856575012207,1.9826096296310425,-3.1391372680664062
1667776293056780500,6.543780517578125,0.8893783092498779,0.17724129557609558,-2.8608438968658447
1667776293066831600,6.55383154296875,0.862468421459198,-1.5398781299591064,-2.4171955585479736
1667776293076883500,6.563883544921875,1.2835274934768677,-1.996502161026001,-2.0541770458221436
1667776293086934500,6.5739345703125,1.7221490144729614,-1.31880521774292,-2.1114485263824463
1667776293096985600,6.583985595703125,1.7939820289611816,-0.3482803702354431,-2.3272597789764404
1667776293107036700,6.59403662109375,1.5309144258499146,0.3829941153526306,-2.512159585952759
1667776293117087500,6.60408740234375,1.1722424030303955,0.624122142791748,-2.5768532752990723
1667776293127139600,6.6141396484375,0.8970134258270264,0.41593196988105774,-2.523867607116699
1667776293137190700,6.624190673828125,0.8143936395645142,-0.06185787916183472,-2.3986220359802246
1667776293147241500,6.634241455078125,0.8955984711647034,-0.45793065428733826,-2.224341869354248
1667776293157292500,6.64429248046875,0.9645429253578186,-0.5386208295822144,-2.002075433731079
1667776293167343600,6.654343505859375,0.9558873772621155,-0.11611932516098022,-1.7337162494659424
1667776293177395500,6.6643955078125,0.9026554822921753,0.5644533038139343,-1.5358366966247559
1667776293187446500,6.674446533203125,0.7930884957313538,1.080791711807251,-1.4278473854064941
1667776293197497600,6.68449755859375,0.6824833750724792,1.215954065322876,-1.2551443576812744
1667776293207548700,6.694548583984375,0.5270447731018066,0.9495298862457275,-0.9698693156242371
1667776293217599700,6.704599853515625,0.3383047580718994,0.5369494557380676,-0.563595175743103
1667776293227650600,6.714650634765625,0.10679855942726135,0.1694159209728241,-0.13744841516017914
1667776293237702700,6.72470263671875,-0.1018017902970314,-0.0838637575507164,0.2493261992931366
1667776293247753700,6.734753662109375,-0.2278585284948349,-0.2716009020805359,0.659302294254303
1667776293257804500,6.744804443359375,-0.3036363124847412,-0.3488844931125641,1.130316972732544
1667776293267855600,6.754855712890625,-0.4237462282180786,-0.29556214809417725,1.6220906972885132
1667776293277906700,6.76490673828125,-0.6300591230392456,-0.15799133479595184,2.070030450820923
1667776293287958500,6.77495849609375,-0.887650191783905,0.01623372733592987,2.420225143432617
1667776293298009600,6.785009521484375,-1.1427512168884277,0.30687880516052246,2.671630382537842
1667776293308060700,6.795060791015625,-1.32271146774292,0.7415165305137634,2.8498003482818604
1667776293318111700,6.80511181640625,-1.3332809209823608,1.0219138860702515,2.9571144580841064
1667776293328162600,6.81516259765625,-1.2028728723526,0.8887355923652649,2.970418691635132
1667776293338214700,6.825214599609375,-0.911650538444519,0.3645836114883423,2.8160552978515625
1667776293348265700,6.835265625,-0.43194225430488586,-0.7181812524795532,2.004794120788574
1667776293358316500,6.845316650390625,0.3441615402698517,-2.4010891914367676,0.18379497528076172
1667776293368367600,6.85536767578125,1.0185798406600952,-3.258073329925537,-0.8781602382659912
1667776293378418700,6.865418701171875,0.9549298286437988,-2.021341323852539,0.021796628832817078
1667776293388470500,6.875470458984375,0.5330286622047424,-0.881483793258667,1.5364221334457397
1667776293398521600,6.885521484375,0.2107187956571579,-1.5676124095916748,1.8745272159576416
1667776293408572700,6.89557275390625,0.1079588532447815,-2.703569173812866,1.2267221212387085
1667776293418623700,6.905623779296875,-0.15900546312332153,-2.6326889991760254,0.5158709287643433
1667776293428674800,6.9156748046875,-0.5294181108474731,-1.33907949924469,0.09260490536689758
1667776293438725600,6.9257255859375,-0.7144961357116699,1.1371829509735107,-0.23503410816192627
1667776293448777700,6.93577783203125,-0.5116588473320007,3.0600013732910156,-0.20472227036952972
1667776293458828800,6.945828857421875,-0.4388574957847595,2.7064998149871826,0.013663610443472862
1667776293468879600,6.955879638671875,-0.4998055398464203,1.375183343887329,0.3372129201889038
1667776293478930700,6.9659306640625,-0.5474256277084351,0.5068004727363586,0.5865151286125183
1667776293488981800,6.975981689453125,-0.48112380504608154,0.44663137197494507,0.6692321300506592
1667776293499033600,6.98603369140625,-0.3170274794101715,0.9401217699050903,0.7293274402618408
1667776293509084700,6.996084716796875,-0.15378423035144806,1.456861138343811,0.875826358795166
1667776293519135700,7.0061357421875,-0.20865057408809662,1.5209801197052002,1.0799505710601807
1667776293529186800,7.016186767578125,-0.5584836602210999,0.9550893306732178,1.2129712104797363
1667776293539237600,7.026237548828125,-0.8689301609992981,0.11476054787635803,1.4528812170028687
1667776293549288700,7.036288818359375,-0.7066856026649475,-0.038411952555179596,2.381413698196411
1667776293559340800,7.0463408203125,-0.12740060687065125,0.5364561080932617,3.178901195526123
1667776293569391600,7.0563916015625,0.2654811441898346,0.6656093001365662,3.0609898567199707
1667776293579442700,7.066442626953125,0.13801592588424683,-0.4504876732826233,2.2784249782562256
1667776293589493800,7.07649365234375,0.006369746755808592,-1.6750839948654175,1.813213586807251
1667776293599544800,7.086544921875,-0.06856010109186172,-2.00766658782959,1.671162486076355
1667776293609596700,7.0965966796875,-0.2550303637981415,-1.853973627090454,1.61884343624115
1667776293619647700,7.106647705078125,-0.5477617979049683,-1.5246939659118652,1.5279887914657593
1667776293629698800,7.11669873046875,-0.7660549879074097,-0.9745559692382812,1.3902206420898438
1667776293639750000,7.12675,-0.8236825466156006,-0.19601291418075562,1.2283495664596558
1667776293649801500,7.136801513671875,-0.7520794868469238,0.6308287978172302,1.075627088546753
1667776293659853600,7.146853515625,-0.5991905331611633,1.0438555479049683,1.0274608135223389
1667776293669904400,7.156904296875,-0.4003746807575226,0.8648093938827515,1.0140174627304077
1667776293679955500,7.16695556640625,-0.21548299491405487,0.2793598175048828,0.8951533436775208
1667776293690006500,7.177006591796875,-0.05253003537654877,-0.3935953974723816,0.7342097163200378
1667776293700057600,7.1870576171875,0.08555768430233002,-0.7559376955032349,0.6512358784675598
1667776293710109400,7.197109375,0.20229335129261017,-0.7369661331176758,0.5915485620498657
1667776293720160500,7.207160400390625,0.2983066439628601,-0.47718411684036255,0.5053632855415344
1667776293730211600,7.217211669921875,0.355814665555954,-0.2397611439228058,0.34957078099250793
1667776293740262400,7.227262451171875,0.377214640378952,-0.34352388978004456,0.14626561105251312
1667776293750313500,7.2373134765625,0.3448029160499573,-0.6733912825584412,-0.0991702601313591
1667776293760365600,7.247365478515625,0.2974991500377655,-1.0650273561477661,-0.3242419362068176
1667776293770416400,7.25741650390625,0.21933934092521667,-1.3993678092956543,-0.5169578194618225
1667776293780467500,7.267467529296875,0.09154874086380005,-1.4569389820098877,-0.735721230506897
1667776293790518500,7.2775185546875,-0.0721733495593071,-1.1803984642028809,-1.0262584686279297
1667776293800569600,7.287569580078125,-0.22438940405845642,-0.6745741963386536,-1.3777843713760376
1667776293810620700,7.29762060546875,-0.3225356936454773,-0.1342555731534958,-1.8078336715698242
1667776293820672500,7.307672607421875,-0.3096199929714203,0.2871021330356598,-2.2795565128326416
1667776293830723600,7.3177236328125,-0.1775389313697815,0.563361406326294,-2.718151330947876
1667776293840774700,7.327774658203125,0.09887924045324326,0.792770266532898,-3.081313133239746
1667776293850825500,7.337825439453125,0.4843742251396179,1.018154263496399,-3.2872161865234375
1667776293860876500,7.34787646484375,0.9017593264579773,1.3214386701583862,-3.146359443664551
1667776293870928600,7.3579287109375,1.0987541675567627,1.1658538579940796,-2.8616418838500977
1667776293880979500,7.3679794921875,1.1060845851898193,0.37863558530807495,-2.632211446762085
1667776293891030500,7.378030517578125,1.1200124025344849,-0.4032141864299774,-2.479426145553589
1667776293901081600,7.38808154296875,1.1959967613220215,-0.8719819784164429,-2.3428761959075928
1667776293911132700,7.398132568359375,1.1838918924331665,-1.0034146308898926,-2.2228927612304688
1667776293921184500,7.4081845703125,1.015987753868103,-0.8654618859291077,-2.172837734222412
1667776293931235600,7.418235595703125,0.8243978023529053,-0.716587483882904,-2.1355197429656982
1667776293941286700,7.42828662109375,0.7524776458740234,-0.7638887763023376,-2.1103718280792236
1667776293951337500,7.43833740234375,0.7347503304481506,-0.9773664474487305,-2.1484527587890625
1667776293961388300,7.44838818359375,0.7913591861724854,-0.9137386083602905,-2.215405225753784
1667776293971440600,7.458440673828125,0.9145839214324951,-0.5478644967079163,-2.2349917888641357
1667776293981491500,7.468491455078125,0.9952976703643799,0.050017207860946655,-2.1325862407684326
1667776293991542500,7.47854248046875,0.9125739932060242,0.6431335210800171,-1.9920761585235596
1667776294001593300,7.48859326171875,0.5577879548072815,0.7870741486549377,-1.9701128005981445
1667776294011644400,7.49864453125,0.14358888566493988,0.8611657023429871,-2.08954119682312
1667776294021695500,7.508695556640625,-0.12423981726169586,1.0818307399749756,-2.2270967960357666
1667776294031747600,7.51874755859375,-0.1986570507287979,1.263142466545105,-2.203599691390991
1667776294041798400,7.52879833984375,-0.1306244283914566,1.1734191179275513,-2.006591320037842
1667776294051849500,7.538849365234375,0.04293723776936531,0.8004993200302124,-1.7229140996932983
1667776294061900300,7.548900390625,0.23875100910663605,0.35463646054267883,-1.3657881021499634
1667776294071951400,7.558951416015625,0.3457312285900116,0.11590327322483063,-0.9688785076141357
1667776294082003500,7.56900341796875,0.3618607521057129,0.13173362612724304,-0.5823843479156494
1667776294092054300,7.57905419921875,0.3264433741569519,0.269732266664505,-0.2405788004398346
1667776294102105300,7.589105224609375,0.28501084446907043,0.42102140188217163,0.022893203422427177
1667776294112156400,7.599156494140625,0.26143839955329895,0.4771704375743866,0.2473401427268982
1667776294122207500,7.60920751953125,0.26823416352272034,0.49481600522994995,0.523819088935852
1667776294132259300,7.61925927734375,0.3317614793777466,0.6001632213592529,0.9475312232971191
1667776294142310400,7.629310302734375,0.40381312370300293,0.9108929634094238,1.5734927654266357
1667776294152361500,7.639361572265625,0.35827547311782837,1.4443638324737549,2.256789207458496
1667776294162412300,7.649412353515625,0.16381846368312836,2.235581159591675,2.820897340774536
1667776294172463400,7.65946337890625,0.03522638604044914,2.893872022628784,3.2901313304901123
1667776294182514400,7.669514404296875,0.08143642544746399,2.7392239570617676,3.5263254642486572
1667776294192566300,7.679566162109375,0.23183313012123108,1.604576826095581,3.4885168075561523
1667776294202617300,7.689617431640625,0.5356990694999695,-0.2371489405632019,2.777545690536499
1667776294212668400,7.69966845703125,1.1354660987854004,-3.2070140838623047,0.25849777460098267
1667776294222719500,7.709719482421875,1.3108010292053223,-3.918905735015869,-0.9102305769920349
1667776294232770600,7.7197705078125,0.5929083824157715,-0.917555034160614,0.5081484913825989
1667776294242822400,7.729822509765625,-0.5255459547042847,-0.15139175951480865,1.258488655090332
1667776294252873500,7.73987353515625,-1.6668113470077515,-1.3304871320724487,1.2080785036087036
1667776294262924500,7.749924560546875,-2.0687754154205322,-1.3427329063415527,0.8024696111679077
1667776294272975400,7.759975341796875,-2.156203031539917,-0.5536594986915588,0.40317946672439575
1667776294283026400,7.7700263671875,-1.7589770555496216,1.22869873046875,0.6505982279777527
1667776294293078500,7.78007861328125,-0.7966625094413757,2.020419120788574,0.9034685492515564
1667776294303129300,7.79012939453125,-0.12676262855529785,1.4398189783096313,1.098829746246338
1667776294313180400,7.800180419921875,0.1526772677898407,0.5237144827842712,1.2969058752059937
1667776294323231500,7.8102314453125,0.19968855381011963,-0.0023116637021303177,1.479630708694458
1667776294333282600,7.820282470703125,0.09930682927370071,-0.10479143261909485,1.6811443567276
1667776294343334400,7.83033447265625,-0.12355808168649673,-0.03203584998846054,1.912474274635315
1667776294353385500,7.840385498046875,-0.4616551697254181,0.06528591364622116,2.1075010299682617
1667776294363436500,7.8504365234375,-0.8124249577522278,0.24038860201835632,2.151848316192627
1667776294373487400,7.8604873046875,-1.0081766843795776,0.27660199999809265,1.961133599281311
1667776294383538400,7.870538330078125,-0.8705790638923645,0.46111583709716797,1.7906314134597778
1667776294393590500,7.880590576171875,-0.5355661511421204,1.0704281330108643,1.9803526401519775
1667776294403641300,7.890641357421875,-0.1560562252998352,1.4692796468734741,2.261445999145508
1667776294413692400,7.9006923828125,0.14609910547733307,1.0502221584320068,2.4890425205230713
1667776294423743500,7.910743408203125,0.2755592465400696,0.004517276305705309,2.5606324672698975
1667776294433794600,7.920794677734375,0.15199337899684906,-1.2646528482437134,2.414605140686035
1667776294443845600,7.930845703125,0.009211350232362747,-1.9444730281829834,2.1440234184265137
1667776294453897500,7.9408974609375,-0.07472988963127136,-1.8265209197998047,1.8137754201889038
1667776294463948500,7.950948486328125,-0.2267448753118515,-1.6986773014068604,1.6016602516174316
1667776294473999600,7.96099951171875,-0.40719136595726013,-1.6613861322402954,1.4942575693130493
1667776294484050400,7.971050537109375,-0.5264684557914734,-1.518822431564331,1.3752440214157104
1667776294494101500,7.9811015625,-0.5785388350486755,-1.2443487644195557,1.219042420387268
1667776294504153600,7.991153564453125,-0.5352314114570618,-0.8366636037826538,1.0260015726089478
1667776294514204400,8.001204345703124,-0.4003750681877136,-0.3585028648376465,0.8555904030799866
1667776294524255500,8.01125537109375,-0.24940460920333862,0.10183826833963394,0.7845358848571777
1667776294534306600,8.021306640625,-0.12699159979820251,0.3266301155090332,0.8593336939811707
1667776294544357600,8.031357666015625,-0.049381181597709656,0.33643072843551636,1.0403633117675781
1667776294554409500,8.041409423828124,0.0676029622554779,0.28522586822509766,1.1602760553359985
1667776294564460500,8.05146044921875,0.26502811908721924,0.12234045565128326,1.1379122734069824
1667776294574511600,8.06151171875,0.3645581603050232,-0.21351133286952972,0.9741343259811401
1667776294584562400,8.0715625,0.28585684299468994,-0.4507972300052643,0.687058687210083
1667776294594613500,8.081613525390624,0.13566893339157104,-0.7705129384994507,0.38273581862449646
1667776294604664600,8.09166455078125,0.048057008534669876,-1.178592562675476,0.16513945162296295
1667776294614716400,8.10171630859375,0.003526560962200165,-1.591560959815979,-0.007686913944780827
1667776294624767500,8.111767578125,-0.05878416448831558,-1.9414713382720947,-0.23066449165344238
1667776294634818600,8.121818603515624,-0.17328278720378876,-2.029461145401001,-0.5558739900588989
1667776294644868900,8.131868896484375,-0.30249086022377014,-1.7349454164505005,-0.9669988751411438
1667776294654920000,8.141919921875,-0.33814260363578796,-1.0627046823501587,-1.4357024431228638
1667776294664971800,8.1519716796875,-0.26298224925994873,-0.22037135064601898,-1.9234730005264282
1667776294675022800,8.16202294921875,-0.0932890921831131,0.47189393639564514,-2.3675520420074463
1667776294685074000,8.172073974609376,0.15391835570335388,0.8563653230667114,-2.687045097351074
1667776294695125000,8.182125,0.5316659808158875,1.269570231437683,-2.7597250938415527
1667776294705175800,8.19217578125,0.86165452003479,1.7392857074737549,-2.740253448486328
1667776294715228000,8.202227783203124,1.0140680074691772,1.9942072629928589,-2.8419322967529297
1667776294725279000,8.212279052734376,1.0409353971481323,1.9050307273864746,-2.969435691833496
1667776294735329800,8.222329833984375,0.963415265083313,1.5158337354660034,-3.0219790935516357
1667776294745380900,8.232380859375,0.8919531106948853,0.9559369683265686,-3.049551486968994
1667776294755432000,8.242431884765624,0.9329716563224792,0.4868374168872833,-3.029913902282715
1667776294765483800,8.25248388671875,1.0190129280090332,0.21680334210395813,-2.941606044769287
1667776294775534800,8.262534912109375,1.00229811668396,0.04381531849503517,-2.8292839527130127
1667776294785586000,8.2725859375,0.8279585242271423,-0.19101586937904358,-2.6832845211029053
1667776294795637000,8.282636962890624,0.6095513701438904,-0.5690720677375793,-2.564951181411743
1667776294805687800,8.292687744140625,0.42259448766708374,-0.95745849609375,-2.51285982131958
1667776294815740000,8.302739990234375,0.2466980367898941,-1.065932273864746,-2.49084210395813
1667776294825791000,8.312791015625,0.041540492326021194,-1.0040645599365234,-2.475736618041992
1667776294835841800,8.322841796875,-0.13597677648067474,-0.9355131387710571,-2.430506706237793
1667776294845892900,8.332892822265626,-0.23570938408374786,-0.9708897471427917,-2.358978271484375
1667776294855944000,8.34294384765625,-0.19684001803398132,-1.013217568397522,-2.312145471572876
1667776294865995000,8.3529951171875,-0.0019134259782731533,-0.7912901043891907,-2.394073486328125
1667776294876046800,8.363046875,0.28458064794540405,-0.26880159974098206,-2.6286468505859375
1667776294886098000,8.373097900390626,0.5702816247940063,0.35452112555503845,-2.888479471206665
1667776294896149000,8.38314892578125,0.7942430973052979,0.9891412258148193,-2.8971853256225586
1667776294906199800,8.39319970703125,0.8929324150085449,1.35948646068573,-2.3980820178985596
1667776294916251000,8.4032509765625,1.0294561386108398,1.289039969444275,-1.683321237564087
1667776294926303000,8.413302978515626,1.174025535583496,0.9692723751068115,-0.9805706143379211
1667776294936354000,8.42335400390625,1.1638597249984741,0.8415255546569824,-0.43145132064819336
1667776294946404900,8.43340478515625,1.0363960266113281,0.9442316293716431,-0.11120828986167908
1667776294956456000,8.4434560546875,0.888857364654541,1.2425906658172607,0.22105513513088226
1667776294966506800,8.4535068359375,0.7290743589401245,1.74355947971344,0.7058284878730774
1667776294976558800,8.463558837890625,0.4686398506164551,2.2798094749450684,1.2553213834762573
1667776294986610000,8.47360986328125,0.19614426791667938,2.81477427482605,1.7489348649978638
1667776294996661000,8.483660888671874,0.07824984937906265,3.2106428146362305,2.1133813858032227
1667776295006711800,8.4937119140625,0.18926431238651276,3.104506254196167,2.297536849975586
1667776295016762600,8.5037626953125,0.4298588037490845,2.1910173892974854,2.3179445266723633
1667776295026813700,8.513813720703125,0.7229546904563904,0.10092497617006302,2.161710262298584
1667776295036866000,8.523865966796874,1.0432517528533936,-3.054013729095459,1.3396583795547485
1667776295046916600,8.53391650390625,1.0172299146652222,-5.202059745788574,-0.1998855471611023
1667776295056967700,8.5439677734375,0.6002423167228699,-3.556239366531372,-1.0282725095748901
1667776295067018800,8.554018798828125,0.2741427719593048,-0.48178350925445557,-0.4994918406009674
1667776295077069800,8.56406982421875,-0.2700321078300476,0.12460281699895859,0.5933765172958374
1667776295087121700,8.57412158203125,-1.5637919902801514,-2.05666184425354,2.1805620193481445
1667776295097172700,8.5841728515625,-2.5690438747406006,-3.24645733833313,3.137220859527588
1667776295107223800,8.594223876953125,-3.1434743404388428,-3.205275774002075,2.9222733974456787
1667776295117275000,8.60427490234375,-2.5536062717437744,-2.0618507862091064,1.8444035053253174
1667776295127325700,8.61432568359375,-0.8838334083557129,-1.360358715057373,0.8837189674377441
1667776295137377800,8.624377685546875,0.3259280323982239,-0.599050760269165,0.7870584726333618
1667776295147428900,8.634428955078125,0.6707533597946167,0.37634044885635376,1.2449899911880493
1667776295157479700,8.644479736328124,0.6196984648704529,1.631672739982605,1.8179442882537842
1667776295167530800,8.65453076171875,0.36535772681236267,2.7084336280822754,2.2736032009124756
1667776295177581800,8.664581787109375,-0.08035262674093246,3.1628260612487793,2.4087767601013184
1667776295187633700,8.674633544921875,-0.7103724479675293,2.871243953704834,2.123539447784424
1667776295197684700,8.684684814453124,-1.3252829313278198,2.3058459758758545,1.8901734352111816
1667776295207735800,8.69473583984375,-1.3773778676986694,2.109133005142212,1.9051451683044434
1667776295217787000,8.704786865234375,-1.0295429229736328,1.967376947402954,1.3802709579467773
1667776295227837700,8.714837646484375,-0.5943299531936646,1.7696163654327393,0.8849958777427673
1667776295237889800,8.724889892578124,-0.2637464106082916,1.6167093515396118,0.8889120221138
1667776295247940900,8.73494091796875,0.010289972648024559,1.1662001609802246,1.2928067445755005
1667776295257991700,8.74499169921875,0.2142452448606491,0.3996804356575012,1.9036349058151245
1667776295268042800,8.755042724609375,0.35310980677604675,-0.554419994354248,2.4545705318450928
1667776295278093800,8.76509375,0.38888832926750183,-1.3732578754425049,2.789849042892456
1667776295288145700,8.775145751953126,0.3156781494617462,-1.9472310543060303,2.585016965866089
1667776295298196700,8.78519677734375,0.18411454558372498,-2.1230454444885254,1.8192812204360962
1667776295308247800,8.795247802734375,0.055557068437337875,-1.6447253227233887,1.0756468772888184
1667776295318299000,8.805298828125,-0.09504975378513336,-0.7322342991828918,0.7700046300888062
1667776295328350000,8.815349853515626,-0.24232618510723114,0.22820258140563965,1.0049842596054077
1667776295338400800,8.82540087890625,-0.3555440902709961,0.8660605549812317,1.4856054782867432
1667776295348452900,8.835452880859375,-0.3691744804382324,0.9042373299598694,1.759926199913025
1667776295358504000,8.84550390625,-0.2794935703277588,0.3018750846385956,1.6326603889465332
1667776295368554800,8.8555546875,-0.1804989129304886,-0.46827030181884766,1.2528324127197266
1667776295378605800,8.865605712890625,-0.1556748002767563,-1.1339250802993774,0.9472783803939819
1667776295388657000,8.875656982421875,-0.1769082248210907,-1.6271840333938599,0.84035325050354
1667776295398708700,8.885708740234374,-0.1886650174856186,-1.8607642650604248,0.7729012966156006
1667776295408759800,8.895759765625,-0.15247473120689392,-2.046649217605591,0.49837255477905273
1667776295418811000,8.905810791015625,-0.14848372340202332,-2.2757415771484375,-0.018287863582372665
1667776295428862000,8.915862060546875,-0.21039214730262756,-2.605132818222046,-0.5833349823951721
1667776295438912800,8.925912841796874,-0.2868320643901825,-2.74290132522583,-1.08064866065979
1667776295448964900,8.93596484375,-0.3580072522163391,-2.3406729698181152,-1.580812692642212
1667776295459016000,8.946015869140625,-0.33015429973602295,-1.4902983903884888,-2.113823175430298
1667776295469066800,8.956066650390625,-0.040425363928079605,-0.5158413052558899,-2.542849540710449
1667776295479117800,8.966117919921874,0.5805063247680664,0.5299948453903198,-2.879805564880371
1667776295489169000,8.9761689453125,1.3689067363739014,1.5656719207763672,-2.999286413192749
1667776295499220700,8.986220703125,1.9436081647872925,2.5296390056610107,-2.8864729404449463
1667776295509271800,8.996271728515625,1.786385416984558,2.733114242553711,-2.8242268562316895
1667776295519323000,9.006322998046874,1.2836601734161377,1.8211479187011719,-2.804199695587158
1667776295529374000,9.0163740234375,0.798012375831604,0.7709083557128906,-2.826969861984253
1667776295539425000,9.026425048828125,0.2854931652545929,0.2742576003074646,-2.858891725540161
1667776295549476900,9.036476806640625,0.00921628624200821,0.194554403424263,-2.8269333839416504
1667776295559528000,9.04652783203125,0.1945190280675888,0.20579373836517334,-2.796358108520508
1667776295569579000,9.0565791015625,0.5436857342720032,0.060125257819890976,-2.7761967182159424
1667776295579629800,9.0666298828125,0.7275567650794983,-0.3990439176559448,-2.733067512512207
1667776295589681000,9.076680908203125,0.6752679944038391,-0.9990901947021484,-2.723409414291382
1667776295599732000,9.08673193359375,0.5635156631469727,-1.6249732971191406,-2.7267966270446777
1667776295609783800,9.09678369140625,0.5079578161239624,-2.107586145401001,-2.612597703933716
1667776295619835000,9.1068349609375,0.5180943608283997,-2.2333924770355225,-2.397892713546753
1667776295629886000,9.116885986328125,0.5781482458114624,-2.0620529651641846,-2.1552798748016357
1667776295639937000,9.12693701171875,0.6659249663352966,-1.6073851585388184,-1.9504324197769165
1667776295649988000,9.136988037109376,0.8064210414886475,-0.8131905794143677,-1.843111276626587
1667776295660040200,9.147040283203125,1.0042028427124023,0.1614968329668045,-1.9249603748321533
1667776295670091300,9.15709130859375,1.2016217708587646,1.1470096111297607,-2.187819242477417
1667776295680142000,9.16714208984375,1.2291977405548096,1.8007229566574097,-2.557258367538452
1667776295690193200,9.177193115234376,1.1375397443771362,1.9198557138442993,-2.7760651111602783
1667776295700244200,9.187244140625,0.9917641878128052,1.6634846925735474,-2.50826358795166
1667776295710296000,9.197296142578125,0.8102877736091614,1.2240678071975708,-1.9244884252548218
1667776295720347100,9.20734716796875,0.5538709163665771,0.8660148978233337,-1.3322032690048218
1667776295730398200,9.217398193359376,0.250156432390213,0.8146452307701111,-0.882289469242096
1667776295740449300,9.22744921875,0.0523618683218956,1.0636109113693237,-0.5706346035003662
1667776295750500000,9.2375,-0.052673161029815674,1.3359034061431885,-0.30694180727005005
1667776295760552200,9.24755224609375,-0.16658295691013336,1.5993568897247314,-0.012390857562422752
1667776295770603300,9.257603271484374,-0.28072503209114075,1.8289310932159424,0.3613429665565491
1667776295780654000,9.267654052734375,-0.3474481403827667,1.9932396411895752,0.803737461566925
1667776295790705200,9.277705078125,-0.3604985177516937,2.0762343406677246,1.3201062679290771
1667776295800756200,9.287756103515624,-0.37989217042922974,1.8880102634429932,1.9423829317092896
1667776295810807300,9.297807373046876,-0.4158109128475189,1.4238954782485962,2.6123759746551514
1667776295820859100,9.307859130859375,-0.45993122458457947,0.7910123467445374,3.2236149311065674
1667776295830910200,9.31791015625,-0.46522045135498047,-0.0527518130838871,3.62361478805542
1667776295840961300,9.327961181640624,-0.32449981570243835,-1.2341903448104858,3.6039206981658936
1667776295851012400,9.338012451171876,0.03337942063808441,-2.8183093070983887,2.606926918029785
1667776295861063200,9.348063232421875,0.21693406999111176,-3.545484781265259,1.2544076442718506
1667776295871115300,9.358115234375,0.10820720344781876,-2.215554714202881,0.649684488773346
1667776295881166300,9.368166259765625,0.20115365087985992,0.06712900847196579,-0.029300421476364136
1667776295891217200,9.378217041015626,0.3397510349750519,1.7191768884658813,-0.8888508081436157
1667776295901268200,9.388268310546875,0.469605952501297,2.415210723876953,-1.112796664237976
1667776295911319300,9.3983193359375,0.5343754291534424,1.977114200592041,-0.7463143467903137
1667776295921371100,9.40837109375,0.5892202854156494,0.9396241307258606,0.22502334415912628
1667776295931422200,9.418422119140626,0.6155075430870056,0.019890815019607544,1.5462273359298706
1667776295941473300,9.428473388671875,0.5305306315422058,-0.5860446095466614,2.7803850173950195
1667776295951524400,9.4385244140625,0.1142953634262085,-1.2643219232559204,3.571342706680298
1667776295961575200,9.4485751953125,-0.645698606967926,-1.7012920379638672,4.1021504402160645
1667776295971627300,9.458627197265624,-1.4189021587371826,-1.4767348766326904,4.300885200500488
1667776295981678300,9.46867822265625,-1.8973352909088135,-0.5190147161483765,2.007255792617798
1667776295991729200,9.478729248046875,-1.7270795106887817,-0.27331456542015076,0.6087589859962463
1667776296001780200,9.4887802734375,-1.0124130249023438,0.2764257788658142,0.35694989562034607
1667776296011831300,9.498831298828126,-0.10704866796731949,0.8277864456176758,0.46555373072624207
1667776296021883100,9.508883056640625,0.3948807716369629,1.0897897481918335,0.8769524693489075
1667776296031934200,9.518934326171875,0.5460188984870911,1.020702838897705,1.2364975214004517
1667776296041985300,9.5289853515625,0.49746355414390564,0.8887527585029602,1.4278302192687988
1667776296052036400,9.539036376953124,0.30331456661224365,0.8813653588294983,1.4736350774765015
1667776296062087200,9.549087158203125,0.02677430771291256,0.8557447195053101,1.4273104667663574
1667776296072139300,9.55913916015625,-0.29175880551338196,0.5999866127967834,1.366577386856079
1667776296082190300,9.5691904296875,-0.5991984009742737,0.2745469808578491,1.3708232641220093
1667776296092241400,9.579241455078124,-0.7888088822364807,-0.16608071327209473,1.4420645236968994
1667776296102292000,9.5892919921875,-0.7925346493721008,-0.6925333142280579,1.546863317489624
1667776296112343000,9.599343017578125,-0.6277141571044922,-0.8816100358963013,1.8263659477233887
1667776296122394000,9.60939404296875,-0.21863767504692078,-0.10605411976575851,2.5929691791534424
1667776296132446200,9.6194462890625,0.24428100883960724,0.8165883421897888,3.0868899822235107
1667776296142497000,9.6294970703125,0.4555932581424713,0.8657162189483643,2.842930555343628
1667776296152548000,9.639548095703125,0.4172772169113159,-0.15549913048744202,2.211775064468384
1667776296162599200,9.64959912109375,0.26200348138809204,-1.6096575260162354,1.829834222793579
1667776296172650000,9.65964990234375,0.1285986751317978,-2.430354356765747,1.7297313213348389
1667776296182702000,9.6697021484375,0.012513079680502415,-2.555046796798706,1.7353413105010986
1667776296192753200,9.679753173828125,-0.15687887370586395,-2.3098528385162354,1.7013171911239624
1667776296202804000,9.689803955078125,-0.393411785364151,-1.7521706819534302,1.5638056993484497
1667776296212855000,9.69985498046875,-0.5908278822898865,-0.9721955060958862,1.3849483728408813
1667776296222906000,9.709906005859375,-0.6696960926055908,-0.3445425033569336,1.253161072731018
1667776296232958000,9.7199580078125,-0.6645742058753967,-0.18689420819282532,1.1687912940979004
1667776296243009000,9.730009033203125,-0.566836416721344,-0.3952375650405884,1.1290053129196167
1667776296253060000,9.74006005859375,-0.38874369859695435,-0.6063307523727417,1.1430296897888184
1667776296263111200,9.750111083984375,-0.22301837801933289,-0.6376745700836182,1.1628068685531616
1667776296273162200,9.760162353515625,-0.12191630154848099,-0.5198333859443665,1.1108903884887695
1667776296283214000,9.770214111328125,-0.08387331664562225,-0.411793977022171,0.9884412884712219
1667776296293265200,9.78026513671875,-0.04925069585442543,-0.4571167230606079,0.90333491563797
1667776296303316200,9.790316162109375,-0.02837124466896057,-0.6511452794075012,0.8178833723068237
1667776296313367000,9.800366943359375,-0.05984650179743767,-0.8756599426269531,0.6673614382743835
1667776296323418000,9.810418212890625,-0.14811964333057404,-0.9113681316375732,0.5311759114265442
1667776296333469200,9.82046923828125,-0.3008703589439392,-0.7483333349227905,0.46043047308921814
1667776296343521000,9.83052099609375,-0.47857165336608887,-0.4738706350326538,0.4214511215686798
1667776296353572000,9.840572021484375,-0.626006007194519,-0.23528587818145752,0.351662814617157
1667776296363623200,9.850623046875,-0.7259663939476013,-0.2584889233112335,0.19185824692249298
1667776296373674200,9.86067431640625,-0.8272305727005005,-0.5799249410629272,-0.06722119450569153
1667776296383725000,9.87072509765625,-0.8503843545913696,-1.017138957977295,-0.3627772331237793
1667776296393777200,9.880777099609375,-0.8005251884460449,-1.2169290781021118,-0.6608449816703796
1667776296403828200,9.890828125,-0.7041488885879517,-1.0239588022232056,-0.9588111639022827
1667776296413879000,9.900879150390624,-0.5864019393920898,-0.6193641424179077,-1.2955422401428223
1667776296423930000,9.91093017578125,-0.3567972183227539,-0.27733489871025085,-1.6602247953414917
1667776296433981200,9.920981201171875,0.03188413754105568,-0.03835519775748253,-1.93122136592865
1667776296444033000,9.931032958984375,0.47306740283966064,0.17937153577804565,-2.1251797676086426
1667776296454084000,9.941083984375,0.9470759034156799,0.45638421177864075,-2.238542318344116
1667776296464135200,9.95113525390625,1.353509545326233,0.8007301688194275,-2.200918436050415
1667776296474186200,9.961186279296875,1.6276025772094727,1.110856533050537,-2.114086151123047
1667776296484237300,9.9712373046875,1.8468308448791504,1.3317023515701294,-2.1419482231140137
1667776296494289200,9.9812890625,2.0070743560791016,1.459142804145813,-2.3210501670837402
1667776296504340200,9.99134033203125,2.032377243041992,1.4354462623596191,-2.564526319503784
1667776296514391300,10.001391357421875,1.907875418663025,1.155063509941101,-2.719503879547119
1667776296524442000,10.011442138671875,1.6044186353683472,0.752834677696228,-2.768104314804077
1667776296534493200,10.0214931640625,1.1364707946777344,0.4836420714855194,-2.792743682861328
1667776296544545300,10.031545166015626,0.6156255006790161,0.45033949613571167,-2.833009958267212
1667776296554596000,10.04159619140625,0.2115156352519989,0.5729324817657471,-2.961899518966675
1667776296564647200,10.051647216796875,-0.10342845320701599,0.6419978737831116,-3.175694465637207
1667776296574698200,10.0616982421875,-0.3320242762565613,0.5063753128051758,-3.359504461288452
1667776296584749300,10.071749267578125,-0.42558327317237854,0.1151028722524643,-3.5073652267456055
1667776296594801200,10.08180126953125,-0.41654446721076965,-0.5431118011474609,-3.5780105590820312
1667776296604852200,10.091852294921875,-0.277057409286499,-1.2097824811935425,-3.430722713470459
1667776296614903300,10.1019033203125,-0.032108716666698456,-1.3936748504638672,-3.0638091564178467
1667776296624954000,10.1119541015625,0.2685403525829315,-1.050175428390503,-2.644334077835083
1667776296635005200,10.122005126953125,0.5675395131111145,-0.48665478825569153,-2.392989158630371
1667776296645057300,10.132057373046875,0.834237813949585,-0.3983398377895355,-2.396627426147461
1667776296655108000,10.142108154296874,0.91999351978302,-0.4517397880554199,-2.540731191635132
1667776296665159200,10.1521591796875,0.8399583697319031,-0.46128642559051514,-2.6722118854522705
1667776296675210200,10.162210205078125,0.696647047996521,-0.24922367930412292,-2.686941385269165
1667776296685261300,10.17226123046875,0.5901781320571899,0.010715221986174583,-2.5319418907165527
1667776296695312400,10.1823125,0.5805231332778931,0.06059564650058746,-2.2113945484161377
1667776296705364200,10.1923642578125,0.581802248954773,0.009783866815268993,-1.7867505550384521
1667776296715415300,10.202415283203125,0.5695521235466003,0.08697143942117691,-1.380639672279358
1667776296725466400,10.21246630859375,0.5429412722587585,0.39674314856529236,-1.0713616609573364
1667776296735517200,10.22251708984375,0.4962419867515564,0.9136453866958618,-0.8511796593666077
1667776296745568300,10.232568359375,0.42315447330474854,1.4432400465011597,-0.6108554601669312
1667776296755620400,10.242620361328125,0.4267347753047943,1.846907377243042,-0.20012716948986053
1667776296765671200,10.252671142578125,0.5168846845626831,2.1253557205200195,0.44370904564857483
1667776296775722200,10.26272216796875,0.5234562754631042,2.256511926651001,1.339695692062378
1667776296785773300,10.272773193359376,0.32552003860473633,2.4991238117218018,2.2570414543151855
1667776296795824400,10.282824462890625,0.21178369224071503,3.0349011421203613,2.9762368202209473
1667776296805876200,10.292876220703125,0.14891764521598816,3.2583134174346924,3.4985413551330566
1667776296815927300,10.30292724609375,0.094424307346344,2.70548677444458,3.8202931880950928
1667776296825978400,10.312978271484376,0.012030096724629402,1.5630830526351929,3.796078681945801
1667776296836029000,10.32302880859375,0.25973159074783325,-0.4102856516838074,2.1544559001922607
1667776296846080000,10.333080078125,1.0898092985153198,-2.855299234390259,-1.2819713354110718
1667776296856132400,10.34313232421875,0.5325596332550049,-2.06111741065979,-2.0015792846679688
1667776296866183200,10.35318310546875,-0.19914041459560394,0.45401531457901,-0.3491296172142029
1667776296876234000,10.36323388671875,0.03841409087181091,2.1054766178131104,0.8146307468414307
1667776296886285000,10.37328515625,0.3773631453514099,2.9673261642456055,0.3068479597568512
1667776296896336100,10.383336181640624,0.2752014994621277,3.442389488220215,-0.7095313668251038
1667776296906388200,10.39338818359375,0.03570021316409111,1.9393508434295654,-1.7228702306747437
1667776296916439000,10.40343896484375,-0.08900309354066849,-1.3238897323608398,-1.847464680671692
1667776296926490000,10.413489990234375,-0.27030709385871887,-2.882204532623291,-0.8105647563934326
1667776296936541200,10.423541259765624,-0.08586738258600235,-1.2048410177230835,0.6408917307853699
1667776296946592000,10.433592041015626,0.3533472716808319,1.6841832399368286,1.5607129335403442
1667776296956644000,10.44364404296875,0.29049500823020935,-0.2763538062572479,1.295408844947815
1667776296966695200,10.453695068359375,0.08634133636951447,-3.016568899154663,1.375888466835022
1667776296976746000,10.46374609375,0.3365183472633362,-3.578638792037964,1.4807220697402954
1667776296986797000,10.473797119140626,0.6410744786262512,-2.7488486766815186,1.8635578155517578
1667776296996848000,10.48384814453125,0.9848317503929138,-1.3557546138763428,2.443664073944092
1667776297006899200,10.493899169921875,1.258315086364746,0.18087393045425415,3.208456516265869
1667776297016951000,10.503950927734374,1.2521569728851318,1.3279024362564087,3.886456251144409
1667776297027002000,10.514002197265626,0.9156513810157776,1.6349310874938965,4.009459495544434
1667776297037053200,10.52405322265625,0.15868179500102997,1.2075717449188232,3.429630756378174
1667776297047104000,10.53410400390625,-0.8674967288970947,0.40585190057754517,2.0740182399749756
1667776297057155000,10.544155029296874,-1.7996189594268799,0.034032344818115234,0.22884954512119293
1667776297067207200,10.554207275390626,-2.26558780670166,0.4138667583465576,-0.829992413520813
1667776297077258000,10.564258056640625,-2.020850658416748,1.1658443212509155,-0.7674166560173035
1667776297087309000,10.57430908203125,-1.2932944297790527,1.7364484071731567,0.17233963310718536
1667776297097360100,10.584360107421874,-0.5668427348136902,1.5132324695587158,1.3285080194473267
1667776297107411200,10.5944111328125,-0.04093020781874657,0.6033122539520264,2.221801996231079
1667776297117463000,10.604463134765625,0.3213998079299927,-0.6037731170654297,2.7059178352355957
1667776297127514000,10.61451416015625,0.5309149622917175,-1.7190450429916382,2.865744113922119
1667776297137565200,10.624565185546874,0.5832293033599854,-2.2951173782348633,2.8550820350646973
1667776297147616300,10.6346162109375,0.4651194214820862,-2.5725278854370117,2.725379467010498
1667776297157667000,10.6446669921875,0.19072474539279938,-2.739581823348999,2.393213987350464
1667776297167719200,10.65471923828125,-0.08848106861114502,-2.736497402191162,1.9155917167663574
1667776297177770200,10.664770263671874,-0.2743772864341736,-2.5417280197143555,1.5109226703643799
1667776297187821000,10.674821044921876,-0.3894372880458832,-2.1125528812408447,1.1865485906600952
1667776297197872000,10.6848720703125,-0.43393781781196594,-1.4720584154129028,0.9243711829185486
1667776297207923200,10.694923095703125,-0.4661490023136139,-0.8103585839271545,0.7392929196357727
1667776297217975000,10.70497509765625,-0.46227502822875977,-0.3092842102050781,0.6710233688354492
1667776297228026000,10.715026123046876,-0.41070371866226196,-0.05273392051458359,0.8236722946166992
1667776297238077200,10.7250771484375,-0.3323754370212555,-0.07892820239067078,1.1439943313598633
1667776297248128300,10.735128173828125,-0.25645512342453003,-0.23350659012794495,1.3634848594665527
1667776297258179000,10.745178955078124,-0.16406860947608948,-0.40002188086509705,1.3055815696716309
1667776297268231200,10.755231201171876,-0.07465911656618118,-0.6753777861595154,1.0659130811691284
1667776297278282200,10.7652822265625,-0.0631532371044159,-0.9631766676902771,0.8298228979110718
1667776297288333000,10.7753330078125,-0.10679978132247925,-1.1492050886154175,0.6047349572181702
1667776297298384100,10.785384033203124,-0.19526001811027527,-1.1370398998260498,0.5345425009727478
1667776297308435200,10.795435302734376,-0.2681187689304352,-0.950249969959259,0.7482438683509827
1667776297318486300,10.805486328125,-0.3019335865974426,-0.6870604753494263,1.147187352180481
1667776297328538000,10.8155380859375,-0.32151874899864197,-0.40067237615585327,1.5423141717910767
1667776297338589200,10.825589111328124,-0.3635818660259247,-0.3275633752346039,1.75480318069458
1667776297348640300,10.83564013671875,-0.3994826078414917,-0.5309196710586548,1.6935733556747437
1667776297358691300,10.84569140625,-0.471726655960083,-0.8000256419181824,1.3854241371154785
1667776297368742100,10.8557421875,-0.6484889388084412,-1.0363763570785522,1.0176419019699097
1667776297378794200,10.865794189453124,-0.7464454174041748,-1.2874056100845337,0.7003424763679504
1667776297388845300,10.87584521484375,-0.7201941609382629,-1.5024962425231934,0.4529328942298889
1667776297398896000,10.885896240234375,-0.5574329495429993,-1.567871332168579,0.28394562005996704
1667776297408947200,10.895947265625,-0.3279153108596802,-1.46766197681427,0.20503643155097961
1667776297418998300,10.905998291015624,-0.14620758593082428,-1.2264587879180908,0.13055530190467834
1667776297429050000,10.916050048828126,-0.01228734664618969,-0.9672301411628723,-0.06670477241277695
1667776297439101200,10.92610107421875,0.15047012269496918,-0.6848089098930359,-0.3524751365184784
1667776297449152300,10.93615234375,0.3972085416316986,-0.4054662883281708,-0.5823352336883545
1667776297459203300,10.946203369140624,0.6975182890892029,-0.287240207195282,-0.7449896335601807
1667776297469254100,10.956254150390626,0.9116132855415344,-0.3099716305732727,-0.9697588086128235
1667776297479306200,10.96630615234375,0.9985881447792053,-0.14447569847106934,-1.3508602380752563
1667776297489357300,10.976357421875,1.0470867156982422,0.0990181714296341,-1.8813369274139404
1667776297499408100,10.986408203125,1.0622609853744507,0.27535510063171387,-2.524282693862915
1667776297509459200,10.996459228515626,1.1175554990768433,0.2702713906764984,-3.0547263622283936
1667776297519510300,11.00651025390625,1.1967625617980957,0.0016025872901082039,-3.3618264198303223
1667776297529562000,11.01656201171875,1.2753777503967285,-0.3970140516757965,-3.4999120235443115
1667776297539613200,11.02661328125,1.3229701519012451,-0.6320310831069946,-3.4958655834198
1667776297549664300,11.036664306640626,1.2944234609603882,-0.601148784160614,-3.3761181831359863
1667776297559715300,11.04671533203125,1.1973122358322144,-0.36913639307022095,-3.163910150527954
1667776297569766400,11.056766357421875,1.0220998525619507,0.047652848064899445,-2.864778995513916
1667776297579818200,11.066818359375,0.8262361884117126,0.40813782811164856,-2.5669403076171875
1667776297589869300,11.076869384765626,0.6596519947052002,0.5577342510223389,-2.3883559703826904
1667776297599920400,11.08692041015625,0.5420578718185425,0.47768378257751465,-2.3726305961608887
1667776297609971200,11.09697119140625,0.48301824927330017,0.21556666493415833,-2.433835506439209
1667776297620022000,11.10702197265625,0.520548939704895,-0.011413907632231712,-2.5184075832366943
1667776297630074400,11.117074462890624,0.6438535451889038,-0.06498712301254272,-2.5882647037506104
1667776297640125200,11.127125244140625,0.8626760244369507,0.2252499759197235,-2.6237356662750244
1667776297650176300,11.13717626953125,1.230094313621521,0.7202661037445068,-2.857172966003418
1667776297660227000,11.14722705078125,1.688185214996338,0.9853159189224243,-3.262084484100342
1667776297670278100,11.157278076171876,1.9850828647613525,0.9677335023880005,-3.3392677307128906
1667776297680330200,11.167330322265625,1.932336688041687,0.5288762450218201,-2.94600510597229
1667776297690381300,11.17738134765625,1.783727765083313,0.020006638020277023,-2.4597434997558594
1667776297700432100,11.18743212890625,1.6189393997192383,-0.011191224679350853,-2.1401233673095703
1667776297710483200,11.197483154296876,1.5508111715316772,0.42963889241218567,-2.025252342224121
1667776297720534000,11.207533935546875,1.5023846626281738,1.0193930864334106,-2.0585432052612305
1667776297730585000,11.217585205078125,1.3917299509048462,1.566460132598877,-2.1043949127197266
1667776297740637200,11.22763720703125,1.204370379447937,1.9154384136199951,-2.017017126083374
1667776297750688000,11.23768798828125,1.0670371055603027,2.099246025085449,-1.7071226835250854
1667776297760739000,11.247739013671875,0.9730442762374878,2.162902593612671,-1.3047226667404175
1667776297770790100,11.2577900390625,0.8220065832138062,2.057058334350586,-0.9344632029533386
1667776297780841200,11.26784130859375,0.6637476682662964,1.865152359008789,-0.5574502348899841
1667776297790893000,11.27789306640625,0.5919126272201538,1.8200613260269165,-0.1568029820919037
1667776297800944000,11.287944091796875,0.546112596988678,1.8213053941726685,0.29938799142837524
1667776297810995200,11.2979951171875,0.5492900609970093,1.814841628074646,0.825481653213501
1667776297821046000,11.3080458984375,0.5874067544937134,1.8787410259246826,1.366567611694336
1667776297831097000,11.31809716796875,0.5329517722129822,1.8922547101974487,1.9070457220077515
1667776297841149200,11.328149169921875,0.25161322951316833,1.8541994094848633,2.480897903442383
1667776297851200000,11.338199951171875,-0.167448490858078,1.9498614072799683,2.942708969116211
1667776297861251000,11.3482509765625,-0.48925846815109253,1.9386636018753052,3.1190500259399414
1667776297871302100,11.35830224609375,-0.6266216039657593,1.5302462577819824,3.1391258239746094
1667776297881353200,11.368353271484375,-0.6305467486381531,0.828625500202179,3.037961959838867
1667776297891405000,11.378405029296875,-0.49188560247421265,-0.10333812236785889,2.707265853881836
1667776297901456100,11.3884560546875,-0.004225357435643673,-1.1829743385314941,1.2369210720062256
1667776297911507200,11.398507080078126,0.5462337732315063,-3.1809349060058594,-1.8872110843658447
1667776297921558000,11.40855810546875,0.3784014582633972,-3.5042638778686523,-2.7592074871063232
1667776297931609000,11.418609130859375,-0.009241869673132896,-1.5242340564727783,-1.6901037693023682
1667776297941661200,11.4286611328125,-0.3701401650905609,0.14104816317558289,0.13753627240657806
1667776297951712300,11.438712158203124,-0.7986299991607666,-0.5802417993545532,0.8464036583900452
1667776297961763000,11.44876318359375,-1.0377496480941772,-1.0308758020401,0.025726275518536568
1667776297971814100,11.458814208984375,-0.9716437458992004,-0.6826488971710205,-1.0123883485794067
1667776297981865200,11.468865234375,-0.18933704495429993,-0.3851545751094818,-0.8370066285133362
1667776297991917000,11.4789169921875,0.6701419949531555,-0.6807302832603455,0.001939763780683279
1667776298001968000,11.488968017578125,1.0166505575180054,-1.3982861042022705,0.9630334377288818
1667776298012019200,11.499019287109375,1.1548718214035034,-1.7117242813110352,2.014333486557007
1667776298022070300,11.5090703125,1.1930524110794067,-1.5269758701324463,2.910426139831543
1667776298032121000,11.51912109375,0.9970037937164307,-0.9730864763259888,3.621595621109009
1667776298042172200,11.529172119140625,0.44581079483032227,-0.586174726486206,4.3736796379089355
1667776298052224300,11.539224365234375,-0.4947362244129181,-0.8352622985839844,4.81309700012207
1667776298062275000,11.549275146484375,-1.6982821226119995,-1.1333184242248535,4.110053062438965
1667776298072326100,11.559326171875,-3.119741201400757,-0.413584440946579,1.6565132141113281
1667776298082377200,11.569377197265625,-3.234868288040161,0.32529711723327637,-0.3755611777305603
1667776298092428300,11.57942822265625,-2.4620401859283447,0.9628056287765503,-1.1880968809127808
1667776298102480100,11.589480224609375,-1.6711686849594116,1.6892895698547363,-1.03128981590271
1667776298112531200,11.59953125,-1.0021109580993652,2.5469510555267334,0.08325266093015671
1667776298122582300,11.609582275390625,-0.4875654876232147,2.5597190856933594,1.4902710914611816
1667776298132633000,11.619633056640625,-0.16086061298847198,1.4674142599105835,2.620927333831787
1667776298142684200,11.62968408203125,0.037131983786821365,-0.20503850281238556,3.269378900527954
1667776298152736300,11.639736328125,0.18473581969738007,-1.7691859006881714,3.4768362045288086
1667776298162787000,11.649787109375,0.21747523546218872,-2.4388692378997803,3.3120436668395996
1667776298172838100,11.659838134765625,0.061043284833431244,-2.1760737895965576,2.8130948543548584
1667776298182889200,11.66988916015625,-0.22834539413452148,-1.5474522113800049,2.1730411052703857
1667776298192940300,11.679940185546876,-0.5017045140266418,-1.1408802270889282,1.675857663154602
1667776298202992000,11.6899921875,-0.6539841890335083,-0.9133898019790649,1.3713710308074951
1667776298213043200,11.700043212890625,-0.6991111636161804,-0.7433152794837952,1.2655000686645508
1667776298223094300,11.71009423828125,-0.6188049912452698,-0.537592887878418,1.3548827171325684
1667776298233145300,11.720145263671874,-0.33959895372390747,-0.4237172305583954,1.587502121925354
1667776298243196200,11.730196044921875,-0.155111163854599,-0.3822927474975586,1.8218692541122437
1667776298253248300,11.740248291015625,-0.1810104101896286,-0.4525842070579529,1.884680151939392
1667776298263299300,11.75029931640625,-0.26950496435165405,-0.7075309753417969,1.7582615613937378
1667776298273350100,11.76035009765625,-0.30715620517730713,-0.7681418657302856,1.5644904375076294
1667776298283401200,11.770401123046875,-0.34550148248672485,-0.4434511959552765,1.3878029584884644
1667776298293452300,11.780452392578125,-0.45452171564102173,-0.08399422466754913,1.2789632081985474
1667776298303504100,11.790504150390625,-0.5373278260231018,-0.11663101613521576,1.2227686643600464
1667776298313555200,11.80055517578125,-0.5201717615127563,-0.7009261846542358,1.2434345483779907
1667776298323606300,11.810606201171876,-0.4497953951358795,-1.5451186895370483,1.3478331565856934
1667776298333657300,11.8206572265625,-0.4093204140663147,-2.0893540382385254,1.4802366495132446
1667776298343708200,11.830708251953125,-0.43731772899627686,-2.319706678390503,1.566141963005066
1667776298353760300,11.84076025390625,-0.5511478781700134,-2.3677797317504883,1.4355567693710327
1667776298363811300,11.850811279296876,-0.6606016159057617,-2.284066677093506,1.0139384269714355
1667776298373862100,11.860862060546875,-0.6909241080284119,-2.1565921306610107,0.44175824522972107
1667776298383913200,11.870913330078125,-0.6598629355430603,-2.0613348484039307,-0.12258043885231018
1667776298393964000,11.880964111328124,-0.6127817630767822,-1.9547741413116455,-0.6826298832893372
1667776298404015000,11.89101513671875,-0.46209338307380676,-1.7797834873199463,-1.3188456296920776
1667776298414067200,11.901067138671875,-0.15665489435195923,-1.403165578842163,-1.940088152885437
1667776298424118300,11.9111181640625,0.24552105367183685,-0.7852777242660522,-2.3590779304504395
1667776298434169000,11.921169189453124,0.6204981207847595,0.10780135542154312,-2.5541465282440186
1667776298444220200,11.93122021484375,0.8875073194503784,1.012076735496521,-2.657963752746582
1667776298454271000,11.94127099609375,1.1021006107330322,1.4597771167755127,-2.763166904449463
1667776298464323300,11.9513232421875,1.3064682483673096,1.5931990146636963,-2.8321080207824707
1667776298474374100,11.9613740234375,1.4566673040390015,1.6959009170532227,-2.785475015640259
1667776298484425000,11.971425048828126,1.5758416652679443,1.8665692806243896,-2.709312677383423
1667776298494476000,11.98147607421875,1.6185531616210938,1.8257209062576294,-2.6476714611053467
1667776298504527000,11.991527099609375,1.4423167705535889,1.5681096315383911,-2.5762927532196045
1667776298514579000,12.001578857421874,1.012908935546875,1.3128019571304321,-2.4460089206695557
1667776298524630000,12.011630126953126,0.5087202787399292,1.1308269500732422,-2.3922119140625
1667776298534681000,12.02168115234375,0.25874459743499756,0.9223520755767822,-2.4450058937072754
1667776298544732200,12.031732177734375,0.2983793616294861,0.6669039726257324,-2.5274136066436768
1667776298554783200,12.041783203125,0.5066090226173401,0.34639039635658264,-2.6112730503082275
1667776298564835000,12.0518349609375,0.7587639689445496,-0.04799573868513107,-2.6824703216552734
1667776298574886100,12.06188623046875,0.8933425545692444,-0.532516360282898,-2.6772844791412354
1667776298584937200,12.071937255859375,0.8830177187919617,-0.8964400887489319,-2.489201545715332
1667776298594988000,12.081988037109374,0.8224736452102661,-0.8682534694671631,-2.1930553913116455
1667776298605039000,12.0920390625,0.8241921663284302,-0.37803906202316284,-1.9224621057510376
1667776298615091200,12.10209130859375,0.9217642545700073,0.33142706751823425,-1.8554679155349731
1667776298625142000,12.11214208984375,1.0381953716278076,0.9181932806968689,-2.1661722660064697
1667776298635193000,12.122193115234374,1.0716350078582764,1.3655002117156982,-2.732940435409546
1667776298645244200,12.132244140625,1.0341988801956177,1.825825572013855,-3.3099467754364014
1667776298655295500,12.14229541015625,0.9697719812393188,2.34553599357605,-3.6125612258911133
1667776298665347600,12.15234765625,0.9224874973297119,2.806161403656006,-3.425224542617798
1667776298675398400,12.1623984375,0.9018484950065613,2.752014636993408,-2.7549054622650146
1667776298685449500,12.172449462890626,0.7961325645446777,2.0408616065979004,-2.0269408226013184
1667776298695500300,12.182500244140625,0.676777720451355,1.4188323020935059,-1.5374665260314941
1667776298705551400,12.19255126953125,0.5231397151947021,1.1470152139663696,-1.2656888961791992
1667776298715603500,12.202603515625,0.3071059584617615,1.0853302478790283,-1.0848554372787476
1667776298725654300,12.212654296875,0.13993559777736664,1.2301794290542603,-0.8769897818565369
1667776298735705300,12.222705322265625,0.0527101494371891,1.4349043369293213,-0.5486161708831787
1667776298745756400,12.23275634765625,0.10239109396934509,1.6368639469146729,-0.03807734698057175
1667776298755807500,12.242807373046874,0.2017187476158142,1.7755975723266602,0.6027796268463135
1667776298765859300,12.252859375,0.21602535247802734,1.8302377462387085,1.2974356412887573
1667776298775910400,12.262910400390625,0.16581597924232483,1.911739468574524,1.9373064041137695
1667776298785961500,12.27296142578125,0.10687416791915894,2.069253921508789,2.467254877090454
1667776298796012300,12.28301220703125,0.01893286034464836,1.9487534761428833,2.8793082237243652
1667776298806063400,12.2930634765625,0.026719285175204277,1.1889700889587402,3.0841729640960693
1667776298816114400,12.303114501953125,0.2764692008495331,-0.2054130584001541,2.533369779586792
1667776298826166300,12.313166259765625,0.8438017964363098,-2.311152696609497,0.06137872487306595
1667776298836217300,12.32321728515625,1.0678852796554565,-2.6713201999664307,-1.4784013032913208
1667776298846268400,12.333268310546876,0.6143959760665894,-0.8434387445449829,-1.383806824684143
1667776298856319500,12.343319580078125,0.272058367729187,1.846936821937561,-0.5984489321708679
1667776298866370600,12.35337060546875,-0.06151965260505676,2.023252010345459,-0.0387343131005764
1667776298876422400,12.36342236328125,-0.6650869846343994,-0.5893393754959106,-0.37180227041244507
1667776298886473500,12.373473388671876,-1.2734624147415161,-1.9032272100448608,-0.5011586546897888
1667776298896524500,12.383524658203125,-1.189363718032837,0.22985988855361938,0.003996394574642181
1667776298906575400,12.393575439453125,-0.15178680419921875,2.5093672275543213,0.6404120326042175
1667776298916626400,12.40362646484375,0.4474737048149109,1.1982686519622803,1.173090934753418
1667776298926678500,12.413678466796876,0.6927391886711121,-1.1345874071121216,1.8752503395080566
1667776298936729300,12.423729248046875,0.9562610983848572,-2.462618589401245,2.665273666381836
1667776298946780400,12.433780517578125,1.232306718826294,-2.9653711318969727,3.4207425117492676
1667776298956831500,12.44383154296875,1.301789402961731,-2.936093807220459,4.185270309448242
1667776298966882600,12.453882568359376,0.9664783477783203,-2.755892753601074,5.112792491912842
1667776298976934400,12.463934326171875,0.16122956573963165,-2.688060760498047,5.82814359664917
1667776298986985500,12.4739853515625,-0.9430226683616638,-2.5923011302948,5.250851154327393
1667776298997036500,12.48403662109375,-2.163658380508423,-2.185236692428589,3.398742914199829
1667776299007087400,12.49408740234375,-2.801420211791992,-0.34689760208129883,0.37607261538505554
